"","subj_no","age","day","stim","trial","difficulty","resp","corr","conf","RT"
"1",10,23,1,2,1,2,1,0,2,0.607614943256334
"2",10,36,1,1,2,3,2,0,1,0.709003690648685
"3",10,38,1,2,3,2,2,1,4,0.623201343356036
"4",10,25,1,2,4,1,1,0,3,0.688075932617567
"5",10,20,1,1,5,2,1,1,4,0.729647977614218
"6",10,40,1,1,6,1,1,1,5,0.409868386653865
"7",10,23,1,2,7,3,1,0,2,0.731638088206367
"8",10,20,1,2,8,1,1,0,4,0.443952475990547
"9",10,40,1,2,9,3,1,0,1,1.34663842111463
"10",10,23,1,2,10,1,1,0,4,0.569362745180381
"11",10,23,1,1,11,1,1,1,5,0.346703072254113
"12",10,36,1,1,12,2,2,0,2,0.742877026058049
"13",10,38,1,2,13,3,1,0,1,0.99696099209907
"14",10,25,1,2,14,2,2,1,3,0.6421189212578
"15",10,20,1,1,15,2,2,0,3,0.840221102554756
"16",10,40,1,1,16,2,1,1,4,0.591093908532666
"17",10,23,1,1,17,1,1,1,4,0.611222703128785
"18",10,20,1,2,18,1,2,1,5,0.481894354998255
"19",10,40,1,1,19,1,1,1,4,0.387171006440054
"20",10,23,1,1,20,1,2,0,4,0.626453324415254
"21",10,23,1,2,21,3,2,1,3,0.327720792917462
"22",10,36,1,1,22,1,1,1,5,0.455750739300231
"23",10,38,1,2,23,1,2,1,4,0.40837268237081
"24",10,25,1,2,24,3,2,1,2,0.574115282410826
"25",10,20,1,1,25,2,2,0,3,1.01032221861057
"26",10,40,1,1,26,2,1,1,4,0.664281647685352
"27",10,23,1,1,27,3,2,0,2,0.363580392302839
"28",10,20,1,1,28,1,1,1,5,0.5618533313372
"29",10,40,1,1,29,2,2,0,2,0.738129859752472
"30",10,23,1,1,30,2,1,1,3,0.764468335022627
"31",10,23,1,1,31,1,1,1,5,0.357697176473411
"32",10,36,1,2,32,1,1,0,4,0.610569746428827
"33",10,38,1,1,33,1,1,1,4,0.325982420781719
"34",10,25,1,1,34,1,1,1,5,0.404291361346831
"35",10,20,1,2,35,1,2,1,5,0.400538388932855
"36",10,40,1,2,36,2,2,1,4,0.345243242612696
"37",10,23,1,1,37,1,1,1,4,0.400560349209375
"38",10,20,1,2,38,3,1,0,1,1.14269255315762
"39",10,40,1,1,39,1,1,1,4,0.349436275585413
"40",10,23,1,1,40,1,1,1,5,0.323634222219537
"41",10,23,1,1,41,1,2,0,4,0.476460698878079
"42",10,36,1,2,42,3,2,1,3,0.500213940072176
"43",10,38,1,1,43,2,2,0,2,0.685351504397382
"44",10,25,1,2,44,1,1,0,4,0.59257261646032
"45",10,20,1,2,45,3,1,0,1,0.597877238812866
"46",10,40,1,2,46,3,2,1,2,0.908052728715827
"47",10,23,1,1,47,3,2,0,1,0.644122677805534
"48",10,20,1,2,48,3,1,0,1,0.334055672302499
"49",10,40,1,1,49,3,1,1,2,0.624890659883099
"50",10,23,1,2,50,2,1,0,2,0.5569056333427
"51",10,23,1,2,51,3,2,1,2,0.911362285473987
"52",10,36,1,1,52,2,1,1,4,0.596018526828819
"53",10,38,1,2,53,2,1,0,2,0.883815310224645
"54",10,25,1,2,54,1,2,1,5,0.335169347723035
"55",10,20,1,2,55,2,2,1,4,0.704454726677762
"56",10,40,1,1,56,2,2,0,3,0.69476067347048
"57",10,23,1,1,57,1,1,1,5,0.445639596815912
"58",10,20,1,1,58,2,1,1,4,0.749589630923082
"59",10,40,1,1,59,3,2,0,1,0.568534597792706
"60",10,23,1,1,60,3,2,0,2,0.641264271818936
"61",10,23,1,1,61,1,1,1,4,0.312065459971303
"62",10,36,1,2,62,3,1,0,2,1.60844131414771
"63",10,38,1,1,63,2,2,0,3,0.805195829746215
"64",10,25,1,2,64,2,1,0,3,0.612223246565237
"65",10,20,1,2,65,3,2,1,2,0.678516496449543
"66",10,40,1,2,66,2,2,1,3,0.63499179334671
"67",10,23,1,2,67,2,2,1,4,0.555285806719682
"68",10,20,1,1,68,3,2,0,1,1.27402864305213
"69",10,40,1,1,69,3,1,1,2,0.219311959765489
"70",10,23,1,1,70,1,1,1,4,0.33580444498102
"71",10,23,1,2,71,1,2,1,5,0.471202742586779
"72",10,36,1,1,72,3,1,1,3,1.03017111371023
"73",10,38,1,2,73,2,1,0,3,0.703835674275394
"74",10,25,1,2,74,2,2,1,3,0.516324508713217
"75",10,20,1,1,75,1,1,1,4,0.447349020433378
"76",10,40,1,1,76,2,2,0,3,0.492185067467804
"77",10,23,1,2,77,1,2,1,5,0.383958644207931
"78",10,20,1,2,78,1,1,0,3,0.587853922597692
"79",10,40,1,1,79,3,2,0,2,0.946251901562454
"80",10,23,1,1,80,2,2,0,2,0.749904644150338
"81",10,23,1,1,81,2,2,0,3,0.485144360170986
"82",10,36,1,2,82,2,2,1,4,0.484459508000181
"83",10,38,1,2,83,3,2,1,3,0.781701098376676
"84",10,25,1,2,84,2,2,1,4,0.740147085658572
"85",10,20,1,1,85,3,2,0,2,1.91458042542412
"86",10,40,1,2,86,2,1,0,2,0.553737935501264
"87",10,23,1,2,87,2,1,0,3,0.547247347281847
"88",10,20,1,1,88,1,1,1,4,0.317610208864168
"89",10,40,1,1,89,2,1,1,3,0.540301588936584
"90",10,23,1,1,90,1,1,1,4,0.390166084604744
"91",10,23,1,1,91,1,1,1,4,0.466199135535203
"92",10,36,1,2,92,1,2,1,5,0.409720009364351
"93",10,38,1,1,93,1,1,1,5,0.336501536787141
"94",10,25,1,1,94,3,2,0,2,0.457969688319137
"95",10,20,1,1,95,1,1,1,4,0.412032398502611
"96",10,40,1,1,96,1,2,0,3,0.666323491077492
"97",10,23,1,2,97,2,1,0,3,0.795658023202606
"98",10,20,1,1,98,3,1,1,3,0.608571705140329
"99",10,40,1,1,99,1,1,1,4,0.473768287161419
"100",10,23,1,2,100,1,2,1,5,0.479980401471415
"101",10,23,1,2,101,1,2,1,5,0.439443077138936
"102",10,36,1,2,102,1,2,1,4,0.424194149764179
"103",10,38,1,2,103,1,1,0,4,0.436428708391534
"104",10,25,1,1,104,1,1,1,5,0.418444746114172
"105",10,20,1,1,105,1,1,1,5,0.293013754525174
"106",10,40,1,1,106,1,1,1,5,0.582502902193565
"107",10,23,1,1,107,2,1,1,4,0.534374711870443
"108",10,20,1,2,108,1,2,1,5,0.336064367008089
"109",10,40,1,1,109,3,2,0,1,1.29100895091868
"110",10,23,1,1,110,2,1,1,3,0.725975080822472
"111",10,23,1,2,111,2,1,0,3,0.576441647706063
"112",10,36,1,1,112,3,1,1,3,1.2973702667461
"113",10,38,1,2,113,3,2,1,2,0.832990021941063
"114",10,25,1,1,114,2,2,0,2,0.542661475890517
"115",10,20,1,1,115,3,2,0,1,1.35553840206915
"116",10,40,1,2,116,3,1,0,1,1.29315232255548
"117",10,23,1,2,117,2,1,0,2,0.193095073540954
"118",10,20,1,1,118,3,1,1,3,0.602234453232209
"119",10,40,1,2,119,3,2,1,3,0.222090870059849
"120",10,23,1,2,120,1,2,1,4,0.362065425061623
"121",10,23,1,1,121,1,1,1,5,0.338201041764599
"122",10,36,1,2,122,2,2,1,4,0.670427646172276
"123",10,38,1,2,123,2,1,0,3,1.02164257708029
"124",10,25,1,2,124,2,2,1,3,0.527589524118988
"125",10,20,1,2,125,3,2,1,2,0.690219811365698
"126",10,40,1,1,126,1,1,1,5,0.489730403781178
"127",10,23,1,1,127,3,1,1,3,0.742156817525633
"128",10,20,1,1,128,3,2,0,2,1.11807141092035
"129",10,40,1,1,129,2,2,0,3,0.635707108165646
"130",10,23,1,2,130,1,2,1,5,0.380205430497236
"131",10,23,1,1,131,1,1,1,4,0.331750810185399
"132",10,36,1,1,132,2,1,1,3,0.568641322080733
"133",10,38,1,2,133,3,1,0,1,0.834445640282511
"134",10,25,1,2,134,2,1,0,3,0.517211452139499
"135",10,20,1,2,135,1,2,1,5,0.472808880258042
"136",10,40,1,2,136,3,2,1,2,0.722992831602636
"137",10,23,1,1,137,2,2,0,3,0.847214480252215
"138",10,20,1,2,138,3,2,1,3,0.715650875790844
"139",10,40,1,2,139,2,2,1,4,0.48778777776615
"140",10,23,1,1,140,3,2,0,2,0.461789122666009
"141",10,23,1,2,141,2,2,1,3,0.594193901087024
"142",10,36,1,2,142,2,1,0,3,0.323221071931271
"143",10,38,1,1,143,2,2,0,3,0.675680719374842
"144",10,25,1,2,144,1,2,1,5,0.446713702081305
"145",10,20,1,1,145,2,1,1,3,0.759247299816847
"146",10,40,1,1,146,2,2,0,2,0.910926790043365
"147",10,23,1,1,147,3,1,1,3,0.407681540262191
"148",10,20,1,2,148,3,2,1,2,0.510287537430188
"149",10,40,1,1,149,3,1,1,2,1.09781942249003
"150",10,23,1,2,150,3,2,1,2,0.552914086122541
"151",10,23,1,2,151,3,1,0,1,1.01542119289405
"152",10,36,1,1,152,3,1,1,2,0.666994748408376
"153",10,38,1,2,153,1,2,1,5,0.457113178199557
"154",10,25,1,2,154,3,1,0,2,1.03947212380859
"155",10,20,1,1,155,3,2,0,1,0.92757502554708
"156",10,40,1,2,156,3,1,0,2,1.87401849855066
"157",10,23,1,2,157,1,2,1,5,0.477071084146645
"158",10,20,1,1,158,3,1,1,2,0.914170397115113
"159",10,40,1,1,159,3,1,1,2,1.18868301233632
"160",10,23,1,2,160,1,1,0,4,0.557932424708794
"161",10,23,1,2,161,3,1,0,2,0.937677160473614
"162",10,36,1,2,162,1,2,1,5,0.429393745151196
"163",10,38,1,1,163,2,1,1,4,0.526725480095653
"164",10,25,1,1,164,1,1,1,4,0.434591809550306
"165",10,20,1,2,165,3,2,1,2,0.684042290792983
"166",10,40,1,2,166,1,2,1,5,0.339181170728668
"167",10,23,1,1,167,1,2,0,4,0.535676456740113
"168",10,20,1,1,168,1,1,1,5,0.376046054876379
"169",10,40,1,2,169,2,2,1,3,0.806902566471629
"170",10,23,1,2,170,3,1,0,2,0.855112919567227
"171",10,23,1,1,171,3,1,1,3,0.741193841290214
"172",10,36,1,1,172,2,2,0,3,0.964202138934949
"173",10,38,1,2,173,1,2,1,4,0.469057604913454
"174",10,25,1,2,174,2,1,0,3,0.879890963375822
"175",10,20,1,2,175,2,2,1,4,0.728949610586162
"176",10,40,1,2,176,3,2,1,2,0.620190847530879
"177",10,23,1,2,177,2,1,0,2,0.639304680060488
"178",10,20,1,1,178,1,2,0,3,0.467570269383394
"179",10,40,1,1,179,1,1,1,5,0.426299497946765
"180",10,23,1,2,180,1,2,1,5,0.330614179094453
"181",10,23,1,1,181,3,1,1,3,0.83658215282336
"182",10,36,1,2,182,3,2,1,3,0.922727832348167
"183",10,38,1,2,183,2,1,0,2,0.566726215573437
"184",10,25,1,1,184,1,2,0,4,0.566248843625115
"185",10,20,1,2,185,3,1,0,1,0.941515787522662
"186",10,40,1,1,186,2,2,0,2,0.832893224991899
"187",10,23,1,1,187,2,1,1,4,0.667254257763472
"188",10,20,1,2,188,1,2,1,4,0.301439309586135
"189",10,40,1,2,189,3,2,1,3,0.848160817230081
"190",10,23,1,1,190,2,1,1,4,0.496157219158736
"191",10,23,1,1,191,2,1,1,3,0.586845406160137
"192",10,36,1,2,192,3,1,0,2,1.42471140496307
"193",10,38,1,1,193,2,1,1,3,0.535854853374363
"194",10,25,1,2,194,1,2,1,4,0.459649595221168
"195",10,20,1,1,195,3,1,1,2,0.774746042101871
"196",10,40,1,2,196,3,1,0,2,1.28726758227933
"197",10,23,1,2,197,3,2,1,3,0.904819528778006
"198",10,20,1,1,198,2,2,0,2,0.816467389082345
"199",10,40,1,2,199,1,2,1,5,0.445509205555596
"200",10,23,1,1,200,3,1,1,2,0.983236590934209
"201",10,23,1,2,201,1,2,1,4,0.254005036220431
"202",10,36,1,2,202,1,2,1,4,0.273323352154941
"203",10,38,1,2,203,3,2,1,3,0.949226948678084
"204",10,25,1,1,204,3,2,0,2,1.39494000851202
"205",10,20,1,2,205,2,1,0,3,0.858222033590337
"206",10,40,1,2,206,2,1,0,3,0.703372376116182
"207",10,23,1,2,207,2,1,0,2,0.54769291634373
"208",10,20,1,1,208,3,1,1,2,0.570355656967762
"209",10,40,1,2,209,2,2,1,3,0.706353489623875
"210",10,23,1,2,210,3,1,0,2,0.981922533638404
"211",10,23,1,2,211,2,1,0,2,0.671686434269943
"212",10,36,1,2,212,2,1,0,2,0.699719880363334
"213",10,38,1,2,213,2,2,1,4,0.574769627411864
"214",10,25,1,1,214,3,2,0,1,0.97306355595806
"215",10,20,1,2,215,3,2,1,3,0.91020537231494
"216",10,40,1,2,216,1,2,1,5,0.429907942066246
"217",10,23,1,1,217,3,1,1,2,0.723650069397173
"218",10,20,1,1,218,3,1,1,3,0.802430814824303
"219",10,40,1,1,219,2,1,1,4,0.523903635374852
"220",10,23,1,2,220,2,2,1,3,0.467086912324669
"221",10,23,1,1,221,1,1,1,5,0.387664873471317
"222",10,36,1,2,222,1,2,1,5,0.503718536533976
"223",10,38,1,2,223,2,2,1,3,0.570387071302855
"224",10,25,1,1,224,1,1,1,5,0.473269780455384
"225",10,20,1,1,225,3,1,1,3,0.69918013878324
"226",10,40,1,1,226,1,1,1,5,0.416538342112573
"227",10,23,1,2,227,2,2,1,3,0.417188384801378
"228",10,20,1,1,228,2,1,1,3,0.529460662662655
"229",10,40,1,1,229,3,2,0,2,0.993038526826201
"230",10,23,1,2,230,1,2,1,5,0.232439803409586
"231",10,23,1,1,231,1,1,1,5,0.457681401647672
"232",10,36,1,2,232,3,1,0,2,0.362783386171308
"233",10,38,1,2,233,3,1,0,2,0.737894768201262
"234",10,25,1,1,234,1,1,1,4,0.420214983243723
"235",10,20,1,1,235,2,2,0,2,0.613570557821651
"236",10,40,1,1,236,3,2,0,1,1.36973695243014
"237",10,23,1,2,237,2,2,1,4,0.524990174239759
"238",10,20,1,1,238,3,1,1,3,0.829970837347903
"239",10,40,1,1,239,2,1,1,4,0.610758377581147
"240",10,23,1,1,240,1,1,1,5,0.436070959495963
"241",9,34,1,2,1,1,2,1,4,0.40921431300055
"242",9,26,1,1,2,1,1,1,5,0.389465282410816
"243",9,37,1,2,3,3,1,0,2,1.56539074808952
"244",9,33,1,1,4,2,1,1,3,0.664727700581641
"245",9,38,1,2,5,2,2,1,3,0.646166908494568
"246",9,35,1,1,6,2,2,0,2,0.780621600485562
"247",9,35,1,2,7,2,2,1,4,0.48360374327249
"248",9,31,1,2,8,1,2,1,5,0.380001855458798
"249",9,28,1,2,9,2,1,0,2,0.817424787137749
"250",9,31,1,1,10,3,2,0,1,0.885659799684401
"251",9,34,1,2,11,3,1,0,1,0.785089258307602
"252",9,26,1,2,12,3,2,1,2,1.07131540478459
"253",9,37,1,1,13,3,1,1,3,0.789743931223324
"254",9,33,1,2,14,2,1,0,2,0.917101322596957
"255",9,38,1,2,15,2,1,0,3,0.47348688955752
"256",9,35,1,2,16,2,1,0,3,0.531913106066788
"257",9,35,1,1,17,2,2,0,2,0.634259939702093
"258",9,31,1,1,18,1,1,1,4,0.320762019954493
"259",9,28,1,2,19,2,2,1,4,0.348192445209188
"260",9,31,1,2,20,2,2,1,3,0.661755191973678
"261",9,34,1,2,21,1,2,1,4,0.442539159292726
"262",9,26,1,2,22,3,1,0,2,0.864367458569315
"263",9,37,1,2,23,2,1,0,3,0.45508614326555
"264",9,33,1,2,24,1,1,0,3,0.550773240007784
"265",9,38,1,2,25,3,2,1,3,0.764489384801263
"266",9,35,1,2,26,1,2,1,4,0.423228894775366
"267",9,35,1,2,27,3,1,0,2,0.747788843845573
"268",9,31,1,1,28,1,2,0,3,0.443159703237753
"269",9,28,1,1,29,3,1,1,3,0.822373554837206
"270",9,31,1,2,30,3,2,1,2,0.58070863075167
"271",9,34,1,1,31,1,2,0,3,0.648357674706184
"272",9,26,1,1,32,3,2,0,2,0.364302598853308
"273",9,37,1,1,33,1,1,1,4,0.315172560953205
"274",9,33,1,2,34,2,1,0,2,0.605399868185362
"275",9,38,1,2,35,1,1,0,4,0.65769736828452
"276",9,35,1,2,36,2,1,0,3,0.793430299019759
"277",9,35,1,1,37,2,1,1,4,0.680131686732947
"278",9,31,1,1,38,3,1,1,3,1.00679174794606
"279",9,28,1,1,39,3,2,0,2,1.52565198339951
"280",9,31,1,1,40,1,1,1,5,0.424528740800203
"281",9,34,1,2,41,1,2,1,5,0.409240817580505
"282",9,26,1,2,42,1,2,1,4,0.434237515372834
"283",9,37,1,1,43,2,1,1,4,0.558496420182479
"284",9,33,1,1,44,1,1,1,4,0.424367804842972
"285",9,38,1,1,45,2,1,1,3,0.595207311976853
"286",9,35,1,2,46,3,1,0,1,1.12367625783622
"287",9,35,1,1,47,2,1,1,4,0.504135379090654
"288",9,31,1,1,48,2,1,1,3,0.722687760825814
"289",9,28,1,1,49,2,1,1,4,0.605950215294634
"290",9,31,1,1,50,2,1,1,4,0.672192475417841
"291",9,34,1,2,51,1,2,1,5,0.457080809929412
"292",9,26,1,1,52,3,1,1,2,0.878425939575066
"293",9,37,1,2,53,1,1,0,4,0.562620200248107
"294",9,33,1,2,54,1,2,1,4,0.461929868145489
"295",9,38,1,2,55,2,2,1,3,0.714296605817244
"296",9,35,1,1,56,1,1,1,5,0.480769475077991
"297",9,35,1,2,57,1,2,1,5,0.454920384896033
"298",9,31,1,2,58,3,1,0,2,0.680329505875203
"299",9,28,1,2,59,2,1,0,2,0.474502573971494
"300",9,31,1,2,60,1,2,1,5,0.384985939862256
"301",9,34,1,1,61,2,1,1,4,0.847481509877825
"302",9,26,1,1,62,1,1,1,4,0.479818008661691
"303",9,37,1,2,63,2,2,1,4,0.44795260227435
"304",9,33,1,2,64,1,2,1,4,0.412280212281196
"305",9,38,1,2,65,2,1,0,2,0.63343061852344
"306",9,35,1,1,66,1,1,1,5,0.283963578607964
"307",9,35,1,1,67,1,1,1,4,0.492754129422205
"308",9,31,1,1,68,1,1,1,4,0.536409147769662
"309",9,28,1,1,69,1,2,0,4,0.585989380525384
"310",9,31,1,2,70,3,2,1,3,0.650788619628215
"311",9,34,1,2,71,2,2,1,3,0.787352365375945
"312",9,26,1,1,72,3,1,1,3,0.975155950136123
"313",9,37,1,1,73,3,1,1,2,0.608708179064822
"314",9,33,1,1,74,3,2,0,2,0.94515695316692
"315",9,38,1,1,75,1,1,1,5,0.372600273372629
"316",9,35,1,2,76,3,1,0,1,0.734815334774344
"317",9,35,1,1,77,2,2,0,2,0.689972032267292
"318",9,31,1,1,78,1,2,0,4,0.358893579879812
"319",9,28,1,2,79,1,2,1,5,0.384573029653662
"320",9,31,1,1,80,2,1,1,3,0.647117519254539
"321",9,34,1,1,81,1,2,0,3,0.477742285607759
"322",9,26,1,1,82,3,1,1,2,0.753273943541372
"323",9,37,1,2,83,2,2,1,3,0.706905485470421
"324",9,33,1,2,84,1,2,1,5,0.36485741521864
"325",9,38,1,1,85,3,1,1,3,0.635858635884041
"326",9,35,1,2,86,2,2,1,4,0.761429828565165
"327",9,35,1,1,87,2,2,0,3,0.921054068714529
"328",9,31,1,2,88,3,1,0,1,1.10139356068382
"329",9,28,1,2,89,1,2,1,4,0.289822031282893
"330",9,31,1,2,90,1,2,1,4,0.466107064746587
"331",9,34,1,2,91,2,2,1,4,0.371859038386296
"332",9,26,1,1,92,1,1,1,5,0.376537946645845
"333",9,37,1,2,93,3,1,0,2,1.05002795054019
"334",9,33,1,1,94,2,1,1,3,0.68007610829393
"335",9,38,1,2,95,3,1,0,1,0.615819290565858
"336",9,35,1,1,96,1,2,0,3,0.577031455547167
"337",9,35,1,1,97,2,1,1,4,0.453782982342313
"338",9,31,1,2,98,1,2,1,5,0.341483018337294
"339",9,28,1,2,99,3,1,0,1,1.38830866367751
"340",9,31,1,2,100,3,2,1,2,1.00671690309627
"341",9,34,1,2,101,1,2,1,5,0.370457848930047
"342",9,26,1,1,102,3,2,0,2,1.27697075157028
"343",9,37,1,1,103,2,2,0,2,0.590395298054482
"344",9,33,1,2,104,1,2,1,5,0.449911278543516
"345",9,38,1,2,105,3,1,0,2,0.864499371301029
"346",9,35,1,1,106,3,1,1,3,1.27787582251944
"347",9,35,1,1,107,3,1,1,3,0.720126288473341
"348",9,31,1,2,108,1,1,0,3,0.560125056458413
"349",9,28,1,1,109,3,1,1,3,0.916331553617964
"350",9,31,1,1,110,1,2,0,4,0.575354355594258
"351",9,34,1,2,111,2,2,1,4,0.733303957619012
"352",9,26,1,1,112,1,1,1,5,0.310007663390504
"353",9,37,1,2,113,3,2,1,2,0.871566588485151
"354",9,33,1,1,114,3,2,0,1,0.861620953019539
"355",9,38,1,1,115,3,1,1,3,0.7784369772482
"356",9,35,1,2,116,3,2,1,2,0.594099073087862
"357",9,35,1,1,117,3,2,0,2,1.4546984647819
"358",9,31,1,2,118,3,2,1,3,0.814488841511893
"359",9,28,1,2,119,3,1,0,2,0.705681954789075
"360",9,31,1,1,120,1,1,1,4,0.431708567577186
"361",9,34,1,2,121,1,1,0,4,0.649997395744501
"362",9,26,1,2,122,3,2,1,3,0.701580612161511
"363",9,37,1,2,123,1,1,0,4,0.613497562469934
"364",9,33,1,1,124,3,1,1,3,0.600689210572479
"365",9,38,1,1,125,3,2,0,1,0.755129265052797
"366",9,35,1,2,126,3,2,1,3,0.546301647699585
"367",9,35,1,1,127,2,2,0,2,0.619643530675943
"368",9,31,1,1,128,2,1,1,3,0.598374363071816
"369",9,28,1,2,129,2,2,1,3,0.551647120093657
"370",9,31,1,1,130,3,1,1,2,0.87947430558278
"371",9,34,1,1,131,2,1,1,4,0.570299669226794
"372",9,26,1,1,132,1,1,1,5,0.562769790750784
"373",9,37,1,2,133,1,2,1,4,0.297375757208761
"374",9,33,1,1,134,1,1,1,4,0.337029934723431
"375",9,38,1,2,135,2,2,1,3,0.742699154711364
"376",9,35,1,2,136,2,2,1,4,0.536127826584313
"377",9,35,1,1,137,1,1,1,4,0.407054565433327
"378",9,31,1,2,138,1,2,1,4,0.463933776893161
"379",9,28,1,2,139,3,2,1,2,1.0156241970873
"380",9,31,1,1,140,3,1,1,3,0.573377037322188
"381",9,34,1,1,141,1,1,1,5,0.337519253927322
"382",9,26,1,1,142,3,2,0,1,1.25914782425969
"383",9,37,1,2,143,2,1,0,2,0.630585005465354
"384",9,33,1,1,144,2,1,1,4,0.768202165553973
"385",9,38,1,2,145,3,2,1,3,0.916718825089287
"386",9,35,1,2,146,2,2,1,3,0.86474229299876
"387",9,35,1,2,147,1,2,1,4,0.448211098326213
"388",9,31,1,2,148,1,2,1,4,0.383804475655562
"389",9,28,1,1,149,1,1,1,4,0.51124318504053
"390",9,31,1,1,150,1,1,1,4,0.462600924143273
"391",9,34,1,1,151,2,1,1,3,0.482289505477094
"392",9,26,1,2,152,2,2,1,3,0.561175332943329
"393",9,37,1,1,153,2,1,1,3,0.549699935588465
"394",9,33,1,1,154,1,1,1,5,0.31672162277429
"395",9,38,1,1,155,1,2,0,4,0.439249413356576
"396",9,35,1,2,156,1,2,1,4,0.436125133812053
"397",9,35,1,2,157,3,1,0,2,0.999791623542008
"398",9,31,1,2,158,2,1,0,3,0.517903708259344
"399",9,28,1,2,159,1,2,1,5,0.48148145455384
"400",9,31,1,2,160,1,2,1,5,0.501460833837673
"401",9,34,1,1,161,2,1,1,4,0.759260699245593
"402",9,26,1,1,162,3,2,0,1,0.530802036592991
"403",9,37,1,1,163,3,1,1,2,0.872461765795082
"404",9,33,1,2,164,1,2,1,5,0.473328376009809
"405",9,38,1,1,165,2,2,0,3,0.711410048320572
"406",9,35,1,2,166,3,2,1,3,0.957297565051239
"407",9,35,1,2,167,3,1,0,1,1.04170529169336
"408",9,31,1,1,168,2,2,0,3,0.64000721333421
"409",9,28,1,1,169,2,1,1,3,0.717831108773983
"410",9,31,1,1,170,2,2,0,2,0.905626669670716
"411",9,34,1,1,171,1,2,0,4,0.452689274631852
"412",9,26,1,1,172,3,2,0,2,1.13564817423351
"413",9,37,1,1,173,3,1,1,3,0.985236252134981
"414",9,33,1,2,174,1,1,0,4,0.598462708474997
"415",9,38,1,1,175,3,2,0,2,1.02365142994281
"416",9,35,1,2,176,1,2,1,5,0.364325293841832
"417",9,35,1,2,177,2,1,0,3,0.634856605472275
"418",9,31,1,1,178,2,1,1,4,0.746062146821659
"419",9,28,1,2,179,2,2,1,4,0.494031593375859
"420",9,31,1,1,180,2,1,1,4,0.526895036094818
"421",9,34,1,1,181,3,1,1,2,0.816532790655948
"422",9,26,1,1,182,1,1,1,5,0.405919284377478
"423",9,37,1,1,183,2,1,1,4,0.399718441914483
"424",9,33,1,2,184,2,2,1,3,0.627242775750349
"425",9,38,1,2,185,3,1,0,1,0.50621102135294
"426",9,35,1,1,186,1,1,1,4,0.438763456217654
"427",9,35,1,2,187,1,2,1,5,0.428912580416428
"428",9,31,1,2,188,3,1,0,2,0.917888634064157
"429",9,28,1,1,189,1,1,1,4,0.421672764546982
"430",9,31,1,1,190,1,2,0,4,0.494584070861175
"431",9,34,1,2,191,3,2,1,3,0.760145358568128
"432",9,26,1,1,192,2,1,1,3,0.582259512898753
"433",9,37,1,1,193,3,1,1,2,0.722333176060388
"434",9,33,1,1,194,2,2,0,2,0.662260613392062
"435",9,38,1,1,195,1,1,1,4,0.317001467184311
"436",9,35,1,1,196,3,1,1,2,0.913572201930913
"437",9,35,1,1,197,3,1,1,3,0.490605292264037
"438",9,31,1,2,198,3,1,0,2,1.40863882415817
"439",9,28,1,1,199,2,1,1,4,0.682790758132305
"440",9,31,1,2,200,3,1,0,2,0.906702200212268
"441",9,34,1,2,201,1,2,1,4,0.301304395883226
"442",9,26,1,1,202,3,1,1,2,0.981540086638295
"443",9,37,1,2,203,1,2,1,4,0.365085579227053
"444",9,33,1,2,204,3,2,1,2,0.928101852720482
"445",9,38,1,1,205,1,1,1,5,0.43264667516846
"446",9,35,1,2,206,3,1,0,2,0.191600528174509
"447",9,35,1,2,207,2,1,0,3,0.650203026376951
"448",9,31,1,1,208,3,1,1,2,0.740728686758278
"449",9,28,1,2,209,2,2,1,4,0.355884437315666
"450",9,31,1,1,210,2,2,0,3,0.7111020443295
"451",9,34,1,2,211,1,1,0,3,0.576665678434572
"452",9,26,1,1,212,1,1,1,5,0.370821454908997
"453",9,37,1,2,213,1,2,1,5,0.46192634299622
"454",9,33,1,2,214,2,2,1,3,0.695603964089587
"455",9,38,1,2,215,3,2,1,2,0.704623246710269
"456",9,35,1,1,216,3,2,0,2,0.860594572943382
"457",9,35,1,1,217,2,2,0,2,0.792345594401236
"458",9,31,1,2,218,2,2,1,3,0.702267771377838
"459",9,28,1,1,219,3,1,1,3,0.83353596435711
"460",9,31,1,2,220,1,2,1,5,0.371596186782295
"461",9,34,1,1,221,2,1,1,4,0.521027671503374
"462",9,26,1,1,222,3,2,0,1,1.3225685491927
"463",9,37,1,1,223,2,2,0,3,0.529488130132584
"464",9,33,1,1,224,2,1,1,4,0.693647503058273
"465",9,38,1,2,225,2,2,1,4,0.709687007719907
"466",9,35,1,2,226,3,2,1,3,0.587262975798313
"467",9,35,1,1,227,2,1,1,4,0.485230522350918
"468",9,31,1,2,228,2,2,1,4,0.528916075876278
"469",9,28,1,1,229,1,1,1,5,0.383318192854738
"470",9,31,1,1,230,1,1,1,4,0.449742072146827
"471",9,34,1,1,231,1,1,1,5,0.397494530842126
"472",9,26,1,1,232,2,1,1,3,0.609873700377943
"473",9,37,1,2,233,3,1,0,1,0.881010126355324
"474",9,33,1,2,234,2,2,1,4,0.530919099809197
"475",9,38,1,2,235,3,1,0,1,1.2659872511281
"476",9,35,1,1,236,3,2,0,2,1.21972013823692
"477",9,35,1,2,237,2,1,0,3,0.560513937361963
"478",9,31,1,2,238,3,1,0,2,1.15439608708857
"479",9,28,1,2,239,2,2,1,3,0.672361965726496
"480",9,31,1,2,240,3,2,1,2,0.935790586754091
"481",8,25,1,2,1,1,2,1,5,0.447355194779502
"482",8,29,1,1,2,2,1,1,3,0.501894175351073
"483",8,36,1,1,3,3,1,1,2,0.647452861696636
"484",8,24,1,2,4,1,2,1,5,0.379689013232585
"485",8,26,1,1,5,2,1,1,4,0.440398841701087
"486",8,24,1,1,6,3,2,0,1,0.507858144242385
"487",8,18,1,2,7,2,2,1,4,0.586282917925728
"488",8,29,1,2,8,2,2,1,4,0.59791173191676
"489",8,26,1,1,9,3,2,0,1,0.925466239206447
"490",8,40,1,1,10,3,2,0,1,1.90348341894872
"491",8,25,1,1,11,2,2,0,2,0.440279385266187
"492",8,29,1,2,12,1,1,0,3,0.606427428726431
"493",8,36,1,2,13,2,1,0,2,0.940016981057062
"494",8,24,1,1,14,3,2,0,1,1.15845609091502
"495",8,26,1,2,15,2,1,0,3,0.728771160439023
"496",8,24,1,2,16,2,2,1,4,0.505526127079105
"497",8,18,1,2,17,1,2,1,4,0.609194504873378
"498",8,29,1,2,18,1,2,1,5,0.389464256162636
"499",8,26,1,1,19,3,1,1,3,0.634386775805567
"500",8,40,1,2,20,1,2,1,5,0.343922586603336
"501",8,25,1,1,21,2,1,1,3,0.531271404261042
"502",8,29,1,1,22,2,1,1,3,0.515391163812925
"503",8,36,1,2,23,3,2,1,2,0.501261315554868
"504",8,24,1,2,24,2,2,1,4,0.585983792493868
"505",8,26,1,1,25,3,2,0,1,0.591302884358714
"506",8,24,1,1,26,2,2,0,2,0.697668585656101
"507",8,18,1,1,27,2,2,0,2,1.01819048161914
"508",8,29,1,2,28,3,2,1,2,0.914271410659162
"509",8,26,1,1,29,3,2,0,1,0.404019724221067
"510",8,40,1,2,30,1,2,1,5,0.356099707289722
"511",8,25,1,1,31,2,1,1,4,0.392575217700998
"512",8,29,1,2,32,2,2,1,3,0.663137368569141
"513",8,36,1,2,33,2,2,1,3,0.625780471045837
"514",8,24,1,2,34,1,2,1,4,0.370000890378865
"515",8,26,1,1,35,3,1,1,2,0.560253732991497
"516",8,24,1,1,36,2,2,0,3,0.778216558124218
"517",8,18,1,2,37,3,2,1,3,0.618315022314984
"518",8,29,1,1,38,1,1,1,4,0.420333110416713
"519",8,26,1,1,39,3,2,0,1,1.37346336545174
"520",8,40,1,1,40,1,1,1,4,0.467367553689032
"521",8,25,1,1,41,1,1,1,5,0.375926858541547
"522",8,29,1,2,42,2,1,0,2,0.931230260225897
"523",8,36,1,1,43,2,1,1,3,0.645828099792656
"524",8,24,1,2,44,3,2,1,3,0.83556495791918
"525",8,26,1,1,45,3,2,0,2,1.23330952003239
"526",8,24,1,2,46,2,2,1,4,0.793621487007659
"527",8,18,1,1,47,1,1,1,5,0.538220212945384
"528",8,29,1,1,48,2,1,1,4,0.652948935351025
"529",8,26,1,1,49,2,2,0,3,0.577754105596341
"530",8,40,1,1,50,2,1,1,3,0.662617792328292
"531",8,25,1,2,51,1,2,1,5,0.537981488509203
"532",8,29,1,2,52,1,2,1,5,0.417672991010284
"533",8,36,1,1,53,3,2,0,2,1.72443428044018
"534",8,24,1,2,54,1,2,1,5,0.341813683850917
"535",8,26,1,2,55,2,1,0,3,0.561714867482602
"536",8,24,1,1,56,2,1,1,3,0.613266042360486
"537",8,18,1,1,57,3,2,0,1,0.940270815884429
"538",8,29,1,1,58,2,1,1,3,0.626635398847689
"539",8,26,1,2,59,1,1,0,3,0.438802112489629
"540",8,40,1,1,60,2,1,1,3,0.475939806738888
"541",8,25,1,2,61,2,1,0,2,0.745232839267564
"542",8,29,1,2,62,2,2,1,3,0.477791066070191
"543",8,36,1,1,63,3,1,1,3,1.14362683625875
"544",8,24,1,1,64,3,1,1,3,0.502394023750084
"545",8,26,1,2,65,2,1,0,3,0.668902154524443
"546",8,24,1,1,66,3,1,1,2,0.813767838472413
"547",8,18,1,2,67,2,2,1,3,0.490908454812801
"548",8,29,1,2,68,1,1,0,3,0.544736154736409
"549",8,26,1,1,69,3,1,1,2,0.677158445124841
"550",8,40,1,1,70,2,1,1,4,0.709374420607403
"551",8,25,1,2,71,3,1,0,2,1.3301435073135
"552",8,29,1,1,72,1,1,1,4,0.506180139815885
"553",8,36,1,1,73,3,2,0,2,1.97960907189574
"554",8,24,1,2,74,3,2,1,3,0.825169436477175
"555",8,26,1,2,75,1,2,1,4,0.588609329923316
"556",8,24,1,1,76,3,1,1,2,0.709057722076699
"557",8,18,1,1,77,3,2,0,2,1.22170140714539
"558",8,29,1,2,78,3,1,0,1,0.907762354232288
"559",8,26,1,1,79,3,2,0,1,0.282113766633115
"560",8,40,1,2,80,1,2,1,4,0.468504582113313
"561",8,25,1,2,81,3,2,1,3,0.834278921942316
"562",8,29,1,2,82,1,1,0,4,0.461626227542265
"563",8,36,1,2,83,3,1,0,1,1.29242293962277
"564",8,24,1,2,84,1,1,0,3,0.509122407319641
"565",8,26,1,1,85,3,1,1,3,0.893970410229266
"566",8,24,1,2,86,2,2,1,3,0.616920604521232
"567",8,18,1,2,87,2,2,1,3,0.503102296855253
"568",8,29,1,2,88,3,1,0,2,0.458857111277517
"569",8,26,1,1,89,2,2,0,2,0.49311288016718
"570",8,40,1,1,90,3,2,0,2,0.500256954113519
"571",8,25,1,1,91,1,1,1,5,0.401089082858463
"572",8,29,1,1,92,1,1,1,5,0.43565686757108
"573",8,36,1,2,93,1,2,1,5,0.355273785584596
"574",8,24,1,1,94,3,2,0,1,1.01424639867563
"575",8,26,1,1,95,2,1,1,4,0.59414771269608
"576",8,24,1,1,96,1,1,1,4,0.459464116397264
"577",8,18,1,2,97,3,2,1,2,0.82701209743223
"578",8,29,1,2,98,1,2,1,4,0.4328353025597
"579",8,26,1,2,99,1,2,1,5,0.442978319583477
"580",8,40,1,1,100,1,1,1,5,0.400902101677776
"581",8,25,1,2,101,2,2,1,4,0.597817572440092
"582",8,29,1,2,102,2,2,1,4,0.53294080474654
"583",8,36,1,2,103,2,2,1,4,0.529446958373694
"584",8,24,1,2,104,3,1,0,2,1.5132675889515
"585",8,26,1,2,105,1,2,1,4,0.365147543180565
"586",8,24,1,2,106,3,1,0,1,1.35330739389971
"587",8,18,1,1,107,3,1,1,2,1.16115892065534
"588",8,29,1,1,108,1,1,1,5,0.256090698852642
"589",8,26,1,1,109,2,2,0,2,0.756362607780273
"590",8,40,1,1,110,1,1,1,4,0.412619210013442
"591",8,25,1,2,111,3,2,1,3,0.971267672761889
"592",8,29,1,1,112,1,1,1,4,0.46836413482391
"593",8,36,1,2,113,2,2,1,3,0.359288041558526
"594",8,24,1,1,114,2,2,0,3,0.555571497294243
"595",8,26,1,1,115,2,1,1,4,0.543177639934075
"596",8,24,1,2,116,2,2,1,4,0.638066180369477
"597",8,18,1,1,117,1,2,0,3,0.497506037598912
"598",8,29,1,1,118,3,1,1,2,0.87991562039797
"599",8,26,1,2,119,3,2,1,2,0.874181782921385
"600",8,40,1,1,120,1,1,1,5,0.31570163790316
"601",8,25,1,1,121,1,1,1,4,0.394022411448637
"602",8,29,1,2,122,3,1,0,2,1.17392461834834
"603",8,36,1,2,123,1,2,1,5,0.523534560382486
"604",8,24,1,2,124,2,2,1,4,0.86091730371759
"605",8,26,1,1,125,1,1,1,5,0.411068815572306
"606",8,24,1,1,126,3,2,0,1,0.887802504376871
"607",8,18,1,2,127,3,2,1,3,1.02433981807411
"608",8,29,1,2,128,1,2,1,5,0.475778060765422
"609",8,26,1,2,129,1,2,1,4,0.347368094439281
"610",8,40,1,2,130,1,2,1,4,0.287065759343853
"611",8,25,1,2,131,3,2,1,2,0.895962084965728
"612",8,29,1,2,132,1,2,1,4,0.354112656052486
"613",8,36,1,2,133,2,2,1,4,0.70030157364186
"614",8,24,1,2,134,2,2,1,3,0.605933624120547
"615",8,26,1,2,135,2,2,1,4,0.302651889480622
"616",8,24,1,2,136,1,2,1,4,0.34781450732564
"617",8,18,1,2,137,1,2,1,4,0.514399829560869
"618",8,29,1,1,138,1,1,1,5,0.344054852683698
"619",8,26,1,1,139,1,1,1,4,0.430323792696465
"620",8,40,1,2,140,1,2,1,4,0.24585815505533
"621",8,25,1,2,141,3,2,1,3,1.02230704438542
"622",8,29,1,1,142,2,1,1,3,0.503081495025328
"623",8,36,1,2,143,1,2,1,4,0.426939213641537
"624",8,24,1,1,144,1,2,0,3,0.550970083133601
"625",8,26,1,2,145,2,1,0,2,0.778759023486518
"626",8,24,1,1,146,3,1,1,2,0.948321740069682
"627",8,18,1,1,147,2,1,1,3,0.631777080961858
"628",8,29,1,2,148,1,1,0,4,0.569959569417338
"629",8,26,1,2,149,1,2,1,5,0.357874567308009
"630",8,40,1,1,150,3,2,0,2,0.652871271783723
"631",8,25,1,1,151,3,1,1,2,0.887189943111652
"632",8,29,1,1,152,1,1,1,5,0.378930293629456
"633",8,36,1,2,153,1,2,1,4,0.358849520361469
"634",8,24,1,1,154,1,1,1,5,0.280694341849357
"635",8,26,1,1,155,3,1,1,2,0.403951765400643
"636",8,24,1,1,156,2,1,1,4,0.552467883964853
"637",8,18,1,1,157,1,1,1,4,0.503838043382249
"638",8,29,1,1,158,2,1,1,4,0.600187445909798
"639",8,26,1,2,159,2,1,0,3,0.747928385422762
"640",8,40,1,2,160,1,1,0,4,0.751403105753448
"641",8,25,1,2,161,2,1,0,3,0.588318368857612
"642",8,29,1,1,162,1,1,1,4,0.351857134361
"643",8,36,1,2,163,2,1,0,3,0.826553722772596
"644",8,24,1,1,164,3,2,0,2,0.703875453200761
"645",8,26,1,2,165,1,2,1,4,0.458629480525408
"646",8,24,1,2,166,3,1,0,2,0.960480332525888
"647",8,18,1,1,167,3,2,0,1,1.28472746649312
"648",8,29,1,1,168,2,2,0,3,1.03623817707491
"649",8,26,1,1,169,2,1,1,4,0.593149032163002
"650",8,40,1,1,170,1,2,0,4,0.390339307746261
"651",8,25,1,2,171,3,2,1,3,1.04545730994697
"652",8,29,1,1,172,1,1,1,4,0.464869867524482
"653",8,36,1,2,173,2,1,0,3,0.703857723416131
"654",8,24,1,2,174,2,2,1,3,0.593533706651842
"655",8,26,1,1,175,1,2,0,4,0.623774967129582
"656",8,24,1,2,176,3,2,1,3,0.737379619705466
"657",8,18,1,1,177,3,1,1,3,0.901190757952735
"658",8,29,1,1,178,2,2,0,3,0.796517349116661
"659",8,26,1,1,179,1,1,1,5,0.360764788799683
"660",8,40,1,1,180,2,1,1,4,0.646336100387512
"661",8,25,1,1,181,2,2,0,3,0.76626481341667
"662",8,29,1,2,182,3,2,1,3,0.452443419502724
"663",8,36,1,1,183,3,2,0,1,0.829503378246545
"664",8,24,1,1,184,2,1,1,3,0.726423660073513
"665",8,26,1,1,185,1,1,1,5,0.380291936211686
"666",8,24,1,1,186,2,1,1,3,0.536559477647242
"667",8,18,1,1,187,2,2,0,3,0.741078838657062
"668",8,29,1,2,188,2,2,1,4,0.698992269052947
"669",8,26,1,2,189,3,1,0,2,1.09209211696707
"670",8,40,1,1,190,1,1,1,5,0.373334204823981
"671",8,25,1,2,191,3,2,1,3,0.910860539305415
"672",8,29,1,1,192,2,2,0,3,0.584202660013638
"673",8,36,1,1,193,2,2,0,3,0.815872487021943
"674",8,24,1,2,194,3,1,0,1,0.922270863242305
"675",8,26,1,2,195,3,2,1,3,0.89945450214336
"676",8,24,1,1,196,1,2,0,3,0.583738659076814
"677",8,18,1,2,197,1,2,1,4,0.457734033136205
"678",8,29,1,2,198,2,2,1,4,0.241765441474859
"679",8,26,1,2,199,1,2,1,5,0.253145003344356
"680",8,40,1,1,200,3,1,1,2,0.95894313498766
"681",8,25,1,1,201,1,1,1,5,0.262651284205141
"682",8,29,1,1,202,1,2,0,4,0.584684035312062
"683",8,36,1,1,203,3,2,0,1,0.749017606611517
"684",8,24,1,2,204,3,1,0,1,0.908956853968664
"685",8,26,1,1,205,3,2,0,1,1.39303355243112
"686",8,24,1,1,206,2,1,1,3,0.434174862026252
"687",8,18,1,2,207,1,2,1,4,0.4264980020802
"688",8,29,1,1,208,3,2,0,1,0.90947100472802
"689",8,26,1,2,209,3,2,1,3,0.889718272686289
"690",8,40,1,1,210,1,1,1,4,0.496054449349722
"691",8,25,1,2,211,1,2,1,5,0.489153105423598
"692",8,29,1,2,212,1,2,1,5,0.44367119947944
"693",8,36,1,2,213,2,2,1,4,0.646847203008385
"694",8,24,1,1,214,1,1,1,5,0.310344862165222
"695",8,26,1,1,215,1,1,1,5,0.350085749160311
"696",8,24,1,2,216,2,2,1,4,0.688788572894213
"697",8,18,1,2,217,3,1,0,1,0.831883791819577
"698",8,29,1,2,218,1,2,1,4,0.370232265475411
"699",8,26,1,2,219,1,2,1,5,0.44597139465753
"700",8,40,1,1,220,3,1,1,2,0.754884870583915
"701",8,25,1,1,221,3,2,0,1,0.830134013725719
"702",8,29,1,2,222,3,2,1,3,0.792882722055749
"703",8,36,1,2,223,2,1,0,2,0.782709486272879
"704",8,24,1,1,224,3,2,0,2,0.804243582173378
"705",8,26,1,2,225,3,2,1,2,0.648750525323384
"706",8,24,1,2,226,3,1,0,2,1.02080584395785
"707",8,18,1,2,227,3,1,0,1,1.08794619077527
"708",8,29,1,2,228,3,2,1,2,0.883074155591711
"709",8,26,1,1,229,1,1,1,4,0.267201373863107
"710",8,40,1,2,230,1,2,1,4,0.517153923700359
"711",8,25,1,1,231,3,2,0,1,0.455068172775007
"712",8,29,1,2,232,3,1,0,2,1.28697939764584
"713",8,36,1,2,233,2,1,0,3,0.519746987257192
"714",8,24,1,2,234,3,2,1,3,1.17362731134724
"715",8,26,1,2,235,2,1,0,2,0.748763001107284
"716",8,24,1,2,236,2,2,1,4,0.474182219402259
"717",8,18,1,1,237,2,1,1,3,0.606255362385484
"718",8,29,1,1,238,1,1,1,5,0.398876476460736
"719",8,26,1,1,239,2,2,0,3,0.618727004670933
"720",8,40,1,1,240,2,1,1,3,0.699108663874083
"721",7,25,1,2,1,1,1,0,3,0.674650458103023
"722",7,21,1,2,2,2,1,0,3,0.916274799446267
"723",7,22,1,1,3,3,2,0,2,0.0624557059715228
"724",7,38,1,2,4,3,2,1,2,0.689730641844946
"725",7,22,1,1,5,2,1,1,3,0.464209125582957
"726",7,20,1,1,6,1,1,1,5,0.284664030004402
"727",7,30,1,1,7,3,1,1,2,0.855944494282443
"728",7,23,1,1,8,1,2,0,3,0.623112658175899
"729",7,34,1,1,9,3,2,0,1,1.14308313534451
"730",7,38,1,1,10,2,2,0,3,0.86749416466
"731",7,25,1,1,11,2,2,0,2,0.784130290381065
"732",7,21,1,2,12,1,2,1,5,0.261133739594462
"733",7,22,1,2,13,2,2,1,3,0.439994888125023
"734",7,38,1,1,14,2,1,1,4,0.399728115725416
"735",7,22,1,2,15,1,2,1,5,0.396950046806984
"736",7,20,1,2,16,3,2,1,2,0.554418679354026
"737",7,30,1,1,17,1,1,1,4,0.424498106377637
"738",7,23,1,2,18,1,2,1,5,0.32034541763552
"739",7,34,1,2,19,1,2,1,4,0.333367760246219
"740",7,38,1,1,20,1,1,1,5,0.481830844069339
"741",7,25,1,1,21,2,1,1,3,0.771287089795918
"742",7,21,1,1,22,3,2,0,1,0.761564456725552
"743",7,22,1,2,23,3,2,1,2,0.653426120457971
"744",7,38,1,2,24,3,1,0,2,0.995083498678059
"745",7,22,1,2,25,3,2,1,2,0.818692823341687
"746",7,20,1,2,26,2,1,0,3,0.946919376458828
"747",7,30,1,1,27,1,2,0,4,0.448100321256458
"748",7,23,1,2,28,2,1,0,2,0.611252780776858
"749",7,34,1,1,29,1,1,1,5,0.327166064690082
"750",7,38,1,2,30,3,1,0,2,0.243958212888956
"751",7,25,1,2,31,1,2,1,4,0.378579470468459
"752",7,21,1,1,32,1,1,1,4,0.390083328825271
"753",7,22,1,2,33,2,2,1,3,0.556220715301603
"754",7,38,1,2,34,3,1,0,2,1.35495043382481
"755",7,22,1,1,35,2,1,1,3,0.420013607935369
"756",7,20,1,2,36,1,1,0,4,0.559307967802981
"757",7,30,1,1,37,2,2,0,2,0.79898868351116
"758",7,23,1,2,38,1,1,0,4,0.665733269855283
"759",7,34,1,2,39,1,1,0,4,0.464949646187919
"760",7,38,1,2,40,1,2,1,4,0.301217628090768
"761",7,25,1,2,41,3,2,1,3,0.481867424188238
"762",7,21,1,1,42,3,1,1,3,0.631571680126034
"763",7,22,1,2,43,1,1,0,3,0.581588000297861
"764",7,38,1,2,44,1,1,0,4,0.6781934354922
"765",7,22,1,2,45,1,2,1,5,0.466136158759821
"766",7,20,1,1,46,2,1,1,3,0.680896128570058
"767",7,30,1,2,47,3,2,1,3,1.13031920384238
"768",7,23,1,2,48,3,1,0,1,0.331632073766928
"769",7,34,1,2,49,3,1,0,2,0.802556986214027
"770",7,38,1,1,50,2,1,1,4,0.732660904280798
"771",7,25,1,2,51,2,2,1,3,0.569815442830982
"772",7,21,1,2,52,1,2,1,4,0.447117046895566
"773",7,22,1,1,53,2,2,0,3,0.766982496920935
"774",7,38,1,2,54,3,2,1,2,0.635359375758455
"775",7,22,1,2,55,1,1,0,3,0.5222231689731
"776",7,20,1,1,56,1,1,1,4,0.405552329986564
"777",7,30,1,2,57,1,2,1,5,0.362950215378816
"778",7,23,1,2,58,2,1,0,3,0.600840597358612
"779",7,34,1,2,59,2,2,1,3,0.669780585134789
"780",7,38,1,1,60,2,2,0,2,0.650495944117157
"781",7,25,1,2,61,2,2,1,3,0.47065187066312
"782",7,21,1,1,62,1,2,0,3,0.602755315886537
"783",7,22,1,2,63,2,1,0,2,0.644218599078207
"784",7,38,1,1,64,3,1,1,3,0.724633118956832
"785",7,22,1,1,65,2,2,0,2,0.726527818921799
"786",7,20,1,1,66,1,1,1,4,0.487249548960601
"787",7,30,1,1,67,3,1,1,2,0.441027905685045
"788",7,23,1,2,68,3,2,1,2,0.728108957129379
"789",7,34,1,1,69,1,1,1,5,0.338055373199081
"790",7,38,1,2,70,1,2,1,5,0.413247615307163
"791",7,25,1,1,71,1,1,1,5,0.310339913637503
"792",7,21,1,1,72,3,2,0,1,1.17430250186025
"793",7,22,1,2,73,1,2,1,4,0.536911185675625
"794",7,38,1,2,74,2,2,1,3,0.578497278461932
"795",7,22,1,2,75,2,2,1,3,0.571440921123179
"796",7,20,1,1,76,1,1,1,4,0.43119413492136
"797",7,30,1,2,77,2,1,0,2,0.656133979858573
"798",7,23,1,1,78,1,1,1,4,0.334798425430192
"799",7,34,1,2,79,3,2,1,2,0.776770976406359
"800",7,38,1,1,80,2,1,1,3,0.751048551153987
"801",7,25,1,1,81,2,2,0,3,0.474077967869436
"802",7,21,1,2,82,1,2,1,4,0.242436821229565
"803",7,22,1,1,83,1,1,1,5,0.533781239265837
"804",7,38,1,2,84,1,2,1,5,0.325067415906203
"805",7,22,1,1,85,1,1,1,5,0.316063226797277
"806",7,20,1,2,86,2,1,0,2,1.04530508646229
"807",7,30,1,2,87,2,2,1,4,0.4382726225257
"808",7,23,1,1,88,3,1,1,2,0.572627658837634
"809",7,34,1,2,89,3,2,1,3,0.681595673025845
"810",7,38,1,1,90,1,1,1,5,0.354415418799224
"811",7,25,1,2,91,2,1,0,2,0.812400831537665
"812",7,21,1,1,92,3,1,1,3,0.686359427792364
"813",7,22,1,2,93,3,1,0,2,0.15170333985423
"814",7,38,1,1,94,1,2,0,4,0.575504864012776
"815",7,22,1,2,95,1,2,1,5,0.289951030107781
"816",7,20,1,2,96,3,2,1,3,0.833300312935575
"817",7,30,1,2,97,2,2,1,3,0.439216167791632
"818",7,23,1,1,98,3,1,1,3,0.742685288965402
"819",7,34,1,2,99,2,1,0,3,0.732121887935091
"820",7,38,1,2,100,1,2,1,4,0.345714503398856
"821",7,25,1,1,101,1,2,0,3,0.305866668374236
"822",7,21,1,1,102,3,1,1,3,0.628992525535681
"823",7,22,1,1,103,3,1,1,2,1.160340144804
"824",7,38,1,1,104,2,1,1,4,0.577618402370791
"825",7,22,1,2,105,3,1,0,1,0.825178938947426
"826",7,20,1,2,106,3,2,1,3,0.881115966030917
"827",7,30,1,1,107,3,2,0,1,1.1576975838784
"828",7,23,1,1,108,1,1,1,5,0.213289473179679
"829",7,34,1,1,109,2,2,0,2,0.804785811677614
"830",7,38,1,1,110,3,1,1,2,0.814613937065962
"831",7,25,1,1,111,1,1,1,4,0.507021624897344
"832",7,21,1,2,112,2,2,1,3,0.719321259817653
"833",7,22,1,2,113,3,2,1,2,0.644755431008049
"834",7,38,1,1,114,2,2,0,3,0.31536716050409
"835",7,22,1,1,115,1,1,1,4,0.299399410170708
"836",7,20,1,1,116,2,1,1,4,0.7346051131986
"837",7,30,1,1,117,3,2,0,2,0.612609622122194
"838",7,23,1,2,118,2,2,1,3,0.735338664340817
"839",7,34,1,1,119,2,1,1,3,0.839752251022365
"840",7,38,1,1,120,3,1,1,2,0.8560930270758
"841",7,25,1,1,121,3,2,0,2,1.33874226884531
"842",7,21,1,1,122,1,2,0,3,0.651064628292485
"843",7,22,1,1,123,2,1,1,4,0.388180027359731
"844",7,38,1,2,124,3,1,0,1,1.15764177067523
"845",7,22,1,1,125,2,1,1,4,0.629401029627519
"846",7,20,1,2,126,1,2,1,5,0.477276504407721
"847",7,30,1,1,127,1,2,0,3,0.546351936927193
"848",7,23,1,1,128,2,1,1,3,0.364785447897512
"849",7,34,1,1,129,1,1,1,4,0.454245692988195
"850",7,38,1,2,130,2,2,1,3,0.374936684750078
"851",7,25,1,2,131,2,2,1,4,0.739834532501929
"852",7,21,1,2,132,1,2,1,5,0.380024009707388
"853",7,22,1,2,133,3,1,0,1,1.38214467825374
"854",7,38,1,2,134,3,1,0,1,1.07047526756401
"855",7,22,1,1,135,3,1,1,3,0.512800764313409
"856",7,20,1,2,136,2,2,1,4,0.696111386875759
"857",7,30,1,1,137,1,1,1,5,0.48968271412239
"858",7,23,1,1,138,3,2,0,2,0.987144930095319
"859",7,34,1,2,139,3,2,1,2,1.20573078853536
"860",7,38,1,1,140,2,2,0,2,0.826040031199273
"861",7,25,1,1,141,2,2,0,2,0.748471891108322
"862",7,21,1,1,142,3,1,1,2,0.923124806547839
"863",7,22,1,2,143,2,1,0,2,0.731387101104778
"864",7,38,1,1,144,2,2,0,3,0.83001738672561
"865",7,22,1,2,145,2,1,0,2,0.917892124785743
"866",7,20,1,1,146,1,1,1,5,0.342805812726156
"867",7,30,1,2,147,3,2,1,2,0.553106343996507
"868",7,23,1,2,148,1,2,1,4,0.397798761396958
"869",7,34,1,1,149,1,1,1,4,0.467532372394586
"870",7,38,1,1,150,1,1,1,5,0.458992494007152
"871",7,25,1,1,151,2,2,0,2,0.775673436526688
"872",7,21,1,1,152,3,1,1,3,0.777694705932389
"873",7,22,1,2,153,2,2,1,3,0.672721930905124
"874",7,38,1,2,154,1,2,1,4,0.585794896980498
"875",7,22,1,1,155,1,1,1,4,0.310507343858544
"876",7,20,1,1,156,2,2,0,3,0.936188199598686
"877",7,30,1,2,157,3,2,1,3,0.551684646815696
"878",7,23,1,1,158,2,1,1,3,0.44122143251311
"879",7,34,1,2,159,3,2,1,2,0.819517765144173
"880",7,38,1,2,160,2,2,1,4,0.523331346602372
"881",7,25,1,2,161,3,1,0,2,0.900733816982342
"882",7,21,1,1,162,1,1,1,5,0.448456487461028
"883",7,22,1,2,163,3,1,0,2,0.80409465496503
"884",7,38,1,1,164,1,1,1,4,0.613234288962199
"885",7,22,1,2,165,1,2,1,5,0.29764857284194
"886",7,20,1,1,166,3,2,0,2,1.43366848873477
"887",7,30,1,2,167,2,2,1,4,0.576150143780315
"888",7,23,1,1,168,3,2,0,1,0.874867983117073
"889",7,34,1,1,169,3,2,0,1,1.44163760654005
"890",7,38,1,1,170,3,1,1,3,0.908617638291351
"891",7,25,1,1,171,1,1,1,5,0.361852744541636
"892",7,21,1,2,172,3,1,0,2,0.424506636540621
"893",7,22,1,1,173,2,2,0,3,0.746972245551078
"894",7,38,1,2,174,3,1,0,1,0.790907927688731
"895",7,22,1,2,175,2,1,0,3,0.847881365329221
"896",7,20,1,2,176,2,1,0,2,0.496602464660703
"897",7,30,1,2,177,2,1,0,2,0.773872839237303
"898",7,23,1,2,178,2,2,1,3,0.561585492595319
"899",7,34,1,2,179,2,2,1,4,0.501607077064995
"900",7,38,1,1,180,1,1,1,4,0.196522587229628
"901",7,25,1,1,181,3,2,0,2,0.292915676546289
"902",7,21,1,2,182,1,2,1,5,0.319391525878821
"903",7,22,1,1,183,2,1,1,4,0.674367438532311
"904",7,38,1,2,184,2,1,0,2,0.936611659043285
"905",7,22,1,1,185,1,1,1,4,0.391467539030302
"906",7,20,1,2,186,3,1,0,1,1.16006773691083
"907",7,30,1,2,187,2,1,0,2,0.654837927010579
"908",7,23,1,2,188,1,2,1,4,0.512468749391711
"909",7,34,1,1,189,3,2,0,1,0.473272280600756
"910",7,38,1,1,190,1,2,0,4,0.606211854036751
"911",7,25,1,2,191,2,1,0,3,0.590642534514672
"912",7,21,1,2,192,3,2,1,2,0.930677812196044
"913",7,22,1,1,193,2,1,1,3,0.682786574822486
"914",7,38,1,1,194,3,2,0,1,0.226503703503033
"915",7,22,1,2,195,1,2,1,5,0.365526363755487
"916",7,20,1,1,196,1,1,1,4,0.371480475153065
"917",7,30,1,2,197,3,2,1,2,1.12775052231653
"918",7,23,1,1,198,2,2,0,2,0.747477862117827
"919",7,34,1,2,199,2,2,1,3,0.614723751071252
"920",7,38,1,1,200,3,1,1,3,0.725905101322914
"921",7,25,1,2,201,3,1,0,1,0.633660479885451
"922",7,21,1,1,202,3,1,1,3,0.89629703019587
"923",7,22,1,2,203,3,2,1,3,0.748963155813985
"924",7,38,1,2,204,1,2,1,4,0.531483923845755
"925",7,22,1,1,205,1,2,0,4,0.597655789379961
"926",7,20,1,1,206,1,1,1,4,0.488658201554566
"927",7,30,1,1,207,2,2,0,3,0.636942200393932
"928",7,23,1,1,208,3,1,1,3,0.919457969538909
"929",7,34,1,2,209,1,2,1,5,0.516661407787501
"930",7,38,1,2,210,2,1,0,2,0.687427969135949
"931",7,25,1,1,211,1,1,1,5,0.438656561961984
"932",7,21,1,1,212,3,1,1,3,0.968708035275454
"933",7,22,1,2,213,3,2,1,3,0.854068094148
"934",7,38,1,1,214,1,1,1,5,0.240353673714328
"935",7,22,1,2,215,3,2,1,2,0.792811898323255
"936",7,20,1,2,216,1,2,1,5,0.380879146255859
"937",7,30,1,1,217,2,2,0,2,0.528734860477335
"938",7,23,1,1,218,3,1,1,3,0.890035331775893
"939",7,34,1,1,219,2,2,0,3,0.766936624375546
"940",7,38,1,1,220,1,2,0,3,0.524197975138216
"941",7,25,1,2,221,3,1,0,1,1.110918590716
"942",7,21,1,1,222,3,1,1,3,0.749207974389297
"943",7,22,1,1,223,3,1,1,3,0.980711778659274
"944",7,38,1,2,224,2,1,0,2,0.59429059490441
"945",7,22,1,1,225,3,2,0,2,1.77343222443418
"946",7,20,1,2,226,2,1,0,3,0.556373821493325
"947",7,30,1,2,227,2,2,1,3,0.623012189471347
"948",7,23,1,1,228,2,1,1,3,0.529006470706386
"949",7,34,1,2,229,2,1,0,2,0.610013791861983
"950",7,38,1,1,230,2,1,1,3,0.696851548495721
"951",7,25,1,2,231,1,2,1,5,0.283877817149879
"952",7,21,1,1,232,1,1,1,4,0.449122940126095
"953",7,22,1,1,233,3,1,1,2,0.476340633596247
"954",7,38,1,2,234,3,2,1,3,0.725864474885561
"955",7,22,1,2,235,2,2,1,4,0.586347895398427
"956",7,20,1,2,236,1,2,1,4,0.22263760367082
"957",7,30,1,1,237,1,1,1,4,0.428478470369383
"958",7,23,1,2,238,3,2,1,3,0.623948149865029
"959",7,34,1,2,239,1,1,0,3,0.603691098841103
"960",7,38,1,1,240,3,2,0,1,1.13581379160399
"961",6,33,1,1,1,3,1,1,3,1.03824039679244
"962",6,27,1,1,2,1,1,1,5,0.349931701345092
"963",6,18,1,2,3,1,2,1,4,0.299125265587015
"964",6,37,1,1,4,2,1,1,4,0.776161733023447
"965",6,31,1,2,5,1,2,1,5,0.290418058261035
"966",6,21,1,2,6,2,1,0,2,0.6504007374516
"967",6,38,1,1,7,2,2,0,2,0.627808517082233
"968",6,35,1,2,8,2,1,0,3,0.766796372384394
"969",6,38,1,1,9,3,2,0,2,0.995625823377756
"970",6,34,1,2,10,2,1,0,2,0.621866409004176
"971",6,33,1,2,11,2,2,1,3,0.549378812924114
"972",6,27,1,2,12,3,2,1,2,0.997157027098263
"973",6,18,1,2,13,2,2,1,3,0.461695967552611
"974",6,37,1,1,14,2,1,1,4,0.584360107268247
"975",6,31,1,2,15,3,1,0,1,0.618288381579448
"976",6,21,1,1,16,1,1,1,4,0.231353660564811
"977",6,38,1,1,17,2,2,0,3,0.458945828838854
"978",6,35,1,1,18,3,2,0,2,1.44946236398301
"979",6,38,1,2,19,3,1,0,1,0.657187823116472
"980",6,34,1,2,20,1,2,1,5,0.4815217878756
"981",6,33,1,1,21,2,2,0,2,0.638837135420905
"982",6,27,1,2,22,1,2,1,5,0.41239216485885
"983",6,18,1,1,23,2,2,0,3,0.832181525553572
"984",6,37,1,1,24,2,2,0,2,1.00923526992783
"985",6,31,1,2,25,2,2,1,3,0.582797450187622
"986",6,21,1,1,26,2,2,0,3,0.666012481759335
"987",6,38,1,2,27,3,1,0,2,0.633155392625956
"988",6,35,1,1,28,2,1,1,4,0.69198254080852
"989",6,38,1,2,29,2,2,1,4,0.480062623800568
"990",6,34,1,1,30,3,1,1,3,0.93484498034414
"991",6,33,1,2,31,3,2,1,3,0.990357638829902
"992",6,27,1,2,32,1,2,1,5,0.353269091816329
"993",6,18,1,1,33,3,1,1,3,0.736678127187188
"994",6,37,1,2,34,3,2,1,3,1.1228518563864
"995",6,31,1,2,35,1,2,1,4,0.539191112810538
"996",6,21,1,2,36,1,2,1,4,0.253242186257427
"997",6,38,1,2,37,2,1,0,2,0.630695893949033
"998",6,35,1,1,38,3,1,1,2,0.937247040574658
"999",6,38,1,2,39,3,2,1,2,0.889576788119703
"1000",6,34,1,2,40,1,2,1,4,0.501043844418538
"1001",6,33,1,1,41,3,1,1,2,0.649822579629056
"1002",6,27,1,2,42,3,2,1,3,1.07881237415338
"1003",6,18,1,1,43,2,1,1,4,0.911332880671903
"1004",6,37,1,2,44,2,2,1,4,0.659858816094364
"1005",6,31,1,1,45,2,2,0,2,0.77499669458995
"1006",6,21,1,1,46,1,1,1,4,0.393186065291051
"1007",6,38,1,2,47,3,2,1,3,0.927339781327421
"1008",6,35,1,2,48,2,2,1,3,0.608425325799533
"1009",6,38,1,2,49,1,1,0,3,0.538995332602547
"1010",6,34,1,2,50,2,1,0,2,0.409029664241605
"1011",6,33,1,2,51,1,2,1,5,0.388983271178758
"1012",6,27,1,1,52,1,1,1,5,0.444918700838451
"1013",6,18,1,1,53,3,2,0,2,1.20545085587611
"1014",6,37,1,2,54,2,1,0,3,0.54526113418241
"1015",6,31,1,2,55,3,2,1,3,0.450778661252667
"1016",6,21,1,2,56,3,1,0,1,0.465365164103059
"1017",6,38,1,2,57,2,2,1,3,0.583187822553
"1018",6,35,1,1,58,3,2,0,1,0.556139780828632
"1019",6,38,1,2,59,3,2,1,2,0.469657803139499
"1020",6,34,1,1,60,1,1,1,4,0.44842055771046
"1021",6,33,1,2,61,2,2,1,4,0.584656346129393
"1022",6,27,1,1,62,1,2,0,4,0.709068274247987
"1023",6,18,1,2,63,2,2,1,3,0.505298028107118
"1024",6,37,1,1,64,1,1,1,4,0.379060582154364
"1025",6,31,1,2,65,3,1,0,2,0.800299475355103
"1026",6,21,1,2,66,1,2,1,4,0.423135206186609
"1027",6,38,1,2,67,3,1,0,2,0.823807036126807
"1028",6,35,1,1,68,1,1,1,5,0.467988863705388
"1029",6,38,1,1,69,2,2,0,3,0.63907970938211
"1030",6,34,1,2,70,3,1,0,1,1.25693464128644
"1031",6,33,1,2,71,3,2,1,2,1.15702412410349
"1032",6,27,1,1,72,3,1,1,3,0.666471712150941
"1033",6,18,1,2,73,2,2,1,3,0.806674422412019
"1034",6,37,1,1,74,1,1,1,4,0.505809253081548
"1035",6,31,1,1,75,1,2,0,3,0.443060768727824
"1036",6,21,1,2,76,1,2,1,5,0.496552547884305
"1037",6,38,1,2,77,2,1,0,3,0.668160997384419
"1038",6,35,1,2,78,2,1,0,3,0.443170779754518
"1039",6,38,1,2,79,2,2,1,3,0.593440421266239
"1040",6,34,1,2,80,3,1,0,1,1.31523444684973
"1041",6,33,1,1,81,1,2,0,4,0.582431502671152
"1042",6,27,1,1,82,1,2,0,3,0.63744221427708
"1043",6,18,1,1,83,1,1,1,4,0.485369656688211
"1044",6,37,1,1,84,3,1,1,2,0.85011707555027
"1045",6,31,1,1,85,2,2,0,3,0.781171324912079
"1046",6,21,1,2,86,1,2,1,4,0.445729573240984
"1047",6,38,1,2,87,1,2,1,5,0.37117800006891
"1048",6,35,1,2,88,3,1,0,2,0.960856287625555
"1049",6,38,1,2,89,3,1,0,1,0.292780639073467
"1050",6,34,1,2,90,3,1,0,2,1.188282266727
"1051",6,33,1,1,91,3,1,1,2,1.08213849017359
"1052",6,27,1,1,92,2,2,0,3,0.733543889199399
"1053",6,18,1,1,93,1,1,1,4,0.350094413818698
"1054",6,37,1,1,94,3,1,1,3,0.843284367095503
"1055",6,31,1,2,95,3,1,0,1,0.981898250625864
"1056",6,21,1,2,96,3,1,0,2,1.09727924361732
"1057",6,38,1,1,97,1,1,1,4,0.365537056901511
"1058",6,35,1,1,98,1,1,1,5,0.489617762401573
"1059",6,38,1,2,99,1,2,1,5,0.359775134475616
"1060",6,34,1,1,100,1,2,0,3,0.561109296111588
"1061",6,33,1,1,101,3,1,1,3,0.47221238079325
"1062",6,27,1,1,102,2,2,0,2,0.672338738345904
"1063",6,18,1,2,103,3,1,0,2,1.20079600306021
"1064",6,37,1,2,104,1,2,1,4,0.543315116450589
"1065",6,31,1,2,105,2,2,1,4,0.577420393553489
"1066",6,21,1,2,106,2,2,1,4,0.635798677832187
"1067",6,38,1,1,107,1,1,1,4,0.417069746159717
"1068",6,35,1,2,108,1,1,0,3,0.561639400455706
"1069",6,38,1,1,109,2,2,0,2,0.729348259417464
"1070",6,34,1,2,110,3,1,0,1,0.714177483253376
"1071",6,33,1,1,111,2,1,1,3,0.44788726548984
"1072",6,27,1,1,112,2,1,1,4,0.673418164440661
"1073",6,18,1,1,113,3,2,0,1,1.64934168372303
"1074",6,37,1,1,114,3,1,1,3,0.392204866285938
"1075",6,31,1,2,115,3,2,1,3,0.858940794707269
"1076",6,21,1,2,116,2,1,0,2,0.696438966985921
"1077",6,38,1,1,117,1,1,1,4,0.293274487513971
"1078",6,35,1,2,118,3,2,1,3,0.545859006619132
"1079",6,38,1,1,119,3,2,0,1,1.12127677747221
"1080",6,34,1,1,120,3,1,1,3,0.425511187682777
"1081",6,33,1,1,121,2,1,1,3,0.710928132730733
"1082",6,27,1,1,122,2,1,1,4,0.475165878690085
"1083",6,18,1,1,123,3,2,0,2,1.48735228163522
"1084",6,37,1,1,124,1,1,1,4,0.356896118082042
"1085",6,31,1,2,125,2,1,0,3,0.723386031472775
"1086",6,21,1,1,126,2,1,1,4,0.418143895224357
"1087",6,38,1,1,127,1,1,1,5,0.360512865851039
"1088",6,35,1,1,128,1,1,1,4,0.55933819738095
"1089",6,38,1,1,129,2,2,0,2,0.684704246692626
"1090",6,34,1,1,130,1,1,1,4,0.316824604930207
"1091",6,33,1,1,131,2,1,1,4,0.761261835021647
"1092",6,27,1,2,132,1,2,1,4,0.386266343777847
"1093",6,18,1,2,133,1,2,1,4,0.366843375787272
"1094",6,37,1,2,134,1,2,1,5,0.354114796671236
"1095",6,31,1,2,135,3,2,1,3,0.498679118741025
"1096",6,21,1,1,136,2,1,1,4,0.661751995290277
"1097",6,38,1,1,137,3,2,0,2,0.879192271758916
"1098",6,35,1,2,138,1,2,1,5,0.422699820887377
"1099",6,38,1,1,139,1,1,1,5,0.433099859289096
"1100",6,34,1,1,140,2,2,0,2,0.882790134872455
"1101",6,33,1,1,141,2,2,0,2,0.869760265231231
"1102",6,27,1,2,142,2,2,1,4,0.866527472973808
"1103",6,18,1,2,143,3,1,0,1,0.16058712511662
"1104",6,37,1,2,144,3,2,1,2,0.678513293068906
"1105",6,31,1,2,145,2,1,0,3,0.159429622997681
"1106",6,21,1,1,146,1,1,1,5,0.376815976206802
"1107",6,38,1,2,147,1,2,1,5,0.350137006869499
"1108",6,35,1,1,148,3,1,1,3,0.754067211469087
"1109",6,38,1,2,149,3,1,0,2,0.676671860034727
"1110",6,34,1,2,150,1,2,1,4,0.432303153247797
"1111",6,33,1,1,151,1,1,1,5,0.453013793087476
"1112",6,27,1,1,152,3,2,0,1,0.944019554973171
"1113",6,18,1,2,153,1,1,0,3,0.423208963921113
"1114",6,37,1,1,154,2,1,1,4,0.780763784000444
"1115",6,31,1,2,155,2,1,0,2,0.581324685228717
"1116",6,21,1,1,156,2,1,1,4,0.507668674795024
"1117",6,38,1,1,157,1,1,1,5,0.439027595431222
"1118",6,35,1,2,158,3,2,1,3,0.864302446421781
"1119",6,38,1,2,159,2,1,0,3,0.8107378615465
"1120",6,34,1,2,160,2,1,0,2,0.691137311925585
"1121",6,33,1,2,161,3,2,1,3,0.7996202052556
"1122",6,27,1,1,162,1,1,1,4,0.417680672509649
"1123",6,18,1,2,163,3,2,1,3,0.975698257955844
"1124",6,37,1,2,164,2,1,0,3,0.798244795832979
"1125",6,31,1,1,165,1,1,1,5,0.329603463741773
"1126",6,21,1,2,166,3,1,0,2,0.712793678875002
"1127",6,38,1,1,167,1,1,1,5,0.414349965064145
"1128",6,35,1,1,168,1,1,1,4,0.312768518418006
"1129",6,38,1,2,169,3,1,0,1,0.732827019966061
"1130",6,34,1,1,170,1,2,0,4,0.467298630312516
"1131",6,33,1,1,171,3,2,0,1,0.67576913295173
"1132",6,27,1,2,172,2,2,1,3,0.617470284522803
"1133",6,18,1,1,173,1,1,1,4,0.343008015558071
"1134",6,37,1,2,174,1,2,1,4,0.391116863916972
"1135",6,31,1,1,175,2,2,0,2,0.658629316205074
"1136",6,21,1,1,176,2,1,1,4,0.59524472588983
"1137",6,38,1,2,177,3,2,1,3,1.05207526809425
"1138",6,35,1,1,178,2,1,1,3,0.532528754446279
"1139",6,38,1,1,179,1,2,0,4,0.514637992491172
"1140",6,34,1,2,180,2,2,1,3,0.746093684418643
"1141",6,33,1,2,181,2,1,0,3,0.604944374094875
"1142",6,27,1,2,182,1,2,1,5,0.495908919298338
"1143",6,18,1,1,183,1,1,1,5,0.327364659752822
"1144",6,37,1,2,184,1,2,1,5,0.43683630015368
"1145",6,31,1,1,185,3,2,0,1,1.2187755286342
"1146",6,21,1,2,186,2,2,1,3,0.403893981707733
"1147",6,38,1,1,187,2,1,1,4,0.566294647356747
"1148",6,35,1,1,188,2,1,1,3,0.638443845338112
"1149",6,38,1,1,189,2,2,0,3,0.711951467508976
"1150",6,34,1,1,190,2,1,1,4,0.546289590773656
"1151",6,33,1,1,191,3,1,1,2,0.972125137675919
"1152",6,27,1,2,192,1,2,1,4,0.460554252624795
"1153",6,18,1,2,193,3,1,0,1,1.00710841131838
"1154",6,37,1,2,194,3,2,1,3,0.930263695594861
"1155",6,31,1,2,195,2,1,0,3,0.658632621297003
"1156",6,21,1,1,196,3,1,1,3,0.810840047859052
"1157",6,38,1,2,197,3,2,1,2,0.844188328203684
"1158",6,35,1,1,198,1,1,1,5,0.416744530722904
"1159",6,38,1,2,199,2,2,1,3,0.42030142360304
"1160",6,34,1,1,200,1,1,1,4,0.353316318298955
"1161",6,33,1,1,201,2,1,1,3,0.506638009972306
"1162",6,27,1,1,202,2,2,0,2,0.739870449039718
"1163",6,18,1,1,203,1,1,1,5,0.405176977087846
"1164",6,37,1,1,204,3,2,0,2,1.28473204648538
"1165",6,31,1,2,205,1,1,0,4,0.446024350459496
"1166",6,21,1,1,206,3,2,0,2,0.273218897857104
"1167",6,38,1,2,207,1,2,1,5,0.377755642042531
"1168",6,35,1,1,208,2,1,1,4,0.594521695088792
"1169",6,38,1,1,209,3,2,0,1,0.375980841692928
"1170",6,34,1,2,210,1,2,1,4,0.463082377450251
"1171",6,33,1,2,211,1,2,1,5,0.40802644008315
"1172",6,27,1,1,212,3,1,1,2,1.21608199578592
"1173",6,18,1,2,213,1,2,1,5,0.457668872477503
"1174",6,37,1,2,214,2,2,1,3,0.844614287964925
"1175",6,31,1,1,215,3,2,0,1,1.02171116240491
"1176",6,21,1,1,216,2,1,1,4,0.554455144239287
"1177",6,38,1,2,217,2,2,1,3,0.482985670376132
"1178",6,35,1,2,218,3,2,1,2,0.723619326403066
"1179",6,38,1,2,219,2,2,1,3,0.419324944084236
"1180",6,34,1,2,220,2,2,1,3,0.555836192249387
"1181",6,33,1,1,221,1,1,1,5,0.347693813110601
"1182",6,27,1,1,222,1,1,1,5,0.340544436616311
"1183",6,18,1,1,223,3,2,0,1,1.46010831993494
"1184",6,37,1,2,224,3,2,1,3,0.847831542264908
"1185",6,31,1,1,225,3,2,0,1,1.04821612890547
"1186",6,21,1,1,226,1,1,1,4,0.448365496174411
"1187",6,38,1,1,227,1,1,1,4,0.425494362147744
"1188",6,35,1,2,228,2,1,0,3,0.875061731126681
"1189",6,38,1,2,229,3,1,0,2,0.842150621754288
"1190",6,34,1,2,230,3,2,1,3,0.485809799193683
"1191",6,33,1,1,231,1,2,0,4,0.587274048032101
"1192",6,27,1,2,232,3,2,1,2,0.661329198949467
"1193",6,18,1,1,233,3,2,0,2,1.62121830900062
"1194",6,37,1,2,234,3,1,0,1,0.968122001596814
"1195",6,31,1,2,235,1,2,1,5,0.280825336069487
"1196",6,21,1,1,236,1,2,0,4,0.669112226199599
"1197",6,38,1,2,237,1,2,1,5,0.426998778348062
"1198",6,35,1,1,238,2,2,0,3,0.51912187917926
"1199",6,38,1,1,239,3,2,0,1,0.848783072913074
"1200",6,34,1,1,240,1,1,1,5,0.327115124057836
"1201",5,31,1,2,1,2,1,0,3,0.453007417594605
"1202",5,32,1,2,2,2,2,1,4,0.615512037120161
"1203",5,24,1,2,3,2,2,1,4,0.468516044606558
"1204",5,37,1,2,4,2,2,1,4,0.716352792584234
"1205",5,19,1,2,5,1,2,1,5,0.3031626253707
"1206",5,38,1,2,6,1,1,0,4,0.62924232300726
"1207",5,33,1,2,7,3,1,0,2,0.683713614819782
"1208",5,24,1,1,8,3,1,1,3,0.880394505735528
"1209",5,30,1,2,9,2,2,1,3,0.291179663727054
"1210",5,37,1,2,10,2,2,1,3,0.75183648500899
"1211",5,31,1,2,11,2,2,1,3,0.586922851132247
"1212",5,32,1,1,12,1,2,0,3,0.499462199661743
"1213",5,24,1,2,13,1,2,1,5,0.272532660256892
"1214",5,37,1,2,14,3,2,1,3,0.678454917517359
"1215",5,19,1,1,15,3,1,1,2,0.793432244769265
"1216",5,38,1,1,16,3,1,1,3,0.665894281908457
"1217",5,33,1,2,17,3,2,1,3,0.914683491375875
"1218",5,24,1,1,18,3,1,1,2,0.248789931659605
"1219",5,30,1,2,19,1,2,1,5,0.534101290565317
"1220",5,37,1,2,20,2,1,0,2,0.683320667764236
"1221",5,31,1,2,21,3,2,1,3,1.06252199138265
"1222",5,32,1,2,22,1,2,1,5,0.488267218480129
"1223",5,24,1,2,23,1,2,1,5,0.504203982930992
"1224",5,37,1,1,24,1,1,1,5,0.29780285238023
"1225",5,19,1,2,25,1,2,1,5,0.246474627136455
"1226",5,38,1,1,26,1,2,0,4,0.296127483224334
"1227",5,33,1,1,27,3,1,1,3,0.710277257330969
"1228",5,24,1,1,28,1,1,1,4,0.402578892662655
"1229",5,30,1,1,29,1,2,0,4,0.661649185982652
"1230",5,37,1,2,30,2,2,1,3,0.57060489864789
"1231",5,31,1,1,31,3,2,0,1,1.64605947883202
"1232",5,32,1,2,32,1,2,1,4,0.318330068950833
"1233",5,24,1,1,33,3,1,1,3,0.695929166204405
"1234",5,37,1,1,34,2,1,1,4,0.498490852591887
"1235",5,19,1,2,35,2,2,1,3,0.507693011442929
"1236",5,38,1,1,36,2,2,0,2,0.567345212493142
"1237",5,33,1,1,37,3,1,1,2,1.19564791058239
"1238",5,24,1,2,38,1,1,0,3,0.476580995122917
"1239",5,30,1,2,39,1,2,1,5,0.410199788332385
"1240",5,37,1,1,40,3,1,1,3,0.902665827002397
"1241",5,31,1,1,41,2,1,1,3,0.792103871046817
"1242",5,32,1,2,42,3,1,0,1,0.703607023290633
"1243",5,24,1,2,43,2,2,1,3,0.518902938816934
"1244",5,37,1,2,44,2,1,0,2,0.602635540643482
"1245",5,19,1,2,45,3,1,0,2,0.893482777213326
"1246",5,38,1,1,46,1,1,1,4,0.243446190488541
"1247",5,33,1,2,47,2,2,1,4,0.576527617699607
"1248",5,24,1,1,48,3,1,1,2,0.788623682320221
"1249",5,30,1,2,49,2,2,1,4,0.602124765413162
"1250",5,37,1,1,50,1,1,1,5,0.276231423708257
"1251",5,31,1,2,51,2,2,1,3,0.745451670606446
"1252",5,32,1,2,52,3,2,1,2,0.873351830472918
"1253",5,24,1,1,53,3,2,0,1,1.33765652533451
"1254",5,37,1,2,54,3,2,1,3,0.941288282416913
"1255",5,19,1,2,55,1,2,1,4,0.510607751715549
"1256",5,38,1,2,56,2,1,0,2,0.89485223999122
"1257",5,33,1,2,57,3,2,1,2,1.08778281149666
"1258",5,24,1,2,58,3,1,0,2,1.05012319100503
"1259",5,30,1,1,59,3,1,1,3,0.639553204221574
"1260",5,37,1,2,60,1,2,1,4,0.500051104916561
"1261",5,31,1,1,61,1,1,1,4,0.517701137838306
"1262",5,32,1,2,62,2,2,1,3,0.560922187842661
"1263",5,24,1,2,63,1,2,1,5,0.381695899554554
"1264",5,37,1,1,64,2,1,1,4,0.75657475747406
"1265",5,19,1,2,65,1,2,1,4,0.372026061578258
"1266",5,38,1,2,66,1,2,1,5,0.38586464893245
"1267",5,33,1,1,67,2,1,1,4,0.540831546895048
"1268",5,24,1,2,68,3,1,0,1,1.23558030507569
"1269",5,30,1,1,69,3,1,1,3,0.846245034408336
"1270",5,37,1,1,70,3,2,0,2,0.606703586388162
"1271",5,31,1,1,71,3,1,1,3,0.957752078036014
"1272",5,32,1,2,72,2,1,0,2,0.777976324799986
"1273",5,24,1,1,73,1,1,1,5,0.447149211916497
"1274",5,37,1,1,74,3,2,0,2,1.52817269543202
"1275",5,19,1,1,75,3,1,1,2,0.57799849231002
"1276",5,38,1,1,76,1,1,1,4,0.300855775459977
"1277",5,33,1,2,77,3,2,1,2,0.724017539384578
"1278",5,24,1,1,78,1,1,1,5,0.329470688910858
"1279",5,30,1,2,79,1,1,0,4,0.594172509966116
"1280",5,37,1,1,80,2,2,0,3,0.703511634149873
"1281",5,31,1,2,81,1,2,1,5,0.432630249805049
"1282",5,32,1,1,82,3,2,0,1,1.21218983819761
"1283",5,24,1,1,83,2,2,0,2,0.746308299861437
"1284",5,37,1,2,84,3,1,0,1,0.983889764422634
"1285",5,19,1,2,85,2,2,1,3,0.689711364268613
"1286",5,38,1,1,86,1,1,1,5,0.43898337688891
"1287",5,33,1,1,87,2,2,0,3,0.562076273174443
"1288",5,24,1,2,88,3,2,1,3,0.580519259336781
"1289",5,30,1,1,89,2,1,1,4,0.401209720603638
"1290",5,37,1,1,90,2,1,1,3,0.748258499462617
"1291",5,31,1,1,91,2,2,0,2,0.698514866876269
"1292",5,32,1,1,92,2,2,0,3,0.798811058665075
"1293",5,24,1,1,93,3,1,1,3,0.973068612901538
"1294",5,37,1,2,94,3,2,1,3,0.697694769085012
"1295",5,19,1,2,95,1,2,1,4,0.353199763777235
"1296",5,38,1,2,96,3,1,0,1,1.12956988410326
"1297",5,33,1,1,97,1,1,1,4,0.527892091900163
"1298",5,24,1,1,98,1,1,1,4,0.398260059693893
"1299",5,30,1,1,99,1,2,0,3,0.512697042672339
"1300",5,37,1,1,100,3,1,1,2,0.681973834143873
"1301",5,31,1,1,101,1,1,1,4,0.534463264927475
"1302",5,32,1,1,102,2,2,0,3,1.00733659732623
"1303",5,24,1,2,103,1,2,1,4,0.272320733319638
"1304",5,37,1,2,104,1,2,1,4,0.504845030133099
"1305",5,19,1,2,105,1,2,1,5,0.376931037296066
"1306",5,38,1,1,106,3,1,1,3,0.811993908949612
"1307",5,33,1,1,107,2,1,1,4,0.737391652303238
"1308",5,24,1,1,108,3,2,0,2,1.39649278484908
"1309",5,30,1,1,109,1,1,1,5,0.299298995612781
"1310",5,37,1,2,110,1,2,1,5,0.479075175922228
"1311",5,31,1,2,111,3,2,1,3,0.720929756702798
"1312",5,32,1,1,112,2,1,1,4,0.526957129481977
"1313",5,24,1,2,113,2,2,1,4,0.515699251626578
"1314",5,37,1,2,114,1,1,0,4,0.454829321701694
"1315",5,19,1,2,115,1,2,1,4,0.306307756026748
"1316",5,38,1,1,116,2,2,0,2,0.818298772420395
"1317",5,33,1,1,117,2,1,1,3,0.601256261074197
"1318",5,24,1,1,118,2,2,0,2,0.486916883373757
"1319",5,30,1,2,119,2,1,0,3,0.835124463630216
"1320",5,37,1,2,120,3,1,0,2,1.01694029240889
"1321",5,31,1,1,121,2,2,0,3,0.521906726134632
"1322",5,32,1,2,122,1,2,1,5,0.441098396791266
"1323",5,24,1,2,123,2,1,0,2,0.968293429978257
"1324",5,37,1,2,124,1,1,0,4,0.652613922366401
"1325",5,19,1,2,125,1,2,1,4,0.593855482368004
"1326",5,38,1,1,126,2,1,1,4,0.369518319616391
"1327",5,33,1,1,127,3,1,1,3,0.734552121475569
"1328",5,24,1,1,128,3,1,1,3,1.06563168395482
"1329",5,30,1,1,129,3,2,0,2,0.97091526694006
"1330",5,37,1,1,130,3,2,0,1,0.553907388894931
"1331",5,31,1,2,131,2,2,1,3,0.589687277741711
"1332",5,32,1,2,132,2,1,0,2,0.662948899893924
"1333",5,24,1,2,133,2,2,1,3,0.707166320356499
"1334",5,37,1,2,134,1,2,1,4,0.487696609222044
"1335",5,19,1,2,135,3,2,1,2,0.682759464516478
"1336",5,38,1,2,136,3,1,0,2,1.33275836589485
"1337",5,33,1,1,137,2,1,1,4,0.585808058583846
"1338",5,24,1,2,138,3,2,1,2,0.658259748843853
"1339",5,30,1,1,139,3,1,1,2,0.66981835000772
"1340",5,37,1,1,140,1,1,1,5,0.508511175431446
"1341",5,31,1,1,141,2,2,0,2,0.827154504058315
"1342",5,32,1,1,142,3,1,1,3,0.767746457223606
"1343",5,24,1,1,143,3,2,0,2,0.868487347149308
"1344",5,37,1,1,144,2,2,0,2,0.700041474579912
"1345",5,19,1,2,145,2,1,0,3,0.960442359994863
"1346",5,38,1,1,146,2,1,1,3,0.655560655052104
"1347",5,33,1,2,147,1,2,1,5,0.47867850161803
"1348",5,24,1,1,148,2,2,0,3,0.625221561332575
"1349",5,30,1,1,149,2,1,1,3,0.699242681852156
"1350",5,37,1,2,150,3,1,0,1,0.976368131562776
"1351",5,31,1,1,151,2,1,1,3,0.684723350955352
"1352",5,32,1,2,152,1,1,0,4,0.407921839799676
"1353",5,24,1,2,153,2,2,1,4,0.578276458102528
"1354",5,37,1,2,154,2,2,1,4,0.513437952251278
"1355",5,19,1,2,155,3,1,0,1,0.904733862307668
"1356",5,38,1,2,156,2,1,0,3,0.563329454264778
"1357",5,33,1,1,157,2,2,0,3,0.661244931894339
"1358",5,24,1,1,158,1,2,0,3,0.505205688381232
"1359",5,30,1,1,159,1,1,1,5,0.520140994638072
"1360",5,37,1,1,160,1,1,1,4,0.543037475796815
"1361",5,31,1,2,161,3,1,0,1,0.940839912199281
"1362",5,32,1,2,162,3,1,0,1,1.02974122268356
"1363",5,24,1,2,163,1,2,1,5,0.23825760171526
"1364",5,37,1,1,164,3,1,1,3,0.827297877190229
"1365",5,19,1,1,165,3,2,0,2,1.22891361045038
"1366",5,38,1,1,166,2,2,0,2,1.00718503839718
"1367",5,33,1,1,167,2,2,0,2,1.02378981212802
"1368",5,24,1,2,168,1,2,1,4,0.444351488679223
"1369",5,30,1,2,169,3,1,0,1,0.995848477549638
"1370",5,37,1,2,170,1,2,1,5,0.418921946458027
"1371",5,31,1,2,171,2,2,1,3,0.76184866860444
"1372",5,32,1,1,172,1,1,1,4,0.265484396879018
"1373",5,24,1,2,173,1,2,1,5,0.141660642044619
"1374",5,37,1,1,174,2,2,0,3,0.573520960540417
"1375",5,19,1,1,175,1,1,1,4,0.3158980345438
"1376",5,38,1,1,176,3,1,1,3,1.10823798321468
"1377",5,33,1,1,177,3,1,1,3,0.756490603601633
"1378",5,24,1,1,178,1,1,1,5,0.487774562005156
"1379",5,30,1,1,179,2,2,0,3,0.910173807338226
"1380",5,37,1,1,180,1,2,0,3,0.63354955089375
"1381",5,31,1,1,181,1,1,1,4,0.369661854542688
"1382",5,32,1,2,182,2,2,1,3,0.422099894040261
"1383",5,24,1,2,183,2,1,0,2,0.944555314537308
"1384",5,37,1,1,184,2,1,1,4,0.529559020059364
"1385",5,19,1,1,185,2,2,0,2,0.877170778620036
"1386",5,38,1,2,186,2,2,1,3,0.788694836838262
"1387",5,33,1,1,187,3,2,0,1,1.77029231422012
"1388",5,24,1,1,188,1,1,1,5,0.419341713493393
"1389",5,30,1,2,189,3,2,1,3,0.815444919968383
"1390",5,37,1,2,190,2,2,1,4,0.607051516673495
"1391",5,31,1,2,191,3,2,1,2,0.814224536180334
"1392",5,32,1,1,192,3,2,0,1,-0.0519645231242893
"1393",5,24,1,2,193,2,1,0,3,0.565179926265813
"1394",5,37,1,2,194,1,1,0,4,0.464570573810851
"1395",5,19,1,1,195,3,1,1,3,0.674229853909647
"1396",5,38,1,1,196,1,1,1,5,0.472382643329509
"1397",5,33,1,1,197,2,2,0,2,0.622261732296996
"1398",5,24,1,2,198,1,2,1,4,0.550489284421345
"1399",5,30,1,2,199,3,1,0,1,1.49279923686823
"1400",5,37,1,2,200,1,1,0,3,0.42324183113988
"1401",5,31,1,2,201,1,2,1,4,0.38839427632173
"1402",5,32,1,2,202,1,2,1,5,0.259142222502092
"1403",5,24,1,1,203,1,1,1,5,0.401143142159168
"1404",5,37,1,1,204,1,2,0,3,0.419530445378847
"1405",5,19,1,2,205,3,1,0,2,0.286115426728246
"1406",5,38,1,1,206,3,2,0,1,0.248139773273486
"1407",5,33,1,2,207,3,1,0,2,0.282635505595719
"1408",5,24,1,2,208,3,2,1,3,0.797062318524358
"1409",5,30,1,2,209,2,2,1,3,0.478064738455978
"1410",5,37,1,1,210,1,1,1,4,0.282437521800447
"1411",5,31,1,1,211,2,2,0,3,0.531641299364223
"1412",5,32,1,2,212,1,2,1,5,0.307192980553586
"1413",5,24,1,2,213,2,1,0,3,0.699573367032444
"1414",5,37,1,2,214,1,1,0,4,0.65098251385063
"1415",5,19,1,1,215,2,1,1,3,0.545848986102501
"1416",5,38,1,1,216,3,1,1,3,0.698598203022506
"1417",5,33,1,1,217,2,1,1,3,0.555773276235561
"1418",5,24,1,1,218,3,1,1,2,0.76033888701009
"1419",5,30,1,1,219,2,1,1,4,0.686453420437564
"1420",5,37,1,1,220,1,1,1,4,0.429302339761391
"1421",5,31,1,2,221,1,2,1,5,0.39078977738633
"1422",5,32,1,1,222,2,2,0,2,0.814479551403532
"1423",5,24,1,1,223,2,1,1,4,0.856626289301528
"1424",5,37,1,2,224,3,1,0,1,1.17557624486907
"1425",5,19,1,1,225,3,2,0,1,1.01981747608428
"1426",5,38,1,1,226,3,2,0,1,1.75349836780281
"1427",5,33,1,2,227,1,2,1,5,0.408446295787234
"1428",5,24,1,1,228,2,1,1,3,0.447918897061203
"1429",5,30,1,2,229,1,2,1,5,0.409035615916775
"1430",5,37,1,1,230,3,1,1,2,1.05467312875007
"1431",5,31,1,2,231,1,2,1,4,0.235079048253511
"1432",5,32,1,1,232,1,1,1,5,0.44345489114016
"1433",5,24,1,2,233,1,2,1,5,0.389522444814802
"1434",5,37,1,1,234,3,2,0,1,1.06097792154508
"1435",5,19,1,1,235,3,2,0,2,0.906995771785513
"1436",5,38,1,1,236,3,2,0,1,1.21468133373556
"1437",5,33,1,2,237,1,2,1,5,0.467844256749701
"1438",5,24,1,2,238,3,1,0,2,1.21573903903914
"1439",5,30,1,2,239,2,2,1,4,0.477062168116997
"1440",5,37,1,2,240,3,2,1,2,0.68009078213779
"1441",4,23,1,1,1,1,1,1,5,0.493059492341796
"1442",4,33,1,2,2,2,2,1,3,0.508186495220846
"1443",4,32,1,1,3,3,2,0,2,1.09907422160386
"1444",4,19,1,2,4,2,2,1,4,0.641546990021829
"1445",4,23,1,2,5,1,2,1,5,0.400291167808732
"1446",4,36,1,1,6,2,2,0,2,0.78613241756159
"1447",4,22,1,2,7,1,1,0,3,0.603933555524593
"1448",4,39,1,2,8,3,2,1,3,0.785700173341339
"1449",4,24,1,2,9,1,2,1,5,0.518701588664621
"1450",4,18,1,2,10,1,2,1,4,0.483270925811658
"1451",4,23,1,1,11,2,1,1,3,0.502232076550323
"1452",4,33,1,1,12,1,1,1,5,0.450338531020307
"1453",4,32,1,2,13,1,2,1,4,0.359020147283582
"1454",4,19,1,2,14,3,1,0,2,1.19019516953236
"1455",4,23,1,2,15,2,2,1,4,0.41890378592393
"1456",4,36,1,2,16,3,1,0,1,0.40217651654556
"1457",4,22,1,2,17,3,2,1,2,0.516735701791263
"1458",4,39,1,2,18,2,2,1,3,0.605880598077586
"1459",4,24,1,1,19,2,2,0,2,0.612726290975285
"1460",4,18,1,1,20,2,2,0,2,0.731863290613291
"1461",4,23,1,2,21,1,2,1,5,0.357266768919558
"1462",4,33,1,2,22,2,2,1,4,0.689941719568779
"1463",4,32,1,1,23,3,1,1,2,0.679002627078985
"1464",4,19,1,1,24,1,1,1,4,0.308161245582246
"1465",4,23,1,1,25,3,1,1,3,0.939725964724026
"1466",4,36,1,2,26,3,1,0,1,1.06892862375964
"1467",4,22,1,1,27,1,1,1,5,0.50812087801479
"1468",4,39,1,1,28,3,2,0,2,1.03893272255093
"1469",4,24,1,1,29,3,1,1,2,1.03496571441792
"1470",4,18,1,1,30,2,2,0,2,0.510535554006608
"1471",4,23,1,1,31,2,2,0,3,0.609053735414593
"1472",4,33,1,2,32,2,1,0,2,0.907089848814579
"1473",4,32,1,1,33,1,1,1,4,0.434343178888927
"1474",4,19,1,2,34,2,2,1,4,0.73650864739854
"1475",4,23,1,1,35,3,1,1,2,0.619684261014196
"1476",4,36,1,1,36,1,1,1,4,0.384352093136771
"1477",4,22,1,2,37,1,2,1,4,0.406550540985545
"1478",4,39,1,2,38,3,1,0,1,1.257440299831
"1479",4,24,1,1,39,1,1,1,5,0.377676502223165
"1480",4,18,1,1,40,3,1,1,2,1.16874897815793
"1481",4,23,1,2,41,3,1,0,1,0.703646653378025
"1482",4,33,1,2,42,3,2,1,2,0.861390804517252
"1483",4,32,1,2,43,2,2,1,4,0.4185329734219
"1484",4,19,1,1,44,3,2,0,1,1.28813364557597
"1485",4,23,1,1,45,1,1,1,4,0.455189357964039
"1486",4,36,1,1,46,1,2,0,3,0.547913448000562
"1487",4,22,1,1,47,2,2,0,3,0.528336240452268
"1488",4,39,1,1,48,3,1,1,2,0.643372427036263
"1489",4,24,1,1,49,1,1,1,4,0.418109215522329
"1490",4,18,1,2,50,2,1,0,3,0.65615891661251
"1491",4,23,1,1,51,3,2,0,1,1.09691663077072
"1492",4,33,1,1,52,1,1,1,4,0.468090256828403
"1493",4,32,1,2,53,1,2,1,4,0.328566681128091
"1494",4,19,1,1,54,1,1,1,4,0.437113708278437
"1495",4,23,1,2,55,2,2,1,3,0.447605335198972
"1496",4,36,1,2,56,2,1,0,3,0.778194950945166
"1497",4,22,1,2,57,3,1,0,2,0.830127399032492
"1498",4,39,1,2,58,2,1,0,3,0.85260925265047
"1499",4,24,1,1,59,2,2,0,3,0.960342209634626
"1500",4,18,1,2,60,1,2,1,5,0.464468044280097
"1501",4,23,1,2,61,1,2,1,4,0.416255146370529
"1502",4,33,1,1,62,3,2,0,2,1.28105690985566
"1503",4,32,1,2,63,3,2,1,3,0.722821908872166
"1504",4,19,1,2,64,3,1,0,1,0.735291423560101
"1505",4,23,1,2,65,1,2,1,4,0.44539641329608
"1506",4,36,1,1,66,3,2,0,2,1.49065403622773
"1507",4,22,1,1,67,2,2,0,3,0.764230100880609
"1508",4,39,1,2,68,3,1,0,1,0.86766375902215
"1509",4,24,1,1,69,1,1,1,5,0.429500980126736
"1510",4,18,1,2,70,1,2,1,5,0.426484532949475
"1511",4,23,1,1,71,3,1,1,2,0.894954516368553
"1512",4,33,1,1,72,2,1,1,3,0.63655690121233
"1513",4,32,1,2,73,1,2,1,5,0.297083894226456
"1514",4,19,1,2,74,2,2,1,3,0.546218983241007
"1515",4,23,1,2,75,3,2,1,3,0.819553247571662
"1516",4,36,1,2,76,2,1,0,2,0.788943807953898
"1517",4,22,1,2,77,3,2,1,3,0.703037688927713
"1518",4,39,1,1,78,2,1,1,4,0.52959835376312
"1519",4,24,1,2,79,2,2,1,4,0.607846741046853
"1520",4,18,1,1,80,2,2,0,3,0.781378016103843
"1521",4,23,1,2,81,3,2,1,2,0.724598655137244
"1522",4,33,1,1,82,1,2,0,4,0.63103301945531
"1523",4,32,1,2,83,3,1,0,1,0.865360702847624
"1524",4,19,1,2,84,2,2,1,4,0.482495276582385
"1525",4,23,1,2,85,3,2,1,3,1.12069305814603
"1526",4,36,1,2,86,3,2,1,3,0.652938694292451
"1527",4,22,1,1,87,1,1,1,5,0.484042217157347
"1528",4,39,1,1,88,3,2,0,1,0.908912358221723
"1529",4,24,1,1,89,1,2,0,3,0.705728163059789
"1530",4,18,1,1,90,2,2,0,2,0.710951708658909
"1531",4,23,1,2,91,3,1,0,1,0.932880809545341
"1532",4,33,1,2,92,1,1,0,3,0.585276848155333
"1533",4,32,1,1,93,2,2,0,2,0.714668769708262
"1534",4,19,1,2,94,1,2,1,5,0.403236711096532
"1535",4,23,1,1,95,1,2,0,4,0.570331696743496
"1536",4,36,1,1,96,3,2,0,1,0.844578118777999
"1537",4,22,1,2,97,2,2,1,4,0.565102758592696
"1538",4,39,1,2,98,3,2,1,2,0.874843086470974
"1539",4,24,1,1,99,3,1,1,2,0.548772813965618
"1540",4,18,1,1,100,2,1,1,4,0.699597702664625
"1541",4,23,1,1,101,3,1,1,3,0.86718609042508
"1542",4,33,1,1,102,1,1,1,5,0.294682939629946
"1543",4,32,1,1,103,1,1,1,5,0.345670266193498
"1544",4,19,1,2,104,2,2,1,3,0.541712691398525
"1545",4,23,1,2,105,1,2,1,4,0.376750108826039
"1546",4,36,1,2,106,3,1,0,1,1.17092429971094
"1547",4,22,1,1,107,3,1,1,3,1.14757411676463
"1548",4,39,1,2,108,1,2,1,5,0.385196545186964
"1549",4,24,1,1,109,1,1,1,4,0.28686220620728
"1550",4,18,1,2,110,3,1,0,2,1.55963690048573
"1551",4,23,1,2,111,2,2,1,3,0.653820757000878
"1552",4,33,1,2,112,2,2,1,4,0.638170023353393
"1553",4,32,1,1,113,3,1,1,2,1.05364191418261
"1554",4,19,1,2,114,1,2,1,5,0.387238811868593
"1555",4,23,1,2,115,3,2,1,3,0.617048883193952
"1556",4,36,1,1,116,3,1,1,3,0.559543533429837
"1557",4,22,1,2,117,3,2,1,3,0.983766266199238
"1558",4,39,1,2,118,3,2,1,2,0.860155211800376
"1559",4,24,1,2,119,3,1,0,1,1.50589808549094
"1560",4,18,1,1,120,1,1,1,4,0.458069088675148
"1561",4,23,1,1,121,1,1,1,5,0.239333730284652
"1562",4,33,1,1,122,1,1,1,5,0.397297963946282
"1563",4,32,1,2,123,2,2,1,4,0.79768253909286
"1564",4,19,1,2,124,2,2,1,3,0.610136321663396
"1565",4,23,1,1,125,1,1,1,4,0.307409273798329
"1566",4,36,1,1,126,1,1,1,4,0.384507844502957
"1567",4,22,1,1,127,1,1,1,5,0.370614430122024
"1568",4,39,1,1,128,1,1,1,4,0.394364080818131
"1569",4,24,1,1,129,1,2,0,4,0.604766476292415
"1570",4,18,1,1,130,2,1,1,4,0.59038912774789
"1571",4,23,1,2,131,2,2,1,4,0.85223308966151
"1572",4,33,1,2,132,1,2,1,5,0.390213910945422
"1573",4,32,1,2,133,3,1,0,1,1.29815228478199
"1574",4,19,1,2,134,2,1,0,2,0.53057493107361
"1575",4,23,1,1,135,2,2,0,2,0.874125817027124
"1576",4,36,1,1,136,2,1,1,3,0.386792482711055
"1577",4,22,1,1,137,2,2,0,2,0.623032602634279
"1578",4,39,1,1,138,2,1,1,3,0.758708099140172
"1579",4,24,1,2,139,3,2,1,3,1.14952962836823
"1580",4,18,1,1,140,2,1,1,4,0.590062935863335
"1581",4,23,1,1,141,1,1,1,5,0.495252592491944
"1582",4,33,1,1,142,2,2,0,3,0.715584478553918
"1583",4,32,1,2,143,1,2,1,5,0.369429974078904
"1584",4,19,1,1,144,3,2,0,2,1.39813959645861
"1585",4,23,1,1,145,2,1,1,3,0.447783291567479
"1586",4,36,1,2,146,2,1,0,3,0.650233602403229
"1587",4,22,1,2,147,2,2,1,4,0.475199493307558
"1588",4,39,1,1,148,2,1,1,4,0.76675577319161
"1589",4,24,1,1,149,3,2,0,1,0.523577937100125
"1590",4,18,1,1,150,1,2,0,3,0.541970467561438
"1591",4,23,1,1,151,1,1,1,4,0.460824221490738
"1592",4,33,1,2,152,1,2,1,4,0.213849077507494
"1593",4,32,1,2,153,2,1,0,3,0.831593535854761
"1594",4,19,1,1,154,1,1,1,4,0.349045668366253
"1595",4,23,1,1,155,3,2,0,1,1.3614341032861
"1596",4,36,1,1,156,3,2,0,1,1.10250397389565
"1597",4,22,1,2,157,1,2,1,5,0.415918627297235
"1598",4,39,1,1,158,1,1,1,5,0.304437367326916
"1599",4,24,1,1,159,1,2,0,4,0.550279133423089
"1600",4,18,1,1,160,3,1,1,3,0.854822184929961
"1601",4,23,1,2,161,3,1,0,2,0.952624102216871
"1602",4,33,1,1,162,3,1,1,3,0.557981880620452
"1603",4,32,1,2,163,2,2,1,3,0.717222128923915
"1604",4,19,1,1,164,3,1,1,3,0.754836707422732
"1605",4,23,1,1,165,2,1,1,3,0.498871923634617
"1606",4,36,1,1,166,2,2,0,2,0.647271346276361
"1607",4,22,1,1,167,1,2,0,4,0.59609684253768
"1608",4,39,1,2,168,3,1,0,2,1.38230221290322
"1609",4,24,1,1,169,1,2,0,4,0.347842578316282
"1610",4,18,1,2,170,2,2,1,3,0.650394741828384
"1611",4,23,1,2,171,2,2,1,4,0.485367687439109
"1612",4,33,1,1,172,2,1,1,3,0.429744712048388
"1613",4,32,1,1,173,1,1,1,4,0.375100614317169
"1614",4,19,1,2,174,3,1,0,2,0.843628255241617
"1615",4,23,1,2,175,2,2,1,3,0.567650765860671
"1616",4,36,1,2,176,2,2,1,4,0.654943341927571
"1617",4,22,1,2,177,3,1,0,1,1.00286537899472
"1618",4,39,1,2,178,2,2,1,3,0.574906914413448
"1619",4,24,1,1,179,2,2,0,2,0.907675004352652
"1620",4,18,1,1,180,3,2,0,1,1.4883739070058
"1621",4,23,1,2,181,2,1,0,3,0.883512018150736
"1622",4,33,1,1,182,1,1,1,4,0.515641589940911
"1623",4,32,1,1,183,1,1,1,4,0.28469303352535
"1624",4,19,1,2,184,2,1,0,2,0.923966244228594
"1625",4,23,1,1,185,1,1,1,4,0.366075842570725
"1626",4,36,1,1,186,2,1,1,4,0.703228540750736
"1627",4,22,1,2,187,1,2,1,4,0.443548097954318
"1628",4,39,1,1,188,3,2,0,2,0.829880278542415
"1629",4,24,1,2,189,2,1,0,2,0.799775082861504
"1630",4,18,1,2,190,1,2,1,4,0.312969362565482
"1631",4,23,1,1,191,3,1,1,2,0.994920620855312
"1632",4,33,1,1,192,2,1,1,3,0.504846443673416
"1633",4,32,1,2,193,2,1,0,3,0.698053277710992
"1634",4,19,1,1,194,1,1,1,4,0.450413252384449
"1635",4,23,1,2,195,2,1,0,2,0.310345168315838
"1636",4,36,1,2,196,3,2,1,2,0.916612036141817
"1637",4,22,1,1,197,3,2,0,2,1.00235323206018
"1638",4,39,1,2,198,2,2,1,4,0.432925960737887
"1639",4,24,1,2,199,1,1,0,3,0.619433697011807
"1640",4,18,1,2,200,1,2,1,5,0.321810165369894
"1641",4,23,1,1,201,1,1,1,4,0.578628948279867
"1642",4,33,1,1,202,3,1,1,2,0.775739986774015
"1643",4,32,1,2,203,3,1,0,2,1.3300089858608
"1644",4,19,1,1,204,1,1,1,4,0.38786463887778
"1645",4,23,1,2,205,3,1,0,1,0.509437590212385
"1646",4,36,1,2,206,3,2,1,2,0.463694476174856
"1647",4,22,1,2,207,1,2,1,5,0.420133826690357
"1648",4,39,1,2,208,3,2,1,2,1.2343202304516
"1649",4,24,1,1,209,1,1,1,4,0.439416398190795
"1650",4,18,1,1,210,3,2,0,1,1.35075300227871
"1651",4,23,1,2,211,3,1,0,2,0.793405861664403
"1652",4,33,1,2,212,1,2,1,4,0.570481720520781
"1653",4,32,1,1,213,2,1,1,4,0.481935190560069
"1654",4,19,1,1,214,2,2,0,3,0.629674273988714
"1655",4,23,1,2,215,1,2,1,4,0.465489363943663
"1656",4,36,1,2,216,1,2,1,5,0.432093872610027
"1657",4,22,1,1,217,3,1,1,2,0.572176251450721
"1658",4,39,1,2,218,3,1,0,1,0.823789831016542
"1659",4,24,1,2,219,1,2,1,5,0.571843884147531
"1660",4,18,1,2,220,2,2,1,4,0.793845683425315
"1661",4,23,1,1,221,1,1,1,5,0.428958756304172
"1662",4,33,1,2,222,2,1,0,2,0.721860054653853
"1663",4,32,1,1,223,3,1,1,2,0.829366249708231
"1664",4,19,1,2,224,3,2,1,2,0.784356253331482
"1665",4,23,1,2,225,2,2,1,4,0.463574099544235
"1666",4,36,1,1,226,2,2,0,2,0.717838118421432
"1667",4,22,1,1,227,1,1,1,5,0.403255124031344
"1668",4,39,1,1,228,1,1,1,5,0.332265875385501
"1669",4,24,1,2,229,3,1,0,1,0.97784019499481
"1670",4,18,1,2,230,2,2,1,4,0.536221710973099
"1671",4,23,1,2,231,1,1,0,4,0.59797009856196
"1672",4,33,1,1,232,3,1,1,2,0.536455273248092
"1673",4,32,1,1,233,1,1,1,5,0.441928159530741
"1674",4,19,1,1,234,3,2,0,1,1.12184352326999
"1675",4,23,1,1,235,3,2,0,1,0.760702645197494
"1676",4,36,1,2,236,2,1,0,2,0.808364942285382
"1677",4,22,1,2,237,2,2,1,3,0.624703279889963
"1678",4,39,1,1,238,2,2,0,2,0.676383215680137
"1679",4,24,1,2,239,2,1,0,2,0.845335145131511
"1680",4,18,1,2,240,3,2,1,3,1.09082847278444
"1681",3,32,1,2,1,1,2,1,4,0.342558966151848
"1682",3,26,1,2,2,2,1,0,2,1.03855331857995
"1683",3,23,1,2,3,3,2,1,2,0.733121448622747
"1684",3,28,1,1,4,3,1,1,3,0.857857171963613
"1685",3,36,1,1,5,3,2,0,2,1.35506722910056
"1686",3,30,1,1,6,3,2,0,1,1.13761797054414
"1687",3,34,1,2,7,2,2,1,4,0.520482237580037
"1688",3,25,1,2,8,2,2,1,3,0.779047567180796
"1689",3,36,1,1,9,1,1,1,4,0.488848012361237
"1690",3,36,1,2,10,2,1,0,3,0.527954196284212
"1691",3,32,1,2,11,1,2,1,5,0.287084887475486
"1692",3,26,1,2,12,1,2,1,5,0.518676098970211
"1693",3,23,1,2,13,3,1,0,2,0.872160098013974
"1694",3,28,1,1,14,1,1,1,4,0.301707956624345
"1695",3,36,1,1,15,3,1,1,2,1.09507085507465
"1696",3,30,1,2,16,2,2,1,3,0.445587858262692
"1697",3,34,1,1,17,3,2,0,2,1.44942523819206
"1698",3,25,1,1,18,2,2,0,2,0.696058063784727
"1699",3,36,1,1,19,3,1,1,2,1.062568526486
"1700",3,36,1,2,20,3,2,1,2,0.696600831997187
"1701",3,32,1,1,21,3,2,0,1,0.815638037695072
"1702",3,26,1,2,22,1,2,1,4,0.486975704460307
"1703",3,23,1,1,23,1,1,1,4,0.469068891945899
"1704",3,28,1,2,24,2,2,1,4,0.708913062135858
"1705",3,36,1,2,25,1,2,1,4,0.5644399352517
"1706",3,30,1,2,26,1,2,1,4,0.259410134491047
"1707",3,34,1,2,27,2,1,0,3,0.682398249245773
"1708",3,25,1,1,28,3,1,1,2,0.929027743693385
"1709",3,36,1,1,29,3,2,0,2,1.25695572462372
"1710",3,36,1,1,30,2,2,0,2,0.454359761456062
"1711",3,32,1,2,31,1,2,1,4,0.467781703276702
"1712",3,26,1,1,32,2,1,1,3,0.469972511441298
"1713",3,23,1,2,33,2,1,0,2,0.684119628518303
"1714",3,28,1,2,34,1,1,0,4,0.704346620465226
"1715",3,36,1,1,35,3,1,1,3,1.04903070508362
"1716",3,30,1,1,36,2,2,0,3,0.792837389866524
"1717",3,34,1,2,37,1,1,0,4,0.631451028445914
"1718",3,25,1,2,38,1,2,1,4,0.534991508505425
"1719",3,36,1,2,39,2,1,0,3,0.667250836135581
"1720",3,36,1,1,40,3,1,1,3,0.617608935491446
"1721",3,32,1,2,41,2,2,1,4,0.547688973590983
"1722",3,26,1,1,42,2,2,0,3,0.84032924915304
"1723",3,23,1,2,43,3,2,1,2,0.591173426622665
"1724",3,28,1,2,44,3,1,0,1,1.36716374293745
"1725",3,36,1,2,45,2,2,1,3,0.745375539172682
"1726",3,30,1,2,46,3,2,1,2,0.688851490681365
"1727",3,34,1,2,47,1,2,1,5,0.426863379506846
"1728",3,25,1,1,48,1,1,1,5,0.476407732386773
"1729",3,36,1,1,49,2,2,0,2,0.704162074221743
"1730",3,36,1,1,50,1,1,1,4,0.38160634071562
"1731",3,32,1,1,51,1,1,1,4,0.503442391707304
"1732",3,26,1,1,52,1,2,0,3,0.50969350039678
"1733",3,23,1,2,53,3,2,1,3,1.09607225663796
"1734",3,28,1,1,54,1,1,1,5,0.389225645810161
"1735",3,36,1,1,55,1,1,1,5,0.391669994443768
"1736",3,30,1,2,56,3,2,1,3,0.82868349774869
"1737",3,34,1,2,57,1,2,1,4,0.275047066123672
"1738",3,25,1,1,58,2,1,1,4,0.42178633769301
"1739",3,36,1,1,59,3,1,1,3,0.629291145886046
"1740",3,36,1,2,60,3,2,1,3,0.475110028944023
"1741",3,32,1,1,61,3,2,0,1,2.06703076429072
"1742",3,26,1,2,62,1,2,1,5,0.462287180896891
"1743",3,23,1,2,63,3,2,1,3,1.03295355777394
"1744",3,28,1,1,64,1,1,1,4,0.417878752807232
"1745",3,36,1,1,65,2,2,0,3,0.503758534086851
"1746",3,30,1,2,66,2,1,0,2,0.738549334528011
"1747",3,34,1,1,67,3,1,1,3,0.806815277556054
"1748",3,25,1,2,68,2,2,1,3,0.624556504287791
"1749",3,36,1,2,69,3,2,1,3,0.886127473145335
"1750",3,36,1,2,70,1,1,0,3,0.509261812448659
"1751",3,32,1,1,71,3,1,1,2,0.53135017860079
"1752",3,26,1,1,72,2,1,1,3,0.751989628415194
"1753",3,23,1,1,73,3,2,0,1,0.566894104785652
"1754",3,28,1,2,74,2,2,1,4,0.595778776767359
"1755",3,36,1,1,75,3,1,1,2,0.429223324844826
"1756",3,30,1,1,76,2,1,1,3,0.570911690300744
"1757",3,34,1,1,77,2,1,1,4,0.291541508178325
"1758",3,25,1,1,78,2,1,1,4,0.486230347968484
"1759",3,36,1,2,79,2,1,0,3,0.670931763040104
"1760",3,36,1,1,80,1,2,0,4,0.69658440541639
"1761",3,32,1,1,81,1,2,0,3,0.483632243354106
"1762",3,26,1,2,82,1,1,0,3,0.506751213359824
"1763",3,23,1,2,83,3,2,1,2,0.79998467770865
"1764",3,28,1,2,84,1,2,1,4,0.340115795791694
"1765",3,36,1,1,85,2,1,1,3,0.735090451839152
"1766",3,30,1,1,86,3,2,0,2,1.27186497709173
"1767",3,34,1,2,87,2,2,1,3,0.595226681993616
"1768",3,25,1,2,88,2,2,1,4,0.620625786989515
"1769",3,36,1,2,89,2,1,0,2,0.782869533575696
"1770",3,36,1,1,90,3,2,0,2,1.38501331684497
"1771",3,32,1,2,91,2,1,0,2,0.711379471535729
"1772",3,26,1,2,92,1,1,0,3,0.586294063219064
"1773",3,23,1,2,93,3,1,0,1,0.669278942583654
"1774",3,28,1,1,94,2,2,0,3,0.785767447390571
"1775",3,36,1,1,95,1,1,1,5,0.634815608373277
"1776",3,30,1,2,96,3,1,0,1,1.31194744984607
"1777",3,34,1,1,97,1,1,1,5,0.304998533924686
"1778",3,25,1,2,98,2,1,0,2,0.851621501629479
"1779",3,36,1,1,99,2,1,1,3,0.737460352862493
"1780",3,36,1,1,100,2,1,1,3,0.545598924750196
"1781",3,32,1,2,101,1,2,1,5,0.395204738584743
"1782",3,26,1,1,102,3,2,0,1,0.928177811766037
"1783",3,23,1,2,103,3,2,1,3,1.07851948451194
"1784",3,28,1,2,104,1,2,1,5,0.516962063389389
"1785",3,36,1,2,105,3,2,1,2,0.923673975875154
"1786",3,30,1,1,106,1,2,0,4,0.359073778051616
"1787",3,34,1,1,107,2,2,0,3,0.7079244332782
"1788",3,25,1,2,108,3,1,0,2,0.669579024961309
"1789",3,36,1,1,109,1,1,1,4,0.4652730382328
"1790",3,36,1,1,110,3,1,1,2,0.781482053396421
"1791",3,32,1,2,111,2,1,0,2,0.445025574994135
"1792",3,26,1,2,112,2,1,0,3,0.846577708522646
"1793",3,23,1,2,113,3,1,0,2,0.418926658384644
"1794",3,28,1,1,114,3,1,1,3,1.02094526056836
"1795",3,36,1,2,115,1,2,1,4,0.423079528755201
"1796",3,30,1,1,116,1,2,0,3,0.619435322336823
"1797",3,34,1,1,117,2,2,0,2,0.621638476167667
"1798",3,25,1,2,118,2,2,1,4,0.596424437911184
"1799",3,36,1,1,119,3,2,0,1,1.80288703887146
"1800",3,36,1,1,120,3,2,0,1,1.56355427018191
"1801",3,32,1,1,121,1,1,1,4,0.482878314204285
"1802",3,26,1,1,122,2,1,1,3,0.48102843775194
"1803",3,23,1,2,123,3,1,0,2,0.473729585851522
"1804",3,28,1,1,124,3,2,0,1,1.07577184107908
"1805",3,36,1,1,125,1,1,1,4,0.409572742544109
"1806",3,30,1,2,126,2,2,1,4,0.447938313641145
"1807",3,34,1,1,127,1,1,1,5,0.440991468049238
"1808",3,25,1,1,128,1,1,1,5,0.531731092114965
"1809",3,36,1,1,129,2,1,1,3,0.558292854947462
"1810",3,36,1,1,130,2,1,1,4,0.552024435032093
"1811",3,32,1,2,131,1,1,0,4,0.454664184938217
"1812",3,26,1,1,132,2,1,1,3,0.732621742436412
"1813",3,23,1,2,133,2,2,1,3,0.458669296735032
"1814",3,28,1,1,134,3,1,1,2,1.00507042376977
"1815",3,36,1,2,135,2,2,1,4,0.562588532895639
"1816",3,30,1,2,136,3,2,1,3,1.08595175489465
"1817",3,34,1,2,137,1,1,0,4,0.477509383024489
"1818",3,25,1,1,138,2,1,1,3,0.78031135947639
"1819",3,36,1,2,139,3,2,1,2,0.882901778603819
"1820",3,36,1,1,140,1,1,1,5,0.334824269913553
"1821",3,32,1,1,141,3,2,0,1,0.585796697013968
"1822",3,26,1,2,142,1,1,0,3,0.507533285909425
"1823",3,23,1,2,143,3,1,0,2,0.772078638840884
"1824",3,28,1,1,144,1,1,1,5,0.43610554034965
"1825",3,36,1,2,145,1,1,0,4,0.368729246007923
"1826",3,30,1,2,146,1,2,1,4,0.366884729395447
"1827",3,34,1,1,147,3,1,1,2,0.563188632471559
"1828",3,25,1,2,148,3,1,0,1,1.17551292104403
"1829",3,36,1,2,149,2,1,0,2,0.665993286127068
"1830",3,36,1,1,150,2,2,0,3,0.663540402150435
"1831",3,32,1,2,151,1,1,0,3,0.53945252337654
"1832",3,26,1,1,152,2,1,1,3,0.528427529433157
"1833",3,23,1,1,153,3,1,1,3,0.891470313838309
"1834",3,28,1,2,154,3,1,0,1,0.53455020468223
"1835",3,36,1,2,155,2,1,0,3,0.710109323541244
"1836",3,30,1,2,156,2,2,1,3,0.863817625901718
"1837",3,34,1,1,157,2,2,0,2,0.687867203507273
"1838",3,25,1,1,158,1,2,0,3,0.486437191550637
"1839",3,36,1,2,159,2,1,0,3,0.85655877132114
"1840",3,36,1,2,160,3,1,0,1,0.71769976025106
"1841",3,32,1,2,161,2,2,1,4,0.311531622600321
"1842",3,26,1,1,162,2,1,1,4,0.709245144564774
"1843",3,23,1,1,163,2,1,1,3,0.683069401392471
"1844",3,28,1,1,164,1,1,1,5,0.365277205193478
"1845",3,36,1,1,165,2,2,0,3,0.725291621779225
"1846",3,30,1,2,166,1,2,1,5,0.317891229729444
"1847",3,34,1,2,167,3,2,1,3,0.93275773660219
"1848",3,25,1,1,168,1,1,1,5,0.428393731157924
"1849",3,36,1,2,169,2,1,0,3,0.264781522511148
"1850",3,36,1,1,170,3,1,1,2,0.80667875647458
"1851",3,32,1,2,171,1,2,1,5,0.292346693119089
"1852",3,26,1,2,172,3,2,1,3,0.879211311993433
"1853",3,23,1,1,173,3,1,1,3,0.718285123160695
"1854",3,28,1,2,174,1,2,1,4,0.34827055128465
"1855",3,36,1,1,175,1,2,0,3,0.588298808707156
"1856",3,30,1,2,176,2,1,0,2,0.670101385002213
"1857",3,34,1,2,177,2,2,1,3,0.550588725061943
"1858",3,25,1,2,178,1,1,0,4,0.55824557412623
"1859",3,36,1,1,179,1,2,0,4,0.395548877974817
"1860",3,36,1,1,180,3,2,0,2,0.973914325057052
"1861",3,32,1,1,181,3,2,0,1,0.859460526993499
"1862",3,26,1,2,182,3,2,1,2,0.580559851279638
"1863",3,23,1,1,183,3,1,1,2,0.5398783245284
"1864",3,28,1,2,184,3,2,1,2,0.552873142978811
"1865",3,36,1,1,185,2,2,0,2,0.700456550779443
"1866",3,30,1,2,186,2,2,1,4,0.444630136176748
"1867",3,34,1,2,187,1,2,1,5,0.454247826205219
"1868",3,25,1,1,188,3,1,1,3,0.827839705921283
"1869",3,36,1,2,189,3,2,1,2,0.700882232435515
"1870",3,36,1,2,190,1,1,0,4,0.455961362172573
"1871",3,32,1,2,191,2,2,1,4,0.517319360778407
"1872",3,26,1,1,192,2,1,1,3,0.592035558135331
"1873",3,23,1,2,193,3,1,0,1,1.13696743784268
"1874",3,28,1,1,194,2,2,0,3,0.516909706936376
"1875",3,36,1,1,195,1,1,1,5,0.357879090940351
"1876",3,30,1,1,196,1,2,0,4,0.62642039015215
"1877",3,34,1,2,197,3,2,1,3,0.90485939312383
"1878",3,25,1,1,198,1,1,1,5,0.540119156440242
"1879",3,36,1,2,199,1,2,1,4,0.245005984503773
"1880",3,36,1,1,200,1,1,1,4,0.276808287725847
"1881",3,32,1,2,201,2,2,1,4,0.597808234180325
"1882",3,26,1,2,202,1,2,1,4,0.321316013809068
"1883",3,23,1,1,203,1,1,1,5,0.331948041409665
"1884",3,28,1,1,204,1,2,0,4,0.503664568817103
"1885",3,36,1,1,205,1,1,1,5,0.442090880390911
"1886",3,30,1,1,206,2,1,1,4,0.682010567481121
"1887",3,34,1,1,207,1,2,0,4,0.506119865230355
"1888",3,25,1,2,208,2,1,0,2,0.666073141308604
"1889",3,36,1,1,209,3,2,0,1,1.08875213518865
"1890",3,36,1,1,210,2,2,0,3,0.507778775788525
"1891",3,32,1,1,211,3,2,0,1,0.590424513483696
"1892",3,26,1,1,212,2,1,1,4,0.646313894307305
"1893",3,23,1,1,213,2,1,1,3,0.627504726314497
"1894",3,28,1,2,214,1,2,1,4,0.388560812475813
"1895",3,36,1,2,215,2,1,0,2,0.403563567965667
"1896",3,30,1,2,216,2,1,0,3,0.682343183742098
"1897",3,34,1,1,217,1,1,1,5,0.289815964104586
"1898",3,25,1,2,218,1,1,0,4,0.615076163986245
"1899",3,36,1,2,219,3,2,1,2,1.12051067772154
"1900",3,36,1,1,220,1,2,0,3,0.353773023075873
"1901",3,32,1,1,221,3,2,0,1,1.19154525548747
"1902",3,26,1,2,222,3,2,1,3,0.759110760593931
"1903",3,23,1,2,223,3,1,0,1,0.380497862398197
"1904",3,28,1,2,224,1,2,1,5,0.461205820647775
"1905",3,36,1,2,225,3,1,0,2,0.430794058322908
"1906",3,30,1,1,226,3,1,1,2,0.755532423155396
"1907",3,34,1,1,227,2,1,1,4,0.497405794795563
"1908",3,25,1,2,228,3,2,1,2,0.965800959618994
"1909",3,36,1,2,229,1,1,0,3,0.617064007596749
"1910",3,36,1,1,230,2,1,1,4,0.67076951578368
"1911",3,32,1,1,231,1,1,1,4,0.302947643190785
"1912",3,26,1,2,232,3,1,0,1,0.735140895249913
"1913",3,23,1,1,233,1,1,1,5,0.364981330194427
"1914",3,28,1,1,234,2,2,0,3,0.6299139508236
"1915",3,36,1,2,235,3,1,0,1,0.938431072629766
"1916",3,30,1,2,236,1,1,0,3,0.732848390096784
"1917",3,34,1,2,237,1,2,1,5,0.302639527116442
"1918",3,25,1,2,238,2,1,0,3,0.602106107788471
"1919",3,36,1,1,239,3,2,0,2,1.35313332443208
"1920",3,36,1,1,240,3,2,0,2,0.848766869291996
"1921",2,29,1,2,1,1,2,1,4,0.307825927612126
"1922",2,30,1,1,2,1,2,0,3,0.638524137129286
"1923",2,23,1,2,3,3,2,1,3,1.07345366951871
"1924",2,31,1,2,4,2,2,1,3,0.537210743716399
"1925",2,24,1,1,5,1,2,0,3,0.645352464967526
"1926",2,19,1,1,6,3,1,1,3,1.30700477109985
"1927",2,18,1,2,7,3,2,1,3,0.572668639902578
"1928",2,30,1,1,8,3,2,0,1,0.228672568487545
"1929",2,36,1,2,9,2,2,1,4,0.777981382513584
"1930",2,24,1,2,10,2,2,1,4,0.514455884995571
"1931",2,29,1,2,11,2,2,1,4,0.531258212599121
"1932",2,30,1,2,12,1,2,1,5,0.360424666863812
"1933",2,23,1,1,13,1,2,0,3,0.525798049800293
"1934",2,31,1,1,14,2,1,1,3,0.615512285831575
"1935",2,24,1,1,15,2,1,1,4,0.406023050930838
"1936",2,19,1,2,16,1,2,1,5,0.436885038776161
"1937",2,18,1,1,17,3,1,1,3,0.522673988933901
"1938",2,30,1,2,18,1,2,1,5,0.32972485705909
"1939",2,36,1,2,19,1,2,1,5,0.368929790996315
"1940",2,24,1,2,20,2,2,1,4,0.813888926193426
"1941",2,29,1,2,21,3,1,0,1,0.91157682288672
"1942",2,30,1,2,22,2,2,1,4,0.683550483740515
"1943",2,23,1,2,23,2,2,1,3,0.68513453728084
"1944",2,31,1,1,24,3,1,1,2,1.44148296837781
"1945",2,24,1,2,25,3,2,1,3,0.680704671661052
"1946",2,19,1,2,26,3,1,0,2,1.14451401283544
"1947",2,18,1,2,27,1,1,0,3,0.495237989018769
"1948",2,30,1,2,28,3,2,1,3,0.95557201307114
"1949",2,36,1,2,29,3,2,1,3,0.564586089827822
"1950",2,24,1,1,30,3,1,1,3,0.843348160423081
"1951",2,29,1,2,31,1,2,1,5,0.370826243500393
"1952",2,30,1,2,32,1,2,1,5,0.45481200750584
"1953",2,23,1,1,33,1,1,1,5,0.553608851713855
"1954",2,31,1,2,34,3,2,1,2,0.689124575233709
"1955",2,24,1,1,35,1,2,0,4,0.638007330680735
"1956",2,19,1,2,36,3,1,0,2,1.55474729107777
"1957",2,18,1,2,37,2,2,1,3,0.614461797137802
"1958",2,30,1,1,38,1,1,1,5,0.505708994283195
"1959",2,36,1,2,39,2,2,1,3,0.568729281740675
"1960",2,24,1,2,40,3,1,0,2,1.28249562000125
"1961",2,29,1,2,41,1,2,1,4,0.314371230729743
"1962",2,30,1,1,42,1,2,0,3,0.455275579016058
"1963",2,23,1,2,43,1,1,0,3,0.325485692952192
"1964",2,31,1,1,44,3,2,0,2,0.393484765607332
"1965",2,24,1,1,45,1,1,1,4,0.439793207211534
"1966",2,19,1,1,46,2,2,0,3,0.456440543717022
"1967",2,18,1,1,47,3,1,1,3,0.526277844615532
"1968",2,30,1,1,48,1,1,1,4,0.415505401021585
"1969",2,36,1,1,49,1,1,1,4,0.329274452908705
"1970",2,24,1,2,50,2,2,1,3,0.596614926296987
"1971",2,29,1,1,51,2,2,0,2,0.717797939144096
"1972",2,30,1,1,52,1,1,1,5,0.458422853901484
"1973",2,23,1,1,53,1,1,1,5,0.525080566713531
"1974",2,31,1,1,54,3,2,0,1,0.670950586110419
"1975",2,24,1,2,55,2,2,1,3,0.62906684780995
"1976",2,19,1,2,56,3,1,0,2,0.825981060604639
"1977",2,18,1,2,57,1,1,0,4,0.377579340082498
"1978",2,30,1,1,58,1,1,1,5,0.499774989321276
"1979",2,36,1,1,59,2,2,0,2,0.693461587934904
"1980",2,24,1,1,60,2,1,1,4,0.739335128812696
"1981",2,29,1,1,61,1,2,0,3,0.404456359725126
"1982",2,30,1,1,62,2,1,1,3,0.747215687587336
"1983",2,23,1,1,63,3,1,1,2,0.604882263974048
"1984",2,31,1,1,64,3,2,0,2,1.46969704814762
"1985",2,24,1,1,65,2,2,0,3,0.805387342448435
"1986",2,19,1,1,66,1,1,1,5,0.52577863930292
"1987",2,18,1,1,67,2,2,0,3,0.773596653117871
"1988",2,30,1,1,68,1,1,1,5,0.471104276075072
"1989",2,36,1,2,69,2,2,1,3,0.574535252161228
"1990",2,24,1,2,70,3,1,0,2,1.0374478171774
"1991",2,29,1,2,71,2,1,0,3,0.770083302785991
"1992",2,30,1,1,72,3,1,1,2,1.02969958706948
"1993",2,23,1,2,73,2,2,1,4,0.521496008371874
"1994",2,31,1,1,74,1,1,1,5,0.443140616186309
"1995",2,24,1,1,75,2,2,0,3,0.850429181977906
"1996",2,19,1,1,76,3,1,1,2,0.909315736463144
"1997",2,18,1,2,77,2,2,1,3,0.743923089473106
"1998",2,30,1,2,78,2,1,0,3,0.482768515908632
"1999",2,36,1,2,79,2,2,1,4,0.73102512641281
"2000",2,24,1,2,80,3,2,1,3,0.870870058617699
"2001",2,29,1,1,81,3,2,0,1,0.280628302645692
"2002",2,30,1,2,82,2,1,0,3,0.678301238096266
"2003",2,23,1,1,83,2,1,1,4,0.650628977813042
"2004",2,31,1,1,84,1,1,1,5,0.443267662449697
"2005",2,24,1,2,85,2,1,0,3,0.665838779831391
"2006",2,19,1,1,86,1,1,1,5,0.367716457353922
"2007",2,18,1,2,87,1,2,1,5,0.351973118219382
"2008",2,30,1,2,88,1,2,1,5,0.366204943612109
"2009",2,36,1,1,89,1,2,0,4,0.669406182995299
"2010",2,24,1,2,90,2,1,0,3,0.499237075779494
"2011",2,29,1,2,91,1,2,1,4,0.331355409767223
"2012",2,30,1,2,92,3,1,0,1,0.975498512162797
"2013",2,23,1,2,93,3,2,1,2,0.906493583713619
"2014",2,31,1,2,94,2,1,0,2,0.750132989912898
"2015",2,24,1,2,95,3,2,1,2,0.980222168892825
"2016",2,19,1,2,96,2,1,0,3,0.433845443557366
"2017",2,18,1,1,97,3,1,1,3,0.928212438753839
"2018",2,30,1,2,98,2,2,1,4,0.507746648396596
"2019",2,36,1,1,99,1,1,1,5,0.44724253295836
"2020",2,24,1,2,100,1,1,0,4,0.683320578530383
"2021",2,29,1,2,101,2,2,1,3,0.639403070795113
"2022",2,30,1,2,102,2,2,1,3,0.505998867950109
"2023",2,23,1,2,103,1,2,1,5,0.46243806315807
"2024",2,31,1,2,104,3,1,0,1,0.731904510472913
"2025",2,24,1,2,105,3,2,1,3,0.76728520063583
"2026",2,19,1,2,106,3,1,0,1,0.983329610943787
"2027",2,18,1,2,107,2,2,1,4,0.423222181233247
"2028",2,30,1,1,108,3,1,1,3,0.741859741696189
"2029",2,36,1,1,109,3,2,0,2,1.37257087812312
"2030",2,24,1,2,110,2,1,0,3,0.60056307561953
"2031",2,29,1,1,111,1,2,0,3,0.550019242161704
"2032",2,30,1,1,112,3,1,1,2,0.647649110983665
"2033",2,23,1,2,113,2,1,0,2,0.69023599358618
"2034",2,31,1,1,114,1,1,1,4,0.375088792091569
"2035",2,24,1,1,115,1,2,0,3,0.606273265570163
"2036",2,19,1,1,116,2,2,0,2,0.464332904578189
"2037",2,18,1,1,117,2,1,1,4,0.702070339526233
"2038",2,30,1,2,118,3,1,0,2,0.394619060902603
"2039",2,36,1,1,119,3,2,0,1,0.741263884100549
"2040",2,24,1,2,120,2,2,1,4,0.534454098299786
"2041",2,29,1,2,121,2,2,1,3,0.48783826460731
"2042",2,30,1,1,122,3,1,1,3,0.608897695942477
"2043",2,23,1,1,123,1,1,1,5,0.421250080869539
"2044",2,31,1,2,124,3,1,0,2,0.653612832641144
"2045",2,24,1,2,125,2,2,1,4,0.769311914932148
"2046",2,19,1,2,126,1,2,1,4,0.409965796370864
"2047",2,18,1,1,127,1,1,1,5,0.307171929223267
"2048",2,30,1,2,128,2,2,1,3,0.747486173187407
"2049",2,36,1,1,129,2,2,0,3,0.64887007223542
"2050",2,24,1,2,130,2,2,1,3,0.61289321609718
"2051",2,29,1,1,131,2,2,0,3,0.542975560685735
"2052",2,30,1,2,132,1,1,0,3,0.614394728643297
"2053",2,23,1,1,133,3,2,0,1,1.67823198340622
"2054",2,31,1,1,134,2,2,0,2,0.815962888090597
"2055",2,24,1,1,135,2,1,1,3,0.746928066747567
"2056",2,19,1,1,136,3,1,1,3,0.831350172085234
"2057",2,18,1,1,137,2,1,1,3,0.584023909244825
"2058",2,30,1,1,138,1,1,1,4,0.486099078741565
"2059",2,36,1,1,139,3,1,1,2,0.868004995480365
"2060",2,24,1,2,140,3,1,0,2,0.524149378365875
"2061",2,29,1,2,141,3,1,0,1,1.06381442764358
"2062",2,30,1,1,142,1,1,1,5,0.488305771797793
"2063",2,23,1,2,143,3,1,0,2,1.28499148249662
"2064",2,31,1,1,144,1,1,1,5,0.45512818658519
"2065",2,24,1,1,145,2,1,1,3,0.720152972309226
"2066",2,19,1,1,146,2,1,1,3,0.687452357555225
"2067",2,18,1,2,147,1,2,1,4,0.248599353246836
"2068",2,30,1,1,148,3,1,1,3,0.70670310539959
"2069",2,36,1,2,149,3,2,1,3,0.956093608318841
"2070",2,24,1,2,150,2,2,1,4,0.382501005674026
"2071",2,29,1,2,151,2,1,0,2,0.675596512705127
"2072",2,30,1,2,152,3,1,0,1,0.591033484787438
"2073",2,23,1,2,153,3,1,0,2,1.7064104380919
"2074",2,31,1,2,154,3,1,0,1,1.0523186094332
"2075",2,24,1,2,155,2,2,1,4,0.441566292317846
"2076",2,19,1,1,156,3,1,1,3,0.731427952614895
"2077",2,18,1,1,157,3,1,1,2,1.22110425309543
"2078",2,30,1,2,158,1,2,1,5,0.35982647716495
"2079",2,36,1,1,159,3,2,0,2,1.14793837296173
"2080",2,24,1,1,160,2,1,1,3,0.598058483409569
"2081",2,29,1,2,161,3,1,0,2,0.632321076825544
"2082",2,30,1,2,162,2,2,1,3,0.507069816741937
"2083",2,23,1,2,163,2,2,1,3,0.493510409613952
"2084",2,31,1,1,164,2,2,0,2,0.864926949586852
"2085",2,24,1,1,165,3,2,0,2,1.17020239990169
"2086",2,19,1,2,166,1,2,1,4,0.46438837693434
"2087",2,18,1,1,167,2,1,1,3,0.662263893980079
"2088",2,30,1,1,168,1,1,1,5,0.501959797551918
"2089",2,36,1,2,169,3,1,0,1,1.17731698992747
"2090",2,24,1,2,170,3,2,1,2,0.899399366872338
"2091",2,29,1,2,171,3,2,1,3,0.934874791567773
"2092",2,30,1,1,172,2,2,0,3,0.723091634372032
"2093",2,23,1,2,173,2,2,1,4,0.635783859548135
"2094",2,31,1,2,174,1,2,1,5,0.286038260826545
"2095",2,24,1,1,175,1,1,1,5,0.525848342585995
"2096",2,19,1,2,176,1,2,1,5,0.365227011250395
"2097",2,18,1,2,177,3,2,1,3,1.00429388019101
"2098",2,30,1,2,178,3,1,0,1,0.958511371754967
"2099",2,36,1,2,179,3,2,1,2,0.893167003590354
"2100",2,24,1,1,180,1,1,1,4,0.396371616914351
"2101",2,29,1,2,181,1,2,1,5,0.348416139819614
"2102",2,30,1,1,182,2,2,0,3,0.694060228732695
"2103",2,23,1,1,183,3,2,0,1,1.49161791763756
"2104",2,31,1,2,184,2,1,0,3,0.657302251553164
"2105",2,24,1,1,185,2,1,1,4,0.872613723305313
"2106",2,19,1,2,186,1,2,1,4,0.623143780779115
"2107",2,18,1,1,187,1,1,1,4,0.357578075640367
"2108",2,30,1,1,188,1,1,1,4,0.46030743359445
"2109",2,36,1,1,189,1,2,0,4,0.50322188330232
"2110",2,24,1,2,190,1,2,1,5,0.404645641419018
"2111",2,29,1,1,191,1,1,1,4,0.395433157470664
"2112",2,30,1,1,192,1,1,1,4,0.441516353959975
"2113",2,23,1,1,193,2,1,1,3,0.508684840981365
"2114",2,31,1,2,194,2,2,1,3,0.687446393719485
"2115",2,24,1,1,195,1,1,1,4,0.32631095062184
"2116",2,19,1,1,196,2,1,1,4,0.703035787228118
"2117",2,18,1,2,197,2,1,0,2,0.467446126193439
"2118",2,30,1,2,198,3,1,0,1,1.12953448992096
"2119",2,36,1,2,199,3,2,1,2,0.996808153038961
"2120",2,24,1,2,200,2,2,1,4,0.651895912466213
"2121",2,29,1,1,201,1,1,1,4,0.401587401592338
"2122",2,30,1,1,202,3,1,1,3,0.760331732573609
"2123",2,23,1,1,203,3,2,0,2,1.03709433599631
"2124",2,31,1,1,204,1,1,1,4,0.40891988037293
"2125",2,24,1,1,205,1,2,0,3,0.479477184668388
"2126",2,19,1,2,206,3,1,0,1,1.03996562519115
"2127",2,18,1,2,207,1,2,1,5,0.566750574902414
"2128",2,30,1,1,208,1,2,0,3,0.811390313324064
"2129",2,36,1,1,209,3,2,0,2,1.02529412679057
"2130",2,24,1,2,210,2,1,0,3,0.561359383827133
"2131",2,29,1,1,211,1,2,0,4,0.598538297698157
"2132",2,30,1,2,212,2,2,1,3,0.539849490241403
"2133",2,23,1,1,213,2,2,0,2,0.590558803867898
"2134",2,31,1,2,214,3,1,0,2,0.707407615838119
"2135",2,24,1,2,215,2,1,0,3,0.717871201857977
"2136",2,19,1,2,216,1,2,1,5,0.300828114146642
"2137",2,18,1,1,217,3,2,0,1,0.890334596633183
"2138",2,30,1,1,218,2,2,0,3,0.436088317907247
"2139",2,36,1,1,219,3,2,0,2,0.706986064410092
"2140",2,24,1,1,220,1,2,0,4,0.610887683842392
"2141",2,29,1,1,221,3,1,1,2,0.485718549424359
"2142",2,30,1,1,222,2,1,1,3,0.714920727502609
"2143",2,23,1,2,223,1,1,0,4,0.441312352661949
"2144",2,31,1,1,224,3,2,0,1,0.673858935964375
"2145",2,24,1,1,225,3,1,1,2,0.676198479329817
"2146",2,19,1,2,226,2,2,1,4,0.61306734051867
"2147",2,18,1,1,227,1,1,1,5,0.481972725737098
"2148",2,30,1,1,228,1,2,0,4,0.696942112431985
"2149",2,36,1,1,229,3,2,0,2,1.21761798182272
"2150",2,24,1,2,230,1,2,1,4,0.351249420010153
"2151",2,29,1,1,231,1,2,0,4,0.595221923094598
"2152",2,30,1,1,232,2,2,0,2,0.673661039478626
"2153",2,23,1,2,233,3,1,0,2,0.851352446325734
"2154",2,31,1,2,234,3,1,0,1,1.08627434149572
"2155",2,24,1,1,235,3,1,1,3,0.73848890737531
"2156",2,19,1,1,236,2,1,1,4,0.363545231402675
"2157",2,18,1,2,237,3,1,0,2,1.34782685543658
"2158",2,30,1,2,238,1,2,1,4,0.366133758492454
"2159",2,36,1,1,239,1,1,1,5,0.357674784920111
"2160",2,24,1,1,240,1,1,1,4,0.432387966101586
"2161",1,21,1,2,1,1,2,1,4,0.511131044948446
"2162",1,27,1,1,2,3,2,0,1,1.2946032491484
"2163",1,22,1,2,3,1,2,1,4,0.46478565980636
"2164",1,24,1,1,4,1,1,1,5,0.465723909610536
"2165",1,28,1,2,5,3,1,0,2,1.4165335582955
"2166",1,18,1,1,6,3,1,1,2,0.69954031622141
"2167",1,30,1,1,7,2,1,1,3,0.474521534368628
"2168",1,20,1,2,8,3,1,0,1,0.933837888663129
"2169",1,24,1,2,9,2,1,0,3,0.880597084917368
"2170",1,30,1,1,10,1,1,1,5,0.445316226361087
"2171",1,21,1,2,11,1,2,1,5,0.473364523929757
"2172",1,27,1,2,12,2,2,1,4,0.597416961011793
"2173",1,22,1,2,13,3,1,0,2,1.44317421457198
"2174",1,24,1,2,14,3,1,0,1,1.76789090940301
"2175",1,28,1,2,15,2,1,0,2,0.760606527231361
"2176",1,18,1,1,16,1,1,1,4,0.342921473771935
"2177",1,30,1,1,17,3,1,1,3,1.16097412086524
"2178",1,20,1,1,18,3,2,0,1,1.21525600450439
"2179",1,24,1,2,19,3,2,1,2,0.994591073015597
"2180",1,30,1,1,20,2,1,1,4,0.57409475605304
"2181",1,21,1,1,21,2,1,1,3,0.458944619657573
"2182",1,27,1,1,22,1,2,0,4,0.644897548186476
"2183",1,22,1,1,23,1,1,1,4,0.514799298060145
"2184",1,24,1,2,24,3,1,0,2,0.964153634621129
"2185",1,28,1,2,25,2,2,1,4,0.589583468212377
"2186",1,18,1,2,26,3,1,0,2,1.12237943239978
"2187",1,30,1,2,27,2,2,1,3,0.623481667266047
"2188",1,20,1,1,28,2,2,0,2,0.978783621803776
"2189",1,24,1,1,29,2,1,1,4,0.543836206566741
"2190",1,30,1,2,30,3,1,0,1,0.716421687177578
"2191",1,21,1,1,31,2,1,1,4,0.612397021979969
"2192",1,27,1,1,32,1,1,1,5,0.354857976017558
"2193",1,22,1,1,33,3,1,1,3,0.869872811099416
"2194",1,24,1,1,34,3,2,0,2,0.728019629951335
"2195",1,28,1,1,35,3,2,0,1,1.4877927438297
"2196",1,18,1,1,36,1,1,1,5,0.327780721103251
"2197",1,30,1,2,37,3,2,1,2,0.634072837193129
"2198",1,20,1,2,38,3,2,1,3,0.550976015116222
"2199",1,24,1,1,39,2,2,0,3,0.586019548938069
"2200",1,30,1,1,40,1,2,0,4,0.483119659141653
"2201",1,21,1,2,41,1,1,0,4,0.478721846385571
"2202",1,27,1,1,42,1,1,1,4,0.379350924223148
"2203",1,22,1,2,43,1,2,1,5,0.497028960388875
"2204",1,24,1,1,44,1,1,1,4,0.460780925136986
"2205",1,28,1,2,45,1,2,1,4,0.423278132660969
"2206",1,18,1,2,46,1,2,1,4,0.395022854518108
"2207",1,30,1,2,47,1,1,0,4,0.469305521353502
"2208",1,20,1,2,48,1,2,1,4,0.468867690659062
"2209",1,24,1,2,49,3,2,1,3,0.996693957283393
"2210",1,30,1,2,50,2,1,0,3,0.680875983408453
"2211",1,21,1,1,51,1,1,1,5,0.351114082526812
"2212",1,27,1,2,52,2,2,1,4,0.658244396673651
"2213",1,22,1,1,53,2,1,1,3,0.62657213443398
"2214",1,24,1,2,54,3,2,1,2,0.893763330182194
"2215",1,28,1,2,55,2,1,0,3,0.563316907817656
"2216",1,18,1,2,56,2,2,1,4,0.773690895686286
"2217",1,30,1,1,57,2,2,0,3,0.579887759549574
"2218",1,20,1,2,58,1,2,1,4,0.427030709052703
"2219",1,24,1,2,59,3,2,1,2,0.868004541318908
"2220",1,30,1,2,60,1,2,1,5,0.366662477053639
"2221",1,21,1,2,61,1,1,0,4,0.577671160566949
"2222",1,27,1,2,62,2,1,0,3,0.638592491473913
"2223",1,22,1,2,63,2,2,1,4,0.474322869632312
"2224",1,24,1,2,64,2,2,1,4,0.645795469320829
