"","subj_no","age","group","stim","trial","difficulty","resp","corr","conf","RT_day1","RT_day2"
"1",9,34,1,2,1,1,2,1,4,0.40921431300055,0.852730868096618
"2",9,26,1,1,2,1,1,1,5,0.389465282410816,0.82152739976484
"3",9,37,1,2,3,3,1,0,2,1.56539074808952,2.6794896355372
"4",9,33,1,1,4,2,1,1,3,0.664727700581641,1.25644202047474
"5",9,38,1,2,5,2,2,1,3,0.646166908494568,1.22711596897717
"6",9,35,1,1,6,2,2,0,2,0.780621600485562,1.43955438232294
"7",9,35,1,2,7,2,2,1,4,0.48360374327249,0.970266167926284
"8",9,31,1,2,8,1,2,1,5,0.380001855458798,0.806575185180651
"9",9,28,1,2,9,2,1,0,2,0.817424787137749,1.49770341723339
"10",9,31,1,1,10,3,2,0,1,0.885659799684401,1.6055147370571
"11",9,34,1,2,11,3,1,0,1,0.785089258307602,1.44661328168176
"12",9,26,1,2,12,3,2,1,2,1.07131540478459,1.8988505931154
"13",9,37,1,1,13,3,1,1,3,0.789743931223324,1.4539676648886
"14",9,33,1,2,14,2,1,0,2,0.917101322596957,1.65519234325894
"15",9,38,1,2,15,2,1,0,3,0.47348688955752,0.954281539056632
"16",9,35,1,2,16,2,1,0,3,0.531913106066788,1.04659496114127
"17",9,35,1,1,17,2,2,0,2,0.634259939702093,1.20830295828506
"18",9,31,1,1,18,1,1,1,4,0.320762019954493,0.712976245083848
"19",9,28,1,2,19,2,2,1,4,0.348192445209188,0.756316316986267
"20",9,31,1,2,20,2,2,1,3,0.661755191973678,1.25174545687416
"21",9,34,1,2,21,1,2,1,4,0.442539159292726,0.905384125238257
"22",9,26,1,2,22,3,1,0,2,0.864367458569315,1.57187283809527
"23",9,37,1,2,23,2,1,0,3,0.45508614326555,0.925208359915319
"24",9,33,1,2,24,1,1,0,3,0.550773240007784,1.07639397276805
"25",9,38,1,2,25,3,2,1,3,0.764489384801263,1.41406548154174
"26",9,35,1,2,26,1,2,1,4,0.423228894775366,0.874873907300828
"27",9,35,1,2,27,3,1,0,2,0.747788843845573,1.38767862683176
"28",9,31,1,1,28,1,2,0,3,0.443159703237753,0.9063645846714
"29",9,28,1,1,29,3,1,1,3,0.822373554837206,1.50552247019854
"30",9,31,1,2,30,3,2,1,2,0.58070863075167,1.12369189014339
"31",9,34,1,1,31,1,2,0,3,0.648357674706184,1.23057737959152
"32",9,26,1,1,32,3,2,0,2,0.364302598853308,0.781770359743976
"33",9,37,1,1,33,1,1,1,4,0.315172560953205,0.704144899861813
"34",9,33,1,2,34,2,1,0,2,0.605399868185362,1.16270404528862
"35",9,38,1,2,35,1,1,0,4,0.65769736828452,1.24533409544529
"36",9,35,1,2,36,2,1,0,3,0.793430299019759,1.45979212600697
"37",9,35,1,1,37,2,1,1,4,0.680131686732947,1.28078031859381
"38",9,31,1,1,38,3,1,1,3,1.00679174794606,1.79690321531053
"39",9,28,1,1,39,3,2,0,2,1.52565198339951,2.61670238732698
"40",9,31,1,1,40,1,1,1,5,0.424528740800203,0.876927664020071
"41",9,34,1,2,41,1,2,1,5,0.409240817580505,0.852772745332948
"42",9,26,1,2,42,1,2,1,4,0.434237515372834,0.892267527844827
"43",9,37,1,1,43,2,1,1,4,0.558496420182479,1.08859659744407
"44",9,33,1,1,44,1,1,1,4,0.424367804842972,0.876673385207645
"45",9,38,1,1,45,2,1,1,3,0.595207311976853,1.14659980647918
"46",9,35,1,2,46,3,1,0,1,1.12367625783622,1.98158074093698
"47",9,35,1,1,47,2,1,1,4,0.504135379090654,1.00270615251898
"48",9,31,1,1,48,2,1,1,3,0.722687760825814,1.34801891566054
"49",9,28,1,1,49,2,1,1,4,0.605950215294634,1.16357359372127
"50",9,31,1,1,50,2,1,1,4,0.672192475417841,1.26823636471594
"51",9,34,1,2,51,1,2,1,5,0.457080809929412,0.92835993324422
"52",9,26,1,1,52,3,1,1,2,0.878425939575066,1.59408523808435
"53",9,37,1,2,53,1,1,0,4,0.562620200248107,1.09511216994776
"54",9,33,1,2,54,1,2,1,4,0.461929868145489,0.936021445225622
"55",9,38,1,2,55,2,2,1,3,0.714296605817244,1.334760890747
"56",9,35,1,1,56,1,1,1,5,0.480769475077991,0.965788024178975
"57",9,35,1,2,57,1,2,1,5,0.454920384896033,0.924946461691482
"58",9,31,1,2,58,3,1,0,2,0.680329505875203,1.28109287283857
"59",9,28,1,2,59,2,1,0,2,0.474502573971494,0.95588632043071
"60",9,31,1,2,60,1,2,1,5,0.384985939862256,0.814450038538114
"61",9,34,1,1,61,2,1,1,4,0.847481509877825,1.54519303916271
"62",9,26,1,1,62,1,1,1,4,0.479818008661691,0.964284707241222
"63",9,37,1,2,63,2,2,1,4,0.44795260227435,0.913937365149223
"64",9,33,1,2,64,1,2,1,4,0.412280212281196,0.85757498896004
"65",9,38,1,2,65,2,1,0,2,0.63343061852344,1.20699263082278
"66",9,35,1,1,66,1,1,1,5,0.283963578607964,0.654834707756333
"67",9,35,1,1,67,1,1,1,4,0.492754129422205,0.984723778042834
"68",9,31,1,1,68,1,1,1,4,0.536409147769662,1.05369870703182
"69",9,28,1,1,69,1,2,0,4,0.585989380525384,1.13203547478586
"70",9,31,1,2,70,3,2,1,3,0.650788619628215,1.23441827256833
"71",9,34,1,2,71,2,2,1,3,0.787352365375945,1.45018899084974
"72",9,26,1,1,72,3,1,1,3,0.975155950136123,1.74691865477082
"73",9,37,1,1,73,3,1,1,2,0.608708179064822,1.16793117647817
"74",9,33,1,1,74,3,2,0,2,0.94515695316692,1.69952023955948
"75",9,38,1,1,75,1,1,1,5,0.372600273372629,0.794880685484503
"76",9,35,1,2,76,3,1,0,1,0.734815334774344,1.36718048249921
"77",9,35,1,1,77,2,2,0,2,0.689972032267292,1.29632806453807
"78",9,31,1,1,78,1,2,0,4,0.358893579879812,0.773224109765853
"79",9,28,1,2,79,1,2,1,5,0.384573029653662,0.813797640408536
"80",9,31,1,1,80,2,1,1,3,0.647117519254539,1.22861793397792
"81",9,34,1,1,81,1,2,0,3,0.477742285607759,0.961005064816008
"82",9,26,1,1,82,3,1,1,2,0.753273943541372,1.39634508435112
"83",9,37,1,2,83,2,2,1,3,0.706905485470421,1.32308292059901
"84",9,33,1,2,84,1,2,1,5,0.36485741521864,0.782646969601201
"85",9,38,1,1,85,3,1,1,3,0.635858635884041,1.21082889825253
"86",9,35,1,2,86,2,2,1,4,0.761429828565165,1.40923138268871
"87",9,35,1,1,87,2,2,0,3,0.921054068714529,1.6614376821247
"88",9,31,1,2,88,3,1,0,1,1.10139356068382,1.94637407943618
"89",9,28,1,2,89,1,2,1,4,0.289822031282893,0.66409106298272
"90",9,31,1,2,90,1,2,1,4,0.466107064746587,0.942621415855357
"91",9,34,1,2,91,2,2,1,4,0.371859038386296,0.793709534206098
"92",9,26,1,1,92,1,1,1,5,0.376537946645845,0.801102209256185
"93",9,37,1,2,93,3,1,0,2,1.05002795054019,1.86521641540924
"94",9,33,1,1,94,2,1,1,3,0.68007610829393,1.28069250466016
"95",9,38,1,2,95,3,1,0,1,0.615819290565858,1.17916673264981
"96",9,35,1,1,96,1,2,0,3,0.577031455547167,1.11788195332027
"97",9,35,1,1,97,2,1,1,4,0.453782982342313,0.923149365656604
"98",9,31,1,2,98,1,2,1,5,0.341483018337294,0.745715422528674
"99",9,28,1,2,99,3,1,0,1,1.38830866367751,2.39969994216621
"100",9,31,1,2,100,3,2,1,2,1.00671690309627,1.79678496044785
"101",9,34,1,2,101,1,2,1,5,0.370457848930047,0.791495654865225
"102",9,26,1,1,102,3,2,0,2,1.27697075157028,2.22378604103679
"103",9,37,1,1,103,2,2,0,2,0.590395298054482,1.13899682448183
"104",9,33,1,2,104,1,2,1,5,0.449911278543516,0.917032073654505
"105",9,38,1,2,105,3,1,0,2,0.864499371301029,1.57208126021138
"106",9,35,1,1,106,3,1,1,3,1.27787582251944,2.22521605313646
"107",9,35,1,1,107,3,1,1,3,0.720126288473341,1.34397178934363
"108",9,31,1,2,108,1,1,0,3,0.560125056458413,1.09116984276004
"109",9,28,1,1,109,3,1,1,3,0.916331553617964,1.65397610827213
"110",9,31,1,1,110,1,2,0,4,0.575354355594258,1.11523213539468
"111",9,34,1,2,111,2,2,1,4,0.733303957619012,1.36479250659379
"112",9,26,1,1,112,1,1,1,5,0.310007663390504,0.695984361712746
"113",9,37,1,2,113,3,2,1,2,0.871566588485151,1.58324746336229
"114",9,33,1,1,114,3,2,0,1,0.861620953019539,1.56753335932662
"115",9,38,1,1,115,3,1,1,3,0.7784369772482,1.43610267760791
"116",9,35,1,2,116,3,2,1,2,0.594099073087862,1.14484878903457
"117",9,35,1,1,117,3,2,0,2,1.4546984647819,2.50459582791116
"118",9,31,1,2,118,3,2,1,3,0.814488841511893,1.49306462314454
"119",9,28,1,2,119,3,1,0,2,0.705681954789075,1.32114974212249
"120",9,31,1,1,120,1,1,1,4,0.431708567577186,0.888271790327704
"121",9,34,1,2,121,1,1,0,4,0.649997395744501,1.23316813883206
"122",9,26,1,2,122,3,2,1,3,0.701580612161511,1.31466962077094
"123",9,37,1,2,123,1,1,0,4,0.613497562469934,1.17549840225825
"124",9,33,1,1,124,3,1,1,3,0.600689210572479,1.15526120626027
"125",9,38,1,1,125,3,2,0,1,0.755129265052797,1.39927649233917
"126",9,35,1,2,126,3,2,1,3,0.546301647699585,1.06932885692109
"127",9,35,1,1,127,2,2,0,2,0.619643530675943,1.18520903202374
"128",9,31,1,1,128,2,1,1,3,0.598374363071816,1.15160374720922
"129",9,28,1,2,129,2,2,1,3,0.551647120093657,1.07777470330373
"130",9,31,1,1,130,3,1,1,2,0.87947430558278,1.59574165637654
"131",9,34,1,1,131,2,1,1,4,0.570299669226794,1.10724573093408
"132",9,26,1,1,132,1,1,1,5,0.562769790750784,1.09534852294199
"133",9,37,1,2,133,1,2,1,4,0.297375757208761,0.676025949945593
"134",9,33,1,1,134,1,1,1,4,0.337029934723431,0.738679550418771
"135",9,38,1,2,135,2,2,1,3,0.742699154711364,1.3796369179997
"136",9,35,1,2,136,2,2,1,4,0.536127826584313,1.05325421955896
"137",9,35,1,1,137,1,1,1,4,0.407054565433327,0.849318466940407
"138",9,31,1,2,138,1,2,1,4,0.463933776893161,0.939187621046944
"139",9,28,1,2,139,3,2,1,2,1.0156241970873,1.81085848495368
"140",9,31,1,1,140,3,1,1,3,0.573377037322188,1.11210797252481
"141",9,34,1,1,141,1,1,1,5,0.337519253927322,0.739452674760918
"142",9,26,1,1,142,3,2,0,1,1.25914782425969,2.19562581588606
"143",9,37,1,2,143,2,1,0,2,0.630585005465354,1.20249656219101
"144",9,33,1,1,144,2,1,1,4,0.768202165553973,1.41993167513103
"145",9,38,1,2,145,3,2,1,3,0.916718825089287,1.65458799719682
"146",9,35,1,2,146,2,2,1,3,0.86474229299876,1.57246507649379
"147",9,35,1,2,147,1,2,1,4,0.448211098326213,0.914345788911166
"148",9,31,1,2,148,1,2,1,4,0.383804475655562,0.812583325091538
"149",9,28,1,1,149,1,1,1,4,0.51124318504053,1.01393648591979
"150",9,31,1,1,150,1,1,1,4,0.462600924143273,0.937081713702121
"151",9,34,1,1,151,2,1,1,3,0.482289505477094,0.968189672209559
"152",9,26,1,2,152,2,2,1,3,0.561175332943329,1.09282927960621
"153",9,37,1,1,153,2,1,1,3,0.549699935588465,1.07469815178552
"154",9,33,1,1,154,1,1,1,5,0.31672162277429,0.706592417539128
"155",9,38,1,1,155,1,2,0,4,0.439249413356576,0.90018632665914
"156",9,35,1,2,156,1,2,1,4,0.436125133812053,0.895249964978793
"157",9,35,1,2,157,3,1,0,2,0.999791623542008,1.78584301875212
"158",9,31,1,2,158,2,1,0,3,0.517903708259344,1.02446011260551
"159",9,28,1,2,159,1,2,1,5,0.48148145455384,0.966912951750817
"160",9,31,1,2,160,1,2,1,5,0.501460833837673,0.998480371019274
"161",9,34,1,1,161,2,1,1,4,0.759260699245593,1.40580415836379
"162",9,26,1,1,162,3,2,0,1,0.530802036592991,1.04483947137268
"163",9,37,1,1,163,3,1,1,2,0.872461765795082,1.58466184351198
"164",9,33,1,2,164,1,2,1,5,0.473328376009809,0.954031087651248
"165",9,38,1,1,165,2,2,0,3,0.711410048320572,1.33020012990225
"166",9,35,1,2,166,3,2,1,3,0.957297565051239,1.71870240633671
"167",9,35,1,2,167,3,1,0,1,1.04170529169336,1.85206661443126
"168",9,31,1,1,168,2,2,0,3,0.64000721333421,1.2173836506238
"169",9,28,1,1,169,2,1,1,3,0.717831108773983,1.34034540541864
"170",9,31,1,1,170,2,2,0,2,0.905626669670716,1.63706239163548
"171",9,34,1,1,171,1,2,0,4,0.452689274631852,0.921421307474076
"172",9,26,1,1,172,3,2,0,2,1.13564817423351,2.00049636884469
"173",9,37,1,1,173,3,1,1,3,0.985236252134981,1.76284553192902
"174",9,33,1,2,174,1,1,0,4,0.598462708474997,1.15174333294625
"175",9,38,1,1,175,3,2,0,2,1.02365142994281,1.8235415128654
"176",9,35,1,2,176,1,2,1,5,0.364325293841832,0.781806217825845
"177",9,35,1,2,177,2,1,0,3,0.634856605472275,1.20924569020194
"178",9,31,1,1,178,2,1,1,4,0.746062146821659,1.38495044553397
"179",9,28,1,2,179,2,2,1,4,0.494031593375859,0.986742171089607
"180",9,31,1,1,180,2,1,1,4,0.526895036094818,1.03866641058556
"181",9,34,1,1,181,3,1,1,2,0.816532790655948,1.49629406279215
"182",9,26,1,1,182,1,1,1,5,0.405919284377478,0.847524722872164
"183",9,37,1,1,183,2,1,1,4,0.399718441914483,0.837727391780633
"184",9,33,1,2,184,2,2,1,3,0.627242775750349,1.1972158392413
"185",9,38,1,2,185,3,1,0,1,0.50621102135294,1.00598566729339
"186",9,35,1,1,186,1,1,1,4,0.438763456217654,0.899418514379644
"187",9,35,1,2,187,1,2,1,5,0.428912580416428,0.883854130613706
"188",9,31,1,2,188,3,1,0,2,0.917888634064157,1.65643629537712
"189",9,28,1,1,189,1,1,1,4,0.421672764546982,0.872415221539981
"190",9,31,1,1,190,1,2,0,4,0.494584070861175,0.987615085516406
"191",9,34,1,2,191,3,2,1,3,0.760145358568128,1.40720192009339
"192",9,26,1,1,192,2,1,1,3,0.582259512898753,1.12614228393578
"193",9,37,1,1,193,3,1,1,2,0.722333176060388,1.34745867173116
"194",9,33,1,1,194,2,2,0,2,0.662260613392062,1.25254402271521
"195",9,38,1,1,195,1,1,1,4,0.317001467184311,0.707034571706961
"196",9,35,1,1,196,3,1,1,2,0.913572201930913,1.64961633260659
"197",9,35,1,1,197,3,1,1,3,0.490605292264037,0.981328615332929
"198",9,31,1,2,198,3,1,0,2,1.40863882415817,2.43182159572567
"199",9,28,1,1,199,2,1,1,4,0.682790758132305,1.28498165140479
"200",9,31,1,2,200,3,1,0,2,0.906702200212268,1.63876172989113
"201",9,34,1,2,201,1,2,1,4,0.301304395883226,0.682233199051247
"202",9,26,1,1,202,3,1,1,2,0.981540086638295,1.75700559044426
"203",9,37,1,2,203,1,2,1,4,0.365085579227053,0.783007468734494
"204",9,33,1,2,204,3,2,1,2,0.928101852720482,1.67257318085411
"205",9,38,1,1,205,1,1,1,5,0.43264667516846,0.889754000321917
"206",9,35,1,2,206,3,1,0,2,0.191600528174509,0.508901088071474
"207",9,35,1,2,207,2,1,0,3,0.650203026376951,1.23349303523133
"208",9,31,1,1,208,3,1,1,2,0.740728686758278,1.37652357863383
"209",9,28,1,2,209,2,2,1,4,0.355884437315666,0.768469664514503
"210",9,31,1,1,210,2,2,0,3,0.7111020443295,1.32971348359636
"211",9,34,1,2,211,1,1,0,3,0.576665678434572,1.11730402548237
"212",9,26,1,1,212,1,1,1,5,0.370821454908997,0.792070152311966
"213",9,37,1,2,213,1,2,1,5,0.46192634299622,0.936015875489778
"214",9,33,1,2,214,2,2,1,3,0.695603964089587,1.3052265168173
"215",9,38,1,2,215,3,2,1,2,0.704623246710269,1.31947698335798
"216",9,35,1,1,216,3,2,0,2,0.860594572943382,1.56591167880629
"217",9,35,1,1,217,2,2,0,2,0.792345594401236,1.4580782927097
"218",9,31,1,2,218,2,2,1,3,0.702267771377838,1.31575533233273
"219",9,28,1,1,219,3,1,1,3,0.83353596435711,1.52315907723998
"220",9,31,1,2,220,1,2,1,5,0.371596186782295,0.793294228671776
"221",9,34,1,1,221,2,1,1,4,0.521027671503374,1.02939597453108
"222",9,26,1,1,222,3,2,0,1,1.3225685491927,2.29583056128021
"223",9,37,1,1,223,2,2,0,3,0.529488130132584,1.04276349916523
"224",9,33,1,1,224,2,1,1,4,0.693647503058273,1.30213530838782
"225",9,38,1,2,225,2,2,1,4,0.709687007719907,1.3274777257532
"226",9,35,1,2,226,3,2,1,3,0.587262975798313,1.13404775531708
"227",9,35,1,1,227,2,1,1,4,0.485230522350918,0.9728364788702
"228",9,31,1,2,228,2,2,1,4,0.528916075876278,1.04185965344027
"229",9,28,1,1,229,1,1,1,5,0.383318192854738,0.811814998266236
"230",9,31,1,1,230,1,1,1,4,0.449742072146827,0.916764727547736
"231",9,34,1,1,231,1,1,1,5,0.397494530842126,0.834213612286309
"232",9,26,1,1,232,2,1,1,3,0.609873700377943,1.1697727001529
"233",9,37,1,2,233,3,1,0,1,0.881010126355324,1.59816825319716
"234",9,33,1,2,234,2,2,1,4,0.530919099809197,1.04502443125428
"235",9,38,1,2,235,3,1,0,1,1.2659872511281,2.20643211033814
"236",9,35,1,1,236,3,2,0,2,1.21972013823692,2.13333007197009
"237",9,35,1,2,237,2,1,0,3,0.560513937361963,1.09178427458765
"238",9,31,1,2,238,3,1,0,2,1.15439608708857,2.03011807115569
"239",9,28,1,2,239,2,2,1,3,0.672361965726496,1.26850415940361
"240",9,31,1,2,240,3,2,1,2,0.935790586754091,1.68472138062721
"241",8,25,2,2,1,1,2,1,5,0.447355194779502,0.508551355580414
"242",8,29,2,1,2,2,1,1,3,0.501894175351073,0.594722944883496
"243",8,36,2,1,3,3,1,1,2,0.647452861696636,0.824705669309485
"244",8,24,2,2,4,1,2,1,5,0.379689013232585,0.401638788736284
"245",8,26,2,1,5,2,1,1,4,0.440398841701087,0.497560317716517
"246",8,24,2,1,6,3,2,0,1,0.507858144242385,0.604146015731769
"247",8,18,2,2,7,2,2,1,4,0.586282917925728,0.72805715815145
"248",8,29,2,2,8,2,2,1,4,0.59791173191676,0.746430684257281
"249",8,26,2,1,9,3,2,0,1,0.925466239206447,1.26396680577499
"250",8,40,2,1,10,3,2,0,1,1.90348341894872,2.80923394976777
"251",8,25,2,1,11,2,2,0,2,0.440279385266187,0.497371576549375
"252",8,29,2,2,12,1,1,0,3,0.606427428726431,0.759885485216561
"253",8,36,2,2,13,2,1,0,2,0.940016981057062,1.28695697789896
"254",8,24,2,1,14,3,2,0,1,1.15845609091502,1.63209077147454
"255",8,26,2,2,15,2,1,0,3,0.728771160439023,0.953188581322456
"256",8,24,2,2,16,2,2,1,4,0.505526127079105,0.600461428613785
"257",8,18,2,2,17,1,2,1,4,0.609194504873378,0.764257465528738
"258",8,29,2,2,18,1,2,1,5,0.389464256162636,0.417083672565765
"259",8,26,2,1,19,3,1,1,3,0.634386775805567,0.804061253601596
"260",8,40,2,2,20,1,2,1,5,0.343922586603336,0.345127834662071
"261",8,25,2,1,21,2,1,1,3,0.531271404261042,0.641138966561246
"262",8,29,2,1,22,2,1,1,3,0.515391163812925,0.616048186653221
"263",8,36,2,2,23,3,2,1,2,0.501261315554868,0.593723026405492
"264",8,24,2,2,24,2,2,1,4,0.585983792493868,0.727584539969112
"265",8,26,2,1,25,3,2,0,1,0.591302884358714,0.735988705115569
"266",8,24,2,1,26,2,2,0,2,0.697668585656101,0.904046513165439
"267",8,18,2,1,27,2,2,0,2,1.01819048161914,1.41047110878704
"268",8,29,2,2,28,3,2,1,2,0.914271410659162,1.24627897667028
"269",8,26,2,1,29,3,2,0,1,0.404019724221067,0.440081312098086
"270",8,40,2,2,30,1,2,1,5,0.356099707289722,0.364367685346561
"271",8,25,2,1,31,2,1,1,4,0.392575217700998,0.421998991796376
"272",8,29,2,2,32,2,2,1,3,0.663137368569141,0.849487190168043
"273",8,36,2,2,33,2,2,1,3,0.625780471045837,0.790463292081223
"274",8,24,2,2,34,1,2,1,4,0.370000890378865,0.386331554627406
"275",8,26,2,1,35,3,1,1,2,0.560253732991497,0.686931045955364
"276",8,24,2,1,36,2,2,0,3,0.778216558124218,1.03131230966506
"277",8,18,2,2,37,3,2,1,3,0.618315022314984,0.778667883086475
"278",8,29,2,1,38,1,1,1,4,0.420333110416713,0.465856462287206
"279",8,26,2,1,39,3,2,0,1,1.37346336545174,1.97180226524255
"280",8,40,2,1,40,1,1,1,4,0.467367553689032,0.54017088265747
"281",8,25,2,1,41,1,1,1,5,0.375926858541547,0.395694584324445
"282",8,29,2,2,42,2,1,0,2,0.931230260225897,1.27307395898572
"283",8,36,2,1,43,2,1,1,3,0.645828099792656,0.822138545501196
"284",8,24,2,2,44,3,2,1,3,0.83556495791918,1.1219227813411
"285",8,26,2,1,45,3,2,0,2,1.23330952003239,1.75035918947998
"286",8,24,2,2,46,2,2,1,4,0.793621487007659,1.0556520973009
"287",8,18,2,1,47,1,1,1,5,0.538220212945384,0.652118084282507
"288",8,29,2,1,48,2,1,1,4,0.652948935351025,0.83338946568342
"289",8,26,2,1,49,2,2,0,3,0.577754105596341,0.714581634671019
"290",8,40,2,1,50,2,1,1,3,0.662617792328292,0.848666259707501
"291",8,25,2,2,51,1,2,1,5,0.537981488509203,0.651740899673341
"292",8,29,2,2,52,1,2,1,5,0.417672991010284,0.461653473625048
"293",8,36,2,1,53,3,2,0,2,1.72443428044018,2.52633631092429
"294",8,24,2,2,54,1,2,1,5,0.341813683850917,0.341795768313249
"295",8,26,2,2,55,2,1,0,3,0.561714867482602,0.689239638451311
"296",8,24,2,1,56,2,1,1,3,0.613266042360486,0.770690494758368
"297",8,18,2,1,57,3,2,0,1,0.940270815884429,1.2873580369262
"298",8,29,2,1,58,2,1,1,3,0.626635398847689,0.791814078008149
"299",8,26,2,2,59,1,1,0,3,0.438802112489629,0.495037485562414
"300",8,40,2,1,60,2,1,1,3,0.475939806738888,0.553715042476243
"301",8,25,2,2,61,2,1,0,2,0.745232839267564,0.979198033871551
"302",8,29,2,2,62,2,2,1,3,0.477791066070191,0.556640032219702
"303",8,36,2,1,63,3,1,1,3,1.14362683625875,1.60866054911762
"304",8,24,2,1,64,3,1,1,3,0.502394023750084,0.595512705353933
"305",8,26,2,2,65,2,1,0,3,0.668902154524443,0.85859555197742
"306",8,24,2,1,66,3,1,1,2,0.813767838472413,1.08748333261521
"307",8,18,2,2,67,2,2,1,3,0.490908454812801,0.577365506433025
"308",8,29,2,2,68,1,1,0,3,0.544736154736409,0.662413272312326
"309",8,26,2,1,69,3,1,1,2,0.677158445124841,0.871640491126049
"310",8,40,2,1,70,2,1,1,4,0.709374420607403,0.922541732388496
"311",8,25,2,2,71,3,1,0,2,1.3301435073135,1.90335688938413
"312",8,29,2,1,72,1,1,1,4,0.506180139815885,0.601494768737898
"313",8,36,2,1,73,3,2,0,2,1.97960907189574,2.92951248142407
"314",8,24,2,2,74,3,2,1,3,0.825169436477175,1.10549785746274
"315",8,26,2,2,75,1,2,1,4,0.588609329923316,0.73173288910764
"316",8,24,2,1,76,3,1,1,2,0.709057722076699,0.922041348709984
"317",8,18,2,1,77,3,2,0,2,1.22170140714539,1.73201837111852
"318",8,29,2,2,78,3,1,0,1,0.907762354232288,1.23599466751581
"319",8,26,2,1,79,3,2,0,1,0.282113766633115,0.247469899109121
"320",8,40,2,2,80,1,2,1,4,0.468504582113313,0.541967387567835
"321",8,25,2,2,81,3,2,1,3,0.834278921942316,1.11989084449766
"322",8,29,2,2,82,1,1,0,4,0.461626227542265,0.531099587345579
"323",8,36,2,2,83,3,1,0,1,1.29242293962277,1.84375839243277
"324",8,24,2,2,84,1,1,0,3,0.509122407319641,0.606143551393832
"325",8,26,2,1,85,3,1,1,3,0.893970410229266,1.21420339599104
"326",8,24,2,2,86,2,2,1,3,0.616920604521232,0.776464702972346
"327",8,18,2,2,87,2,2,1,3,0.503102296855253,0.5966317768601
"328",8,29,2,2,88,3,1,0,2,0.458857111277517,0.526724383647277
"329",8,26,2,1,89,2,2,0,2,0.49311288016718,0.580848498492944
"330",8,40,2,1,90,3,2,0,2,0.500256954113519,0.59213613532816
"331",8,25,2,1,91,1,1,1,5,0.401089082858463,0.435450898745172
"332",8,29,2,1,92,1,1,1,5,0.43565686757108,0.490067998591106
"333",8,36,2,2,93,1,2,1,5,0.355273785584596,0.363062729052461
"334",8,24,2,1,94,3,2,0,1,1.01424639867563,1.4042394577363
"335",8,26,2,1,95,2,1,1,4,0.59414771269608,0.740483533888606
"336",8,24,2,1,96,1,1,1,4,0.459464116397264,0.527683451736478
"337",8,18,2,2,97,3,2,1,2,0.82701209743223,1.10840926177172
"338",8,29,2,2,98,1,2,1,4,0.4328353025597,0.485609925873125
"339",8,26,2,2,99,1,2,1,5,0.442978319583477,0.501635892770694
"340",8,40,2,1,100,1,1,1,5,0.400902101677776,0.435155468479686
"341",8,25,2,2,101,2,2,1,4,0.597817572440092,0.746281912284145
"342",8,29,2,2,102,2,2,1,4,0.53294080474654,0.643776619328333
"343",8,36,2,2,103,2,2,1,4,0.529446958373694,0.638256342059237
"344",8,24,2,2,104,3,1,0,2,1.5132675889515,2.19269293837217
"345",8,26,2,2,105,1,2,1,4,0.365147543180565,0.378663266054093
"346",8,24,2,2,106,3,1,0,1,1.35330739389971,1.93995583019034
"347",8,18,2,1,107,3,1,1,2,1.16115892065534,1.63636124246424
"348",8,29,2,1,108,1,1,1,5,0.256090698852642,0.206353452015975
"349",8,26,2,1,109,2,2,0,2,0.756362607780273,0.996783068121632
"350",8,40,2,1,110,1,1,1,4,0.412619210013442,0.453668499650039
"351",8,25,2,2,111,3,2,1,3,0.971267672761889,1.33633307079258
"352",8,29,2,1,112,1,1,1,4,0.46836413482391,0.541745480850578
"353",8,36,2,2,113,2,2,1,3,0.359288041558526,0.369405253491271
"354",8,24,2,1,114,2,2,0,3,0.555571497294243,0.679533113553703
"355",8,26,2,1,115,2,1,1,4,0.543177639934075,0.659950818924639
"356",8,24,2,2,116,2,2,1,4,0.638066180369477,0.809874712812574
"357",8,18,2,1,117,1,2,0,3,0.497506037598912,0.58778968723508
"358",8,29,2,1,118,3,1,1,2,0.87991562039797,1.19199682805759
"359",8,26,2,2,119,3,2,1,2,0.874181782921385,1.18293736484459
"360",8,40,2,1,120,1,1,1,5,0.31570163790316,0.300538735715793
"361",8,25,2,1,121,1,1,1,4,0.394022411448637,0.424285557917647
"362",8,29,2,2,122,3,1,0,2,1.17392461834834,1.65653104481917
"363",8,36,2,2,123,1,2,1,5,0.523534560382486,0.628914753233127
"364",8,24,2,2,124,2,2,1,4,0.86091730371759,1.16197948770259
"365",8,26,2,1,125,1,1,1,5,0.411068815572306,0.451218876433044
"366",8,24,2,1,126,3,2,0,1,0.887802504376871,1.20445810474426
"367",8,18,2,2,127,3,2,1,3,1.02433981807411,1.4201870603859
"368",8,29,2,2,128,1,2,1,5,0.475778060765422,0.553459483838167
"369",8,26,2,2,129,1,2,1,4,0.347368094439281,0.350571737042863
"370",8,40,2,2,130,1,2,1,4,0.287065759343853,0.255294047592088
"371",8,25,2,2,131,3,2,1,2,0.895962084965728,1.21735024207465
"372",8,29,2,2,132,1,2,1,4,0.354112656052486,0.361228144391727
"373",8,36,2,2,133,2,2,1,4,0.70030157364186,0.908206634182938
"374",8,24,2,2,134,2,2,1,3,0.605933624120547,0.759105273939264
"375",8,26,2,2,135,2,2,1,4,0.302651889480622,0.279920133208183
"376",8,24,2,2,136,1,2,1,4,0.34781450732564,0.351277069403311
"377",8,18,2,2,137,1,2,1,4,0.514399829560869,0.614481878534973
"378",8,29,2,1,138,1,1,1,5,0.344054852683698,0.345336815069042
"379",8,26,2,1,139,1,1,1,4,0.430323792696465,0.481641740289214
"380",8,40,2,2,140,1,2,1,4,0.24585815505533,0.190186032816221
"381",8,25,2,2,141,3,2,1,3,1.02230704438542,1.41697527795777
"382",8,29,2,1,142,2,1,1,3,0.503081495025328,0.596598909968819
"383",8,36,2,2,143,1,2,1,4,0.426939213641537,0.476294105382428
"384",8,24,2,1,144,1,2,0,3,0.550970083133601,0.67226287917989
"385",8,26,2,2,145,2,1,0,2,0.778759023486518,1.0321694049375
"386",8,24,2,1,146,3,1,1,2,0.948321740069682,1.3000784971389
"387",8,18,2,1,147,2,1,1,3,0.631777080961858,0.799937935748536
"388",8,29,2,2,148,1,1,0,4,0.569959569417338,0.702266267508194
"389",8,26,2,2,149,1,2,1,5,0.357874567308009,0.367171964175455
"390",8,40,2,1,150,3,2,0,2,0.652871271783723,0.833266757247083
"391",8,25,2,1,151,3,1,1,2,0.887189943111652,1.20349025794521
"392",8,29,2,1,152,1,1,1,5,0.378930293629456,0.40044001176334
"393",8,36,2,2,153,1,2,1,4,0.358849520361469,0.368712389999922
"394",8,24,2,1,154,1,1,1,5,0.280694341849357,0.245227207950783
"395",8,26,2,1,155,3,1,1,2,0.403951765400643,0.439973937161816
"396",8,24,2,1,156,2,1,1,4,0.552467883964853,0.674629404493267
"397",8,18,2,1,157,1,1,1,4,0.503838043382249,0.597794256372753
"398",8,29,2,1,158,2,1,1,4,0.600187445909798,0.750026312366281
"399",8,26,2,2,159,2,1,0,3,0.747928385422762,0.983456996796764
"400",8,40,2,2,160,1,1,0,4,0.751403105753448,0.988947054919248
"401",8,25,2,2,161,2,1,0,3,0.588318368857612,0.731273170623828
"402",8,29,2,1,162,1,1,1,4,0.351857134361,0.35766442011918
"403",8,36,2,2,163,2,1,0,3,0.826553722772596,1.1076850298095
"404",8,24,2,1,164,3,2,0,2,0.703875453200761,0.913853363886002
"405",8,26,2,2,165,1,2,1,4,0.458629480525408,0.526364727058944
"406",8,24,2,2,166,3,1,0,2,0.960480332525888,1.3192890732197
"407",8,18,2,1,167,3,2,0,1,1.28472746649312,1.83159954488792
"408",8,29,2,1,168,2,2,0,3,1.03623817707491,1.43898646760716
"409",8,26,2,1,169,2,1,1,4,0.593149032163002,0.738905618646343
"410",8,40,2,1,170,1,2,0,4,0.390339307746261,0.418466254067892
"411",8,25,2,2,171,3,2,1,3,1.04545730994697,1.45355269754502
"412",8,29,2,1,172,1,1,1,4,0.464869867524482,0.536224538517481
"413",8,36,2,2,173,2,1,0,3,0.703857723416131,0.913825350826287
"414",8,24,2,2,174,2,2,1,3,0.593533706651842,0.73951340433871
"415",8,26,2,1,175,1,2,0,4,0.623774967129582,0.78729459589354
"416",8,24,2,2,176,3,2,1,3,0.737379619705466,0.966789946963437
"417",8,18,2,1,177,3,1,1,3,0.901190757952735,1.22561154539412
"418",8,29,2,1,178,2,2,0,3,0.796517349116661,1.06022755943312
"419",8,26,2,1,179,1,1,1,5,0.360764788799683,0.371738514132299
"420",8,40,2,1,180,2,1,1,4,0.646336100387512,0.822941186441069
"421",8,25,2,1,181,2,2,0,3,0.76626481341667,1.01242855302714
"422",8,29,2,2,182,3,2,1,3,0.452443419502724,0.516590750643104
"423",8,36,2,1,183,3,2,0,1,0.829503378246545,1.11234548545834
"424",8,24,2,1,184,2,1,1,3,0.726423660073513,0.94947953074495
"425",8,26,2,1,185,1,1,1,5,0.380291936211686,0.402591407043265
"426",8,24,2,1,186,2,1,1,3,0.536559477647242,0.649494122511442
"427",8,18,2,1,187,2,2,0,3,0.741078838657062,0.972634712906958
"428",8,29,2,2,188,2,2,1,4,0.698992269052947,0.906137932932457
"429",8,26,2,2,189,3,1,0,2,1.09209211696707,1.52723569263677
"430",8,40,2,1,190,1,1,1,5,0.373334204823981,0.39159819145069
"431",8,25,2,2,191,3,2,1,3,0.910860539305415,1.24088979993136
"432",8,29,2,1,192,2,2,0,3,0.584202660013638,0.724770350650347
"433",8,36,2,1,193,2,2,0,3,0.815872487021943,1.09080867732347
"434",8,24,2,2,194,3,1,0,1,0.922270863242305,1.25891811175164
"435",8,26,2,2,195,3,2,1,3,0.89945450214336,1.22286826121531
"436",8,24,2,1,196,1,2,0,3,0.583738659076814,0.724037229170167
"437",8,18,2,2,197,1,2,1,4,0.457734033136205,0.524949920184003
"438",8,29,2,2,198,2,2,1,4,0.241765441474859,0.183719545359078
"439",8,26,2,2,199,1,2,1,5,0.253145003344356,0.201699253112882
"440",8,40,2,1,200,3,1,1,2,0.95894313498766,1.3168603011093
"441",8,25,2,1,201,1,1,1,5,0.262651284205141,0.216719176872922
"442",8,29,2,1,202,1,2,0,4,0.584684035312062,0.725530923621858
"443",8,36,2,1,203,3,2,0,1,0.749017606611517,0.985177966274997
"444",8,24,2,2,204,3,1,0,1,0.908956853968664,1.23788197709929
"445",8,26,2,1,205,3,2,0,1,1.39303355243112,2.00272316066997
"446",8,24,2,1,206,2,1,1,3,0.434174862026252,0.487726429830278
"447",8,18,2,2,207,1,2,1,4,0.4264980020802,0.475596991115516
"448",8,29,2,1,208,3,2,0,1,0.90947100472802,1.23869433529907
"449",8,26,2,2,209,3,2,1,3,0.889718272686289,1.20748501867314
"450",8,40,2,1,210,1,1,1,4,0.496054449349722,0.58549617780136
"451",8,25,2,2,211,1,2,1,5,0.489153105423598,0.574592054398085
"452",8,29,2,2,212,1,2,1,5,0.44367119947944,0.502730643006315
"453",8,36,2,2,213,2,2,1,4,0.646847203008385,0.823748728582049
"454",8,24,2,1,214,1,1,1,5,0.310344862165222,0.29207503004985
"455",8,26,2,1,215,1,1,1,5,0.350085749160311,0.354865631502091
"456",8,24,2,2,216,2,2,1,4,0.688788572894213,0.890016093001656
"457",8,18,2,2,217,3,1,0,1,0.831883791819577,1.11610653890373
"458",8,29,2,2,218,1,2,1,4,0.370232265475411,0.38669712727995
"459",8,26,2,2,219,1,2,1,5,0.44597139465753,0.506364951387697
"460",8,40,2,1,220,3,1,1,2,0.754884870583915,0.994448243351385
"461",8,25,2,1,221,3,2,0,1,0.830134013725719,1.11334188951544
"462",8,29,2,2,222,3,2,1,3,0.792882722055749,1.05448484867688
"463",8,36,2,2,223,2,1,0,2,0.782709486272879,1.03841113613995
"464",8,24,2,1,224,3,2,0,2,0.804243582173378,1.07243500766274
"465",8,26,2,2,225,3,2,1,2,0.648750525323384,0.826755977839747
"466",8,24,2,2,226,3,1,0,2,1.02080584395785,1.4146033812822
"467",8,18,2,2,227,3,1,0,1,1.08794619077527,1.52068512925373
"468",8,29,2,2,228,3,2,1,2,0.883074155591711,1.1969873136637
"469",8,26,2,1,229,1,1,1,4,0.267201373863107,0.223908318532508
"470",8,40,2,2,230,1,2,1,4,0.517153923700359,0.618833347275368
"471",8,25,2,1,231,3,2,0,1,0.455068172775007,0.520737860813312
"472",8,29,2,2,232,3,1,0,2,1.28697939764584,1.83515759610922
"473",8,36,2,2,233,2,1,0,3,0.519746987257192,0.622930387695164
"474",8,24,2,2,234,3,2,1,3,1.17362731134724,1.65606129975744
"475",8,26,2,2,235,2,1,0,2,0.748763001107284,0.984775689578309
"476",8,24,2,2,236,2,2,1,4,0.474182219402259,0.550938054484369
"477",8,18,2,1,237,2,1,1,3,0.606255362385484,0.759613620397865
"478",8,29,2,1,238,1,1,1,5,0.398876476460736,0.431954980636763
"479",8,26,2,1,239,2,2,0,3,0.618727004670933,0.779318815208873
"480",8,40,2,1,240,2,1,1,3,0.699108663874083,0.90632183674985
"481",7,25,1,2,1,1,1,0,3,0.674650458103023,0.583990281955446
"482",7,21,1,2,2,2,1,0,3,0.916274799446267,0.965756741277771
"483",7,22,1,1,3,3,2,0,2,0.0624557059715228,-0.383277426412324
"484",7,38,1,2,4,3,2,1,2,0.689730641844946,0.607816972267684
"485",7,22,1,1,5,2,1,1,3,0.464209125582957,0.251492976573741
"486",7,20,1,1,6,1,1,1,5,0.284664030004402,-0.0321882744403752
"487",7,30,1,1,7,3,1,1,2,0.855944494282443,0.870434859118929
"488",7,23,1,1,8,1,2,0,3,0.623112658175899,0.50256055807059
"489",7,34,1,1,9,3,2,0,1,1.14308313534451,1.324113911997
"490",7,38,1,1,10,2,2,0,3,0.86749416466,0.888683338315469
"491",7,25,1,1,11,2,2,0,2,0.784130290381065,0.756968416954752
"492",7,21,1,2,12,1,2,1,5,0.261133739594462,-0.0693661332880811
"493",7,22,1,2,13,2,2,1,3,0.439994888125023,0.213234481390207
"494",7,38,1,1,14,2,1,1,4,0.399728115725416,0.149612980998826
"495",7,22,1,2,15,1,2,1,5,0.396950046806984,0.145223632107705
"496",7,20,1,2,16,3,2,1,2,0.554418679354026,0.394024071532031
"497",7,30,1,1,17,1,1,1,4,0.424498106377637,0.188749566229335
"498",7,23,1,2,18,1,2,1,5,0.32034541763552,0.0241883180167907
"499",7,34,1,2,19,1,2,1,4,0.333367760246219,0.044763619341696
"500",7,38,1,1,20,1,1,1,5,0.481830844069339,0.279335291782225
"501",7,25,1,1,21,2,1,1,3,0.771287089795918,0.73667616003022
"502",7,21,1,1,22,3,2,0,1,0.761564456725552,0.721314399779041
"503",7,22,1,2,23,3,2,1,2,0.653426120457971,0.550455828476265
"504",7,38,1,2,24,3,1,0,2,0.995083498678059,1.090274486064
"505",7,22,1,2,25,3,2,1,2,0.818692823341687,0.811577219032536
"506",7,20,1,2,26,2,1,0,3,0.946919376458828,1.01417517295762
"507",7,30,1,1,27,1,2,0,4,0.448100321256458,0.226041065737874
"508",7,23,1,2,28,2,1,0,2,0.611252780776858,0.483821951780105
"509",7,34,1,1,29,1,1,1,5,0.327166064690082,0.0349649403629994
"510",7,38,1,2,30,3,1,0,2,0.243958212888956,-0.0965034654827795
"511",7,25,1,2,31,1,2,1,4,0.378579470468459,0.116198121492836
"512",7,21,1,1,32,1,1,1,4,0.390083328825271,0.134374217696598
"513",7,22,1,2,33,2,2,1,3,0.556220715301603,0.396871288329202
"514",7,38,1,2,34,3,1,0,2,1.35495043382481,1.65886424359586
"515",7,22,1,1,35,2,1,1,3,0.420013607935369,0.181664058690553
"516",7,20,1,2,36,1,1,0,4,0.559307967802981,0.40174914728138
"517",7,30,1,1,37,2,2,0,2,0.79898868351116,0.780444678100302
"518",7,23,1,2,38,1,1,0,4,0.665733269855283,0.569901124524017
"519",7,34,1,2,39,1,1,0,4,0.464949646187919,0.252662999129582
"520",7,38,1,2,40,1,2,1,4,0.301217628090768,-0.0060335894639173
"521",7,25,1,2,41,3,2,1,3,0.481867424188238,0.279393088370086
"522",7,21,1,1,42,3,1,1,3,0.631571680126034,0.515925812751804
"523",7,22,1,2,43,1,1,0,3,0.581588000297861,0.43695159862329
"524",7,38,1,2,44,1,1,0,4,0.6781934354922,0.589588186230346
"525",7,22,1,2,45,1,2,1,5,0.466136158759821,0.254537688993187
"526",7,20,1,1,46,2,1,1,3,0.680896128570058,0.593858441293362
"527",7,30,1,2,47,3,2,1,3,1.13031920384238,1.30394690022363
"528",7,23,1,2,48,3,1,0,1,0.331632073766928,0.0420212347044155
"529",7,34,1,2,49,3,1,0,2,0.802556986214027,0.786082596370832
"530",7,38,1,1,50,2,1,1,4,0.732660904280798,0.675646786916331
"531",7,25,1,2,51,2,2,1,3,0.569815442830982,0.418350957825622
"532",7,21,1,2,52,1,2,1,4,0.447117046895566,0.224487492247665
"533",7,22,1,1,53,2,2,0,3,0.766982496920935,0.729874903287747
"534",7,38,1,2,54,3,2,1,2,0.635359375758455,0.521910371851029
"535",7,22,1,2,55,1,1,0,3,0.5222231689731,0.343155165130167
"536",7,20,1,1,56,1,1,1,4,0.405552329986564,0.15881523953144
"537",7,30,1,2,57,1,2,1,5,0.362950215378816,0.0915038984511998
"538",7,23,1,2,58,2,1,0,3,0.600840597358612,0.467370701979276
"539",7,34,1,2,59,2,2,1,3,0.669780585134789,0.576295882665637
"540",7,38,1,1,60,2,2,0,2,0.650495944117157,0.545826149857778
"541",7,25,1,2,61,2,2,1,3,0.47065187066312,0.2616725138004
"542",7,21,1,1,62,1,2,0,3,0.602755315886537,0.470395957253397
"543",7,22,1,2,63,2,1,0,2,0.644218599078207,0.535907944696236
"544",7,38,1,1,64,3,1,1,3,0.724633118956832,0.662962886104465
"545",7,22,1,1,65,2,2,0,2,0.726527818921799,0.665956512049112
"546",7,20,1,1,66,1,1,1,4,0.487249548960601,0.28789684551042
"547",7,30,1,1,67,3,1,1,2,0.441027905685045,0.21486664913504
"548",7,23,1,2,68,3,2,1,2,0.728108957129379,0.668454710417089
"549",7,34,1,1,69,1,1,1,5,0.338055373199081,0.0521700478072185
"550",7,38,1,2,70,1,2,1,5,0.413247615307163,0.170973790337988
"551",7,25,1,1,71,1,1,1,5,0.310339913637503,0.00837962169992412
"552",7,21,1,1,72,3,2,0,1,1.17430250186025,1.37344051109186
"553",7,22,1,2,73,1,2,1,4,0.536911185675625,0.366362231520157
"554",7,38,1,2,74,2,2,1,3,0.578497278461932,0.432068258122523
"555",7,22,1,2,75,2,2,1,3,0.571440921123179,0.420919213527293
"556",7,20,1,1,76,1,1,1,4,0.43119413492136,0.199329291328419
"557",7,30,1,2,77,2,1,0,2,0.656133979858573,0.554734246329214
"558",7,23,1,1,78,1,1,1,4,0.334798425430192,0.0470240703323738
"559",7,34,1,2,79,3,2,1,2,0.776770976406359,0.745340700874716
"560",7,38,1,1,80,2,1,1,3,0.751048551153987,0.704699268975969
"561",7,25,1,1,81,2,2,0,3,0.474077967869436,0.267085747386378
"562",7,21,1,2,82,1,2,1,4,0.242436821229565,-0.0989072643046179
"563",7,22,1,1,83,1,1,1,5,0.533781239265837,0.361416916192693
"564",7,38,1,2,84,1,2,1,5,0.325067415906203,0.0316490752844698
"565",7,22,1,1,85,1,1,1,5,0.316063226797277,0.0174224564923672
"566",7,20,1,2,86,2,1,0,2,1.04530508646229,1.16962459476309
"567",7,30,1,2,87,2,2,1,4,0.4382726225257,0.210513301743276
"568",7,23,1,1,88,3,1,1,2,0.572627658837634,0.422794259116131
"569",7,34,1,2,89,3,2,1,3,0.681595673025845,0.594963721533506
"570",7,38,1,1,90,1,1,1,5,0.354415418799224,0.0780189198554431
"571",7,25,1,2,91,2,1,0,2,0.812400831537665,0.801635871982181
"572",7,21,1,1,92,3,1,1,3,0.686359427792364,0.602490454064605
"573",7,22,1,2,93,3,1,0,2,0.15170333985423,-0.242266164877647
"574",7,38,1,1,94,1,2,0,4,0.575504864012776,0.427340243292856
"575",7,22,1,2,95,1,2,1,5,0.289951030107781,-0.0238348142770363
"576",7,20,1,2,96,3,2,1,3,0.833300312935575,0.834657052590878
"577",7,30,1,2,97,2,2,1,3,0.439216167791632,0.212004103263449
"578",7,23,1,1,98,3,1,1,3,0.742685288965402,0.691485314718004
"579",7,34,1,2,99,2,1,0,3,0.732121887935091,0.674795141090114
"580",7,38,1,2,100,1,2,1,4,0.345714503398856,0.0642714735228628
"581",7,25,1,1,101,1,2,0,3,0.305866668374236,0.00131189418396249
"582",7,21,1,1,102,3,1,1,3,0.628992525535681,0.511850748499045
"583",7,22,1,1,103,3,1,1,2,1.160340144804,1.351379986943
"584",7,38,1,1,104,2,1,1,4,0.577618402370791,0.43067963389852
"585",7,22,1,2,105,3,1,0,1,0.825178938947426,0.821825281689602
"586",7,20,1,2,106,3,2,1,3,0.881115966030917,0.910205784481518
"587",7,30,1,1,107,3,2,0,1,1.1576975838784,1.34720474068054
"588",7,23,1,1,108,1,1,1,5,0.213289473179679,-0.144960074223437
"589",7,34,1,1,109,2,2,0,2,0.804785811677614,0.7896041406033
"590",7,38,1,1,110,3,1,1,2,0.814613937065962,0.805132578716889
"591",7,25,1,1,111,1,1,1,4,0.507021624897344,0.319136725490473
"592",7,21,1,2,112,2,2,1,3,0.719321259817653,0.654570148664561
"593",7,22,1,2,113,3,2,1,2,0.644755431008049,0.536756139145387
"594",7,38,1,1,114,2,2,0,3,0.31536716050409,0.0163226717491322
"595",7,22,1,1,115,1,1,1,4,0.299399410170708,-0.00890637377761133
"596",7,20,1,1,116,2,1,1,4,0.7346051131986,0.678718637006457
"597",7,30,1,1,117,3,2,0,2,0.612609622122194,0.485965761105736
"598",7,23,1,2,118,2,2,1,3,0.735338664340817,0.679877647811161
"599",7,34,1,1,119,2,1,1,3,0.839752251022365,0.844851114768006
"600",7,38,1,1,120,3,1,1,2,0.8560930270758,0.870669540932434
"601",7,25,1,1,121,3,2,0,2,1.33874226884531,1.63325534292825
"602",7,21,1,1,122,1,2,0,3,0.651064628292485,0.546724670854796
"603",7,22,1,1,123,2,1,1,4,0.388180027359731,0.131367001381045
"604",7,38,1,2,124,3,1,0,1,1.15764177067523,1.34711655581953
"605",7,22,1,1,125,2,1,1,4,0.629401029627519,0.512496184964149
"606",7,20,1,2,126,1,2,1,5,0.477276504407721,0.27213943511687
"607",7,30,1,1,127,1,2,0,3,0.546351936927193,0.381278618497635
"608",7,23,1,1,128,2,1,1,3,0.364785447897512,0.0944035658307388
"609",7,34,1,1,129,1,1,1,4,0.454245692988195,0.235750753074018
"610",7,38,1,2,130,2,2,1,3,0.374936684750078,0.110442520057793
"611",7,25,1,2,131,2,2,1,4,0.739834532501929,0.686981119505717
"612",7,21,1,2,132,1,2,1,5,0.380024009707388,0.118480493490342
"613",7,22,1,2,133,3,1,0,1,1.38214467825374,1.70183114979358
"614",7,38,1,2,134,3,1,0,1,1.07047526756401,1.20939348090381
"615",7,22,1,1,135,3,1,1,3,0.512800764313409,0.328267765767857
"616",7,20,1,2,136,2,2,1,4,0.696111386875759,0.617898549416369
"617",7,30,1,1,137,1,1,1,5,0.48968271412239,0.291741246466046
"618",7,23,1,1,138,3,2,0,2,0.987144930095319,1.07773154770327
"619",7,34,1,2,139,3,2,1,2,1.20573078853536,1.42309720403854
"620",7,38,1,1,140,2,2,0,2,0.826040031199273,0.82318580744752
"621",7,25,1,1,141,2,2,0,2,0.748471891108322,0.700628146103819
"622",7,21,1,1,142,3,1,1,2,0.923124806547839,0.976579752498256
"623",7,22,1,2,143,2,1,0,2,0.731387101104778,0.673634177898219
"624",7,38,1,1,144,2,2,0,3,0.83001738672561,0.829470029179133
"625",7,22,1,2,145,2,1,0,2,0.917892124785743,0.968312115314144
"626",7,20,1,1,146,1,1,1,5,0.342805812726156,0.0596757422599966
"627",7,30,1,2,147,3,2,1,2,0.553106343996507,0.391950581667151
"628",7,23,1,2,148,1,2,1,4,0.397798761396958,0.146564601159863
"629",7,34,1,1,149,1,1,1,4,0.467532372394586,0.256743706536115
"630",7,38,1,1,150,1,1,1,5,0.458992494007152,0.24325069868397
"631",7,25,1,1,151,2,2,0,2,0.775673436526688,0.743606587864837
"632",7,21,1,1,152,3,1,1,3,0.777694705932389,0.746800193525845
"633",7,22,1,2,153,2,2,1,3,0.672721930905124,0.580943208982766
"634",7,38,1,2,154,1,2,1,4,0.585794896980498,0.443598495381856
"635",7,22,1,1,155,1,1,1,4,0.310507343858544,0.00864416144916869
"636",7,20,1,1,156,2,2,0,3,0.936188199598686,0.997219913518594
"637",7,30,1,2,157,3,2,1,3,0.551684646815696,0.38970430012147
"638",7,23,1,1,158,2,1,1,3,0.44122143251311,0.215172421523383
"639",7,34,1,2,159,3,2,1,2,0.819517765144173,0.812880627080463
"640",7,38,1,2,160,2,2,1,4,0.523331346602372,0.344906085784417
"641",7,25,1,2,161,3,1,0,2,0.900733816982342,0.94120198898477
"642",7,21,1,1,162,1,1,1,5,0.448456487461028,0.226603808341093
"643",7,22,1,2,163,3,1,0,2,0.80409465496503,0.788512112997418
"644",7,38,1,1,164,1,1,1,4,0.613234288962199,0.486952734712944
"645",7,22,1,2,165,1,2,1,5,0.29764857284194,-0.0116726967570648
"646",7,20,1,1,166,3,2,0,2,1.43366848873477,1.7832387703536
"647",7,30,1,2,167,2,2,1,4,0.576150143780315,0.428359785325567
"648",7,23,1,1,168,3,2,0,1,0.874867983117073,0.900333971477644
"649",7,34,1,1,169,3,2,0,1,1.44163760654005,1.79582997648594
"650",7,38,1,1,170,3,1,1,3,0.908617638291351,0.953658426653005
"651",7,25,1,1,171,1,1,1,5,0.361852744541636,0.0897698945284544
"652",7,21,1,2,172,3,1,0,2,0.424506636540621,0.188763043886852
"653",7,22,1,1,173,2,2,0,3,0.746972245551078,0.698258706123373
"654",7,38,1,2,174,3,1,0,1,0.790907927688731,0.767677083900865
"655",7,22,1,2,175,2,1,0,3,0.847881365329221,0.857695115372839
"656",7,20,1,2,176,2,1,0,2,0.496602464660703,0.30267445231658
"657",7,30,1,2,177,2,1,0,2,0.773872839237303,0.740761644147609
"658",7,23,1,2,178,2,2,1,3,0.561585492595319,0.405347636453274
"659",7,34,1,2,179,2,2,1,4,0.501607077064995,0.310581739915362
"660",7,38,1,1,180,1,1,1,4,0.196522587229628,-0.171451754024518
"661",7,25,1,1,181,3,2,0,2,0.292915676546289,-0.0191506729041929
"662",7,21,1,2,182,1,2,1,5,0.319391525878821,0.022681169041207
"663",7,22,1,1,183,2,1,1,4,0.674367438532311,0.583543111033721
"664",7,38,1,2,184,2,1,0,2,0.936611659043285,0.99788897944106
"665",7,22,1,1,185,1,1,1,4,0.391467539030302,0.136561269820547
"666",7,20,1,2,186,3,1,0,1,1.16006773691083,1.35094958247179
"667",7,30,1,2,187,2,1,0,2,0.654837927010579,0.552686482829385
"668",7,23,1,2,188,1,2,1,4,0.512468749391711,0.327743182191573
"669",7,34,1,1,189,3,2,0,1,0.473272280600756,0.265812761501865
"670",7,38,1,1,190,1,2,0,4,0.606211854036751,0.475857287530736
"671",7,25,1,2,191,2,1,0,3,0.590642534514672,0.451257762685851
"672",7,21,1,2,192,3,2,1,2,0.930677812196044,0.98851350142242
"673",7,22,1,1,193,2,1,1,3,0.682786574822486,0.596845346372197
"674",7,38,1,1,194,3,2,0,1,0.226503703503033,-0.124081590312538
"675",7,22,1,2,195,1,2,1,5,0.365526363755487,0.0955742128863399
"676",7,20,1,1,196,1,1,1,4,0.371480475153065,0.104981708894513
"677",7,30,1,2,197,3,2,1,2,1.12775052231653,1.29988838341279
"678",7,23,1,1,198,2,2,0,2,0.747477862117827,0.699057580298836
"679",7,34,1,2,199,2,2,1,3,0.614723751071252,0.489306084845248
"680",7,38,1,1,200,3,1,1,3,0.725905101322914,0.664972618242875
"681",7,25,1,2,201,3,1,0,1,0.633660479885451,0.519226116371683
"682",7,21,1,1,202,3,1,1,3,0.89629703019587,0.934191865862144
"683",7,22,1,2,203,3,2,1,3,0.748963155813985,0.701404344338766
"684",7,38,1,2,204,1,2,1,4,0.531483923845755,0.357787157828963
"685",7,22,1,1,205,1,2,0,4,0.597655789379961,0.462338705373009
"686",7,20,1,1,206,1,1,1,4,0.488658201554566,0.290122516608884
"687",7,30,1,1,207,2,2,0,3,0.636942200393932,0.524411234775082
"688",7,23,1,1,208,3,1,1,3,0.919457969538909,0.970786150024146
"689",7,34,1,2,209,1,2,1,5,0.516661407787501,0.334367582456921
"690",7,38,1,2,210,2,1,0,2,0.687427969135949,0.604178749387469
"691",7,25,1,1,211,1,1,1,5,0.438656561961984,0.211119926052604
"692",7,21,1,1,212,3,1,1,3,0.968708035275454,1.04860125388789
"693",7,22,1,2,213,3,2,1,3,0.854068094148,0.867470146906509
"694",7,38,1,1,214,1,1,1,5,0.240353673714328,-0.102198637378692
"695",7,22,1,2,215,3,2,1,2,0.792811898323255,0.770685357503412
"696",7,20,1,2,216,1,2,1,5,0.380879146255859,0.119831609236926
"697",7,30,1,1,217,2,2,0,2,0.528734860477335,0.353443637706858
"698",7,23,1,1,218,3,1,1,3,0.890035331775893,0.924298382358581
"699",7,34,1,1,219,2,2,0,3,0.766936624375546,0.729802424666033
"700",7,38,1,1,220,1,2,0,3,0.524197975138216,0.346275358871051
"701",7,25,1,2,221,3,1,0,1,1.110918590716,1.27329393148394
"702",7,21,1,1,222,3,1,1,3,0.749207974389297,0.701791157687759
"703",7,22,1,1,223,3,1,1,3,0.980711778659274,1.06756716843432
"704",7,38,1,2,224,2,1,0,2,0.59429059490441,0.457021698101637
"705",7,22,1,1,225,3,2,0,2,1.77343222443418,2.32006547275868
"706",7,20,1,2,226,2,1,0,3,0.556373821493325,0.397113196112123
"707",7,30,1,2,227,2,2,1,3,0.623012189471347,0.502401817517398
"708",7,23,1,1,228,2,1,1,3,0.529006470706386,0.35387278186876
"709",7,34,1,2,229,2,1,0,2,0.610013791861983,0.481864349294603
"710",7,38,1,1,230,2,1,1,3,0.696851548495721,0.619068004775908
"711",7,25,1,2,231,1,2,1,5,0.283877817149879,-0.0334304907505213
"712",7,21,1,1,232,1,1,1,4,0.449122940126095,0.2276568035519
"713",7,22,1,1,233,3,1,1,2,0.476340633596247,0.27066075923474
"714",7,38,1,2,234,3,2,1,3,0.725864474885561,0.664908428471856
"715",7,22,1,2,235,2,2,1,4,0.586347895398427,0.444472232882184
"716",7,20,1,2,236,1,2,1,4,0.22263760367082,-0.130190028047435
"717",7,30,1,1,237,1,1,1,4,0.428478470369383,0.195038541336295
"718",7,23,1,2,238,3,2,1,3,0.623948149865029,0.503880634939416
"719",7,34,1,2,239,1,1,0,3,0.603691098841103,0.471874494321612
"720",7,38,1,1,240,3,2,0,1,1.13581379160399,1.31262834888697
"721",6,33,2,1,1,3,1,1,3,1.03824039679244,2.07812130543727
"722",6,27,2,1,2,1,1,1,5,0.349931701345092,0.990593566630453
"723",6,18,2,2,3,1,2,1,4,0.299125265587015,0.910319398132691
"724",6,37,2,1,4,2,1,1,4,0.776161733023447,1.66403701668225
"725",6,31,2,2,5,1,2,1,5,0.290418058261035,0.896562010557643
"726",6,21,2,2,6,2,1,0,2,0.6504007374516,1.46533464367874
"727",6,38,2,1,7,2,2,0,2,0.627808517082233,1.42963893549514
"728",6,35,2,2,8,2,1,0,3,0.766796372384394,1.64923974687255
"729",6,38,2,1,9,3,2,0,2,0.995625823377756,2.01079027944206
"730",6,34,2,2,10,2,1,0,2,0.621866409004176,1.42025040473181
"731",6,33,2,2,11,2,2,1,3,0.549378812924114,1.30572000292531
"732",6,27,2,2,12,3,2,1,2,0.997157027098263,2.01320958132046
"733",6,18,2,2,13,2,2,1,3,0.461695967552611,1.16718110723833
"734",6,37,2,1,14,2,1,1,4,0.584360107268247,1.36099044798904
"735",6,31,2,2,15,3,1,0,1,0.618288381579448,1.41459712140074
"736",6,21,2,1,16,1,1,1,4,0.231353660564811,0.80324026219761
"737",6,38,2,1,17,2,2,0,3,0.458945828838854,1.1628358880706
"738",6,35,2,1,18,3,2,0,2,1.44946236398301,2.72785201359837
"739",6,38,2,2,19,3,1,0,1,0.657187823116472,1.47605823902923
"740",6,34,2,2,20,1,2,1,5,0.4815217878756,1.19850590334866
"741",6,33,2,1,21,2,2,0,2,0.638837135420905,1.44706415247024
"742",6,27,2,2,22,1,2,1,5,0.41239216485885,1.08928109898219
"743",6,18,2,1,23,2,2,0,3,0.832181525553572,1.75254828887985
"744",6,37,2,1,24,2,2,0,2,1.00923526992783,2.03229320499117
"745",6,31,2,2,25,2,2,1,3,0.582797450187622,1.35852144980165
"746",6,21,2,1,26,2,2,0,3,0.666012481759335,1.49000119968496
"747",6,38,2,2,27,3,1,0,2,0.633155392625956,1.43808699885422
"748",6,35,2,1,28,2,1,1,4,0.69198254080852,1.53103389298267
"749",6,38,2,2,29,2,2,1,4,0.480062623800568,1.19620042411011
"750",6,34,2,1,30,3,1,1,3,0.93484498034414,1.91475654744895
"751",6,33,2,2,31,3,2,1,3,0.990357638829902,2.00246654785645
"752",6,27,2,2,32,1,2,1,5,0.353269091816329,0.995866643575007
"753",6,18,2,1,33,3,1,1,3,0.736678127187188,1.60165291946096
"754",6,37,2,2,34,3,2,1,3,1.1228518563864,2.21180741159572
"755",6,31,2,2,35,1,2,1,4,0.539191112810538,1.28962343674586
"756",6,21,2,2,36,1,2,1,4,0.253242186257427,0.837824132791942
"757",6,38,2,2,37,2,1,0,2,0.630695893949033,1.43420099094468
"758",6,35,2,1,38,3,1,1,2,0.937247040574658,1.91855180261317
"759",6,38,2,2,39,3,2,1,2,0.889576788119703,1.84323280373434
"760",6,34,2,2,40,1,2,1,4,0.501043844418538,1.2293507526865
"761",6,33,2,1,41,3,1,1,2,0.649822579629056,1.46442115431912
"762",6,27,2,2,42,3,2,1,3,1.07881237415338,2.14222502966755
"763",6,18,2,1,43,2,1,1,4,0.911332880671903,1.87760742996681
"764",6,37,2,2,44,2,2,1,4,0.659858816094364,1.4802784079343
"765",6,31,2,1,45,2,2,0,2,0.77499669458995,1.66219625595733
"766",6,21,2,1,46,1,1,1,4,0.393186065291051,1.05893546166507
"767",6,38,2,2,47,3,2,1,3,0.927339781327421,1.90289833300253
"768",6,35,2,2,48,2,2,1,3,0.608425325799533,1.39901349326847
"769",6,38,2,2,49,1,1,0,3,0.538995332602547,1.28931410401723
"770",6,34,2,2,50,2,1,0,2,0.409029664241605,1.08396834800694
"771",6,33,2,2,51,1,2,1,5,0.388983271178758,1.05229504696764
"772",6,27,2,1,52,1,1,1,5,0.444918700838451,1.14067302582996
"773",6,18,2,1,53,3,2,0,2,1.20545085587611,2.34231383078947
"774",6,37,2,2,54,2,1,0,3,0.54526113418241,1.29921407051342
"775",6,31,2,2,55,3,2,1,3,0.450778661252667,1.14993176328442
"776",6,21,2,2,56,3,1,0,1,0.465365164103059,1.17297843778804
"777",6,38,2,2,57,2,2,1,3,0.583187822553,1.35913823813895
"778",6,35,2,1,58,3,2,0,1,0.556139780828632,1.31640233221445
"779",6,38,2,2,59,3,2,1,2,0.469657803139499,1.17976080746562
"780",6,34,2,1,60,1,1,1,4,0.44842055771046,1.14620595968773
"781",6,33,2,2,61,2,2,1,4,0.584656346129393,1.36145850538965
"782",6,27,2,1,62,1,2,0,4,0.709068274247987,1.55802935181703
"783",6,18,2,2,63,2,2,1,3,0.505298028107118,1.23607236291445
"784",6,37,2,1,64,1,1,1,4,0.379060582154364,1.0366171983091
"785",6,31,2,2,65,3,1,0,2,0.800299475355103,1.70217464956627
"786",6,21,2,2,66,1,2,1,4,0.423135206186609,1.10625510428005
"787",6,38,2,2,67,3,1,0,2,0.823807036126807,1.73931659558556
"788",6,35,2,1,68,1,1,1,5,0.467988863705388,1.17712388315972
"789",6,38,2,1,69,2,2,0,3,0.63907970938211,1.44744741932894
"790",6,34,2,2,70,3,1,0,1,1.25693464128644,2.42365821173778
"791",6,33,2,2,71,3,2,1,2,1.15702412410349,2.26579959458872
"792",6,27,2,1,72,3,1,1,3,0.666471712150941,1.4907267837037
"793",6,18,2,2,73,2,2,1,3,0.806674422412019,1.7122470659162
"794",6,37,2,1,74,1,1,1,4,0.505809253081548,1.23688009837405
"795",6,31,2,1,75,1,2,0,3,0.443060768727824,1.13773749309517
"796",6,21,2,2,76,1,2,1,5,0.496552547884305,1.22225450416241
"797",6,38,2,2,77,2,1,0,3,0.668160997384419,1.49339585437259
"798",6,35,2,2,78,2,1,0,3,0.443170779754518,1.13791131051735
"799",6,38,2,2,79,2,2,1,3,0.593440421266239,1.37533734410587
"800",6,34,2,2,80,3,1,0,1,1.31523444684973,2.51577190452778
"801",6,33,2,1,81,1,2,0,4,0.582431502671152,1.35794325272563
"802",6,27,2,1,82,1,2,0,3,0.63744221427708,1.44486017706299
"803",6,18,2,1,83,1,1,1,4,0.485369656688211,1.20458553607258
"804",6,37,2,1,84,3,1,1,2,0.85011707555027,1.78088645787463
"805",6,31,2,1,85,2,2,0,3,0.781171324912079,1.67195217186629
"806",6,21,2,2,86,1,2,1,4,0.445729573240984,1.14195420422596
"807",6,38,2,2,87,1,2,1,5,0.37117800006891,1.02416271861409
"808",6,35,2,2,88,3,1,0,2,0.960856287625555,1.95585441295358
"809",6,38,2,2,89,3,1,0,1,0.292780639073467,0.900294888241286
"810",6,34,2,2,90,3,1,0,2,1.188282266727,2.31518745993387
"811",6,33,2,1,91,3,1,1,2,1.08213849017359,2.14748029297948
"812",6,27,2,1,92,2,2,0,3,0.733543889199399,1.59670082344026
"813",6,18,2,1,93,1,1,1,4,0.350094413818698,0.99085065233875
"814",6,37,2,1,94,3,1,1,3,0.843284367095503,1.7700907785161
"815",6,31,2,2,95,3,1,0,1,0.981898250625864,1.98910071449407
"816",6,21,2,2,96,3,1,0,2,1.09727924361732,2.17140268342057
"817",6,38,2,1,97,1,1,1,4,0.365537056901511,1.0152500284096
"818",6,35,2,1,98,1,1,1,5,0.489617762401573,1.21129754309969
"819",6,38,2,2,99,1,2,1,5,0.359775134475616,1.00614619097668
"820",6,34,2,1,100,1,2,0,3,0.561109296111588,1.32425416636152
"821",6,33,2,1,101,3,1,1,3,0.47221238079325,1.18379704015854
"822",6,27,2,1,102,2,2,0,2,0.672338738345904,1.49999668509174
"823",6,18,2,2,103,3,1,0,2,1.20079600306021,2.33495916334034
"824",6,37,2,2,104,1,2,1,4,0.543315116450589,1.29613936249714
"825",6,31,2,2,105,2,2,1,4,0.577420393553489,1.35002570031972
"826",6,21,2,2,106,2,2,1,4,0.635798677832187,1.44226338948006
"827",6,38,2,1,107,1,1,1,4,0.417069746159717,1.09667167743756
"828",6,35,2,2,108,1,1,0,3,0.561639400455706,1.32509173122522
"829",6,38,2,1,109,2,2,0,2,0.729348259417464,1.5900717283848
"830",6,34,2,2,110,3,1,0,1,0.714177483253376,1.56610190204554
"831",6,33,2,1,111,2,1,1,3,0.44788726548984,1.14536335797915
"832",6,27,2,1,112,2,1,1,4,0.673418164440661,1.50170217832145
"833",6,18,2,1,113,3,2,0,1,1.64934168372303,3.04366133878759
"834",6,37,2,1,114,3,1,1,3,0.392204866285938,1.05738516723699
"835",6,31,2,2,115,3,2,1,3,0.858940794707269,1.79482793414269
"836",6,21,2,2,116,2,1,0,2,0.696438966985921,1.53807504634296
"837",6,38,2,1,117,1,1,1,4,0.293274487513971,0.901075168777282
"838",6,35,2,2,118,3,2,1,3,0.545859006619132,1.30015870896344
"839",6,38,2,1,119,3,2,0,1,1.12127677747221,2.2093187869113
"840",6,34,2,1,120,3,1,1,3,0.425511187682777,1.11000915504399
"841",6,33,2,1,121,2,1,1,3,0.710928132730733,1.56096792821977
"842",6,27,2,1,122,2,1,1,4,0.475165878690085,1.18846356683554
"843",6,18,2,1,123,3,2,0,2,1.48735228163522,2.78771808348885
"844",6,37,2,1,124,1,1,1,4,0.356896118082042,1.00159734507483
"845",6,31,2,2,125,2,1,0,3,0.723386031472775,1.58065140823219
"846",6,21,2,1,126,2,1,1,4,0.418143895224357,1.09836883295969
"847",6,38,2,1,127,1,1,1,5,0.360512865851039,1.00731180654985
"848",6,35,2,1,128,1,1,1,4,0.55933819738095,1.32145583036711
"849",6,38,2,1,129,2,2,0,2,0.684704246692626,1.51953418827956
"850",6,34,2,1,130,1,1,1,4,0.316824604930207,0.938284354294935
"851",6,33,2,1,131,2,1,1,4,0.761261835021647,1.64049517783941
"852",6,27,2,2,132,1,2,1,4,0.386266343777847,1.04800230167421
"853",6,18,2,2,133,1,2,1,4,0.366843375787272,1.0173140122491
"854",6,37,2,2,134,1,2,1,5,0.354114796671236,0.997202857245761
"855",6,31,2,2,135,3,2,1,3,0.498679118741025,1.22561448611603
"856",6,21,2,1,136,2,1,1,4,0.661751995290277,1.48326963106384
"857",6,38,2,1,137,3,2,0,2,0.879192271758916,1.8268252678843
"858",6,35,2,2,138,1,2,1,5,0.422699820887377,1.10556719550726
"859",6,38,2,1,139,1,1,1,5,0.433099859289096,1.12199925618198
"860",6,34,2,1,140,2,2,0,2,0.882790134872455,1.83250989160369
"861",6,33,2,1,141,2,2,0,2,0.869760265231231,1.81192269757055
"862",6,27,2,2,142,2,2,1,4,0.866527472973808,1.80681488580382
"863",6,18,2,2,143,3,1,0,1,0.16058712511662,0.691429136189467
"864",6,37,2,2,144,3,2,1,2,0.678513293068906,1.50975248155408
"865",6,31,2,2,145,2,1,0,3,0.159429622997681,0.689600282841544
"866",6,21,2,1,146,1,1,1,5,0.376815976206802,1.03307072091196
"867",6,38,2,2,147,1,2,1,5,0.350137006869499,0.990917949359017
"868",6,35,2,1,148,3,1,1,3,0.754067211469087,1.62912767262637
"869",6,38,2,2,149,3,1,0,2,0.676671860034727,1.50684301736008
"870",6,34,2,2,150,1,2,1,4,0.432303153247797,1.12074046063673
"871",6,33,2,1,151,1,1,1,5,0.453013793087476,1.15346327158342
"872",6,27,2,1,152,3,2,0,1,0.944019554973171,1.92925237536282
"873",6,18,2,2,153,1,1,0,3,0.423208963921113,1.10637164150057
"874",6,37,2,1,154,2,1,1,4,0.780763784000444,1.67130825722591
"875",6,31,2,2,155,2,1,0,2,0.581324685228717,1.35619448116658
"876",6,21,2,1,156,2,1,1,4,0.507668674795024,1.23981798468135
"877",6,38,2,1,157,1,1,1,5,0.439027595431222,1.13136507928654
"878",6,35,2,2,158,3,2,1,3,0.864302446421781,1.80329934385162
"879",6,38,2,2,159,2,1,0,3,0.8107378615465,1.71866729974868
"880",6,34,2,2,160,2,1,0,2,0.691137311925585,1.52969843134763
"881",6,33,2,2,161,3,2,1,3,0.7996202052556,1.70110140280906
"882",6,27,2,1,162,1,1,1,4,0.417680672509649,1.09763694107045
"883",6,18,2,2,163,3,2,1,3,0.975698257955844,1.97930472607544
"884",6,37,2,2,164,2,1,0,3,0.798244795832979,1.69892825592132
"885",6,31,2,1,165,1,1,1,5,0.329603463741773,0.95847495121721
"886",6,21,2,2,166,3,1,0,2,0.712793678875002,1.56391549112771
"887",6,38,2,1,167,1,1,1,5,0.414349965064145,1.09237442330656
"888",6,35,2,1,168,1,1,1,4,0.312768518418006,0.931875737605657
"889",6,38,2,2,169,3,1,0,1,0.732827019966061,1.59556817005158
"890",6,34,2,1,170,1,2,0,4,0.467298630312516,1.17603331439898
"891",6,33,2,1,171,3,2,0,1,0.67576913295173,1.50541670856894
"892",6,27,2,2,172,2,2,1,3,0.617470284522803,1.41330452805124
"893",6,18,2,1,173,1,1,1,4,0.343008015558071,0.97965414308696
"894",6,37,2,2,174,1,2,1,4,0.391116863916972,1.05566612349402
"895",6,31,2,1,175,2,2,0,2,0.658629316205074,1.47833579810923
"896",6,21,2,1,176,2,1,1,4,0.59524472588983,1.37818814541114
"897",6,38,2,2,177,3,2,1,3,1.05207526809425,2.09998040209413
"898",6,35,2,1,178,2,1,1,3,0.532528754446279,1.27909691053033
"899",6,38,2,1,179,1,2,0,4,0.514637992491172,1.25082950664126
"900",6,34,2,2,180,2,2,1,3,0.746093684418643,1.61652949988666
"901",6,33,2,2,181,2,1,0,3,0.604944374094875,1.39351358957511
"902",6,27,2,2,182,1,2,1,5,0.495908919298338,1.22123757099658
"903",6,18,2,1,183,1,1,1,5,0.327364659752822,0.954937640914666
"904",6,37,2,2,184,1,2,1,5,0.43683630015368,1.12790283274802
"905",6,31,2,1,185,3,2,0,1,1.2187755286342,2.36336681374724
"906",6,21,2,2,186,2,2,1,3,0.403893981707733,1.07585396960343
"907",6,38,2,1,187,2,1,1,4,0.566294647356747,1.33244702132887
"908",6,35,2,1,188,2,1,1,3,0.638443845338112,1.44644275413942
"909",6,38,2,1,189,2,2,0,3,0.711951467508976,1.56258479716939
"910",6,34,2,1,190,2,1,1,4,0.546289590773656,1.30083903192758
"911",6,33,2,1,191,3,1,1,2,0.972125137675919,1.97365919603316
"912",6,27,2,2,192,1,2,1,4,0.460554252624795,1.16537719765238
"913",6,18,2,2,193,3,1,0,1,1.00710841131838,2.02893276838825
"914",6,37,2,2,194,3,2,1,3,0.930263695594861,1.90751811754509
"915",6,31,2,2,195,2,1,0,3,0.658632621297003,1.47834102015447
"916",6,21,2,1,196,3,1,1,3,0.810840047859052,1.71882875412251
"917",6,38,2,2,197,3,2,1,2,0.844188328203684,1.77151903706703
"918",6,35,2,1,198,1,1,1,5,0.416744530722904,1.0961578370474
"919",6,38,2,2,199,2,2,1,3,0.42030142360304,1.10177772779801
"920",6,34,2,1,200,1,1,1,4,0.353316318298955,0.995941261417557
"921",6,33,2,1,201,2,1,1,3,0.506638009972306,1.23818953426145
"922",6,27,2,1,202,2,2,0,2,0.739870449039718,1.60669678798796
"923",6,18,2,1,203,1,1,1,5,0.405176977087846,1.077881102304
"924",6,37,2,1,204,3,2,0,2,1.28473204648538,2.46757811195211
"925",6,31,2,2,205,1,1,0,4,0.446024350459496,1.14241995223121
"926",6,21,2,1,206,3,2,0,2,0.273218897857104,0.869387337119433
"927",6,38,2,2,207,1,2,1,5,0.377755642042531,1.03455539293241
"928",6,35,2,1,208,2,1,1,4,0.594521695088792,1.3770457567455
"929",6,38,2,1,209,3,2,0,1,0.375980841692928,1.03175120838003
"930",6,34,2,2,210,1,2,1,4,0.463082377450251,1.1693716348766
"931",6,33,2,2,211,1,2,1,5,0.40802644008315,1.08238325383659
"932",6,27,2,1,212,3,1,1,2,1.21608199578592,2.35911103184696
"933",6,18,2,2,213,1,2,1,5,0.457668872477503,1.16081829701966
"934",6,37,2,2,214,2,2,1,3,0.844614287964925,1.77219205348979
"935",6,31,2,1,215,3,2,0,1,1.02171116240491,2.05200511510496
"936",6,21,2,1,216,2,1,1,4,0.554455144239287,1.31374060640328
"937",6,38,2,2,217,2,2,1,3,0.482985670376132,1.2008188376995
"938",6,35,2,2,218,3,2,1,2,0.723619326403066,1.58102001422205
"939",6,38,2,2,219,2,2,1,3,0.419324944084236,1.1002348901583
"940",6,34,2,2,220,2,2,1,3,0.555836192249387,1.31592266225924
"941",6,33,2,1,221,1,1,1,5,0.347693813110601,0.987057703219957
"942",6,27,2,1,222,1,1,1,5,0.340544436616311,0.97576168835898
"943",6,18,2,1,223,3,2,0,1,1.46010831993494,2.74467262400242
"944",6,37,2,2,224,3,2,1,3,0.847831542264908,1.77727531528376
"945",6,31,2,1,225,3,2,0,1,1.04821612890547,2.09388296217586
"946",6,21,2,1,226,1,1,1,4,0.448365496174411,1.14611896246078
"947",6,38,2,1,227,1,1,1,4,0.425494362147744,1.10998257069864
"948",6,35,2,2,228,2,1,0,3,0.875061731126681,1.82029901368536
"949",6,38,2,2,229,3,1,0,2,0.842150621754288,1.76829946087698
"950",6,34,2,2,230,3,2,1,3,0.485809799193683,1.20528096123123
"951",6,33,2,1,231,1,2,0,4,0.587274048032101,1.36559447439593
"952",6,27,2,2,232,3,2,1,2,0.661329198949467,1.48260161284537
"953",6,18,2,1,233,3,2,0,2,1.62121830900062,2.99922640672618
"954",6,37,2,2,234,3,1,0,1,0.968122001596814,1.96733424102817
"955",6,31,2,2,235,1,2,1,5,0.280825336069487,0.881405509494998
"956",6,21,2,1,236,1,2,0,4,0.669112226199599,1.49489879590057
"957",6,38,2,2,237,1,2,1,5,0.426998778348062,1.11235954829514
"958",6,35,2,1,238,2,2,0,3,0.51912187917926,1.25791404760844
"959",6,38,2,1,239,3,2,0,1,0.848783072913074,1.77877873370787
"960",6,34,2,1,240,1,1,1,5,0.327115124057836,0.954543374516588
"961",5,31,1,2,1,2,1,0,3,0.453007417594605,-0.392044964280364
"962",5,32,1,2,2,2,2,1,4,0.615512037120161,-0.135287665429986
"963",5,24,1,2,3,2,2,1,4,0.468516044606558,-0.367541333601478
"964",5,37,1,2,4,2,2,1,4,0.716352792584234,0.0240407282032491
"965",5,19,1,2,5,1,2,1,5,0.3031626253707,-0.628799735994134
"966",5,38,1,2,6,1,1,0,4,0.62924232300726,-0.11359381372837
"967",5,33,1,2,7,3,1,0,2,0.683713614819782,-0.0275291726645848
"968",5,24,1,1,8,3,1,1,3,0.880394505735528,0.283226634982294
"969",5,30,1,2,9,2,2,1,3,0.291179663727054,-0.647732815391094
"970",5,37,1,2,10,2,2,1,3,0.75183648500899,0.0801049622343637
"971",5,31,1,2,11,2,2,1,3,0.586922851132247,-0.18045857929089
"972",5,32,1,1,12,1,2,0,3,0.499462199661743,-0.318646408614287
"973",5,24,1,2,13,1,2,1,5,0.272532660256892,-0.67719508087395
"974",5,37,1,2,14,3,2,1,3,0.678454917517359,-0.0358379144024129
"975",5,19,1,1,15,3,1,1,2,0.793432244769265,0.145826262655599
"976",5,38,1,1,16,3,1,1,3,0.665894281908457,-0.0556837186644782
"977",5,33,1,2,17,3,2,1,3,0.914683491375875,0.337403232294043
"978",5,24,1,1,18,3,1,1,2,0.248789931659605,-0.714708592057664
"979",5,30,1,2,19,1,2,1,5,0.534101290565317,-0.263916644986639
"980",5,37,1,2,20,2,1,0,2,0.683320667764236,-0.0281500290123464
"981",5,31,1,2,21,3,2,1,3,1.06252199138265,0.570988062304748
"982",5,32,1,2,22,1,2,1,5,0.488267218480129,-0.336334478881236
"983",5,24,1,2,23,1,2,1,5,0.504203982930992,-0.311154391048873
"984",5,37,1,1,24,1,1,1,5,0.29780285238023,-0.637268177319077
"985",5,19,1,2,25,1,2,1,5,0.246474627136455,-0.718366773204241
"986",5,38,1,1,26,1,2,0,4,0.296127483224334,-0.639915260585392
"987",5,33,1,1,27,3,1,1,3,0.710277257330969,0.0144413825030912
"988",5,24,1,1,28,1,1,1,4,0.402578892662655,-0.471722033672846
"989",5,30,1,1,29,1,2,0,4,0.661649185982652,-0.0623909702272499
"990",5,37,1,2,30,2,2,1,3,0.57060489864789,-0.206240944216173
"991",5,31,1,1,31,3,2,0,1,1.64605947883202,1.49297729247476
"992",5,32,1,2,32,1,2,1,4,0.318330068950833,-0.604835175137523
"993",5,24,1,1,33,3,1,1,3,0.695929166204405,-0.00822860147687965
"994",5,37,1,1,34,2,1,1,4,0.498490852591887,-0.320181136984658
"995",5,19,1,2,35,2,2,1,3,0.507693011442929,-0.305641726000011
"996",5,38,1,1,36,2,2,0,2,0.567345212493142,-0.211391248340675
"997",5,33,1,1,37,3,1,1,2,1.19564791058239,0.78132701464034
"998",5,24,1,2,38,1,1,0,3,0.476580995122917,-0.354798711785631
"999",5,30,1,2,39,1,2,1,5,0.410199788332385,-0.459681018514672
"1000",5,37,1,1,40,3,1,1,3,0.902665827002397,0.318415322583947
"1001",5,31,1,1,41,2,1,1,3,0.792103871046817,0.143727432174131
"1002",5,32,1,2,42,3,1,0,1,0.703607023290633,0.00390241271936087
"1003",5,24,1,2,43,2,2,1,3,0.518902938816934,-0.287930040749084
"1004",5,37,1,2,44,2,1,0,2,0.602635540643482,-0.155632529863138
"1005",5,19,1,2,45,3,1,0,2,0.893482777213326,0.303906103917215
"1006",5,38,1,1,46,1,1,1,4,0.243446190488541,-0.723151703107945
"1007",5,33,1,2,47,2,2,1,4,0.576527617699607,-0.19688304811446
"1008",5,24,1,1,48,3,1,1,2,0.788623682320221,0.138228733986109
"1009",5,30,1,2,49,2,2,1,4,0.602124765413162,-0.156439554727044
"1010",5,37,1,1,50,1,1,1,5,0.276231423708257,-0.671351034620794
"1011",5,31,1,2,51,2,2,1,3,0.745451670606446,0.0700169554783454
"1012",5,32,1,2,52,3,2,1,2,0.873351830472918,0.27209920806737
"1013",5,24,1,1,53,3,2,0,1,1.33765652533451,1.00570062594869
"1014",5,37,1,2,54,3,2,1,3,0.941288282416913,0.379438802138882
"1015",5,19,1,2,55,1,2,1,4,0.510607751715549,-0.301036436369273
"1016",5,38,1,2,56,2,1,0,2,0.89485223999122,0.306069855106288
"1017",5,33,1,2,57,3,2,1,2,1.08778281149666,0.610900158084882
"1018",5,24,1,2,58,3,1,0,2,1.05012319100503,0.551397957708107
"1019",5,30,1,1,59,3,1,1,3,0.639553204221574,-0.0973026214097533
"1020",5,37,1,2,60,1,2,1,4,0.500051104916561,-0.317715938311673
"1021",5,31,1,1,61,1,1,1,4,0.517701137838306,-0.289828886295317
"1022",5,32,1,2,62,2,2,1,3,0.560922187842661,-0.221539627288435
"1023",5,24,1,2,63,1,2,1,5,0.381695899554554,-0.504717162783645
"1024",5,37,1,1,64,2,1,1,4,0.75657475747406,0.087591432729175
"1025",5,19,1,2,65,1,2,1,4,0.372026061578258,-0.519995506786193
"1026",5,38,1,2,66,1,2,1,5,0.38586464893245,-0.498130538766569
"1027",5,33,1,1,67,2,1,1,4,0.540831546895048,-0.253282839985663
"1028",5,24,1,2,68,3,1,0,1,1.23558030507569,0.844420197939756
"1029",5,30,1,1,69,3,1,1,3,0.846245034408336,0.229270470285332
"1030",5,37,1,1,70,3,2,0,2,0.606703586388162,-0.149205017586544
"1031",5,31,1,1,71,3,1,1,3,0.957752078036014,0.405451599217062
"1032",5,32,1,2,72,2,1,0,2,0.777976324799986,0.121405909104138
"1033",5,24,1,1,73,1,1,1,5,0.447149211916497,-0.401300929251775
"1034",5,37,1,1,74,3,2,0,2,1.52817269543202,1.30671617470275
"1035",5,19,1,1,75,3,1,1,2,0.57799849231002,-0.194559066230008
"1036",5,38,1,1,76,1,1,1,4,0.300855775459977,-0.632444558853076
"1037",5,33,1,2,77,3,2,1,2,0.724017539384578,0.0361510281477941
"1038",5,24,1,1,78,1,1,1,5,0.329470688910858,-0.587232995600684
"1039",5,30,1,2,79,1,1,0,4,0.594172509966116,-0.169004118333377
"1040",5,37,1,1,80,2,2,0,3,0.703511634149873,0.0037516978769595
"1041",5,31,1,2,81,1,2,1,5,0.432630249805049,-0.424240889387863
"1042",5,32,1,1,82,3,2,0,1,1.21218983819761,0.807463260272378
"1043",5,24,1,1,83,2,2,0,2,0.746308299861437,0.0713704297012309
"1044",5,37,1,2,84,3,1,0,1,0.983889764422634,0.446749143707921
"1045",5,19,1,2,85,2,2,1,3,0.689711364268613,-0.0180527285354306
"1046",5,38,1,1,86,1,1,1,5,0.43898337688891,-0.414202948595362
"1047",5,33,1,1,87,2,2,0,3,0.562076273174443,-0.21971617246422
"1048",5,24,1,2,88,3,2,1,3,0.580519259336781,-0.190576254327726
"1049",5,30,1,1,89,2,1,1,4,0.401209720603638,-0.473885325526092
"1050",5,37,1,1,90,2,1,1,3,0.748258499462617,0.0744517450710944
"1051",5,31,1,1,91,2,2,0,2,0.698514866876269,-0.00414319441533428
"1052",5,32,1,1,92,2,2,0,3,0.798811058665075,0.154324788610978
"1053",5,24,1,1,93,3,1,1,3,0.973068612901538,0.429651724304591
"1054",5,37,1,2,94,3,2,1,3,0.697694769085012,-0.0054389489255201
"1055",5,19,1,2,95,1,2,1,4,0.353199763777235,-0.549741057311809
"1056",5,38,1,2,96,3,1,0,1,1.12956988410326,0.676923732803311
"1057",5,33,1,1,97,1,1,1,4,0.527892091900163,-0.273727178877583
"1058",5,24,1,1,98,1,1,1,4,0.398260059693893,-0.478545789763488
"1059",5,30,1,1,99,1,2,0,3,0.512697042672339,-0.297735356657545
"1060",5,37,1,1,100,3,1,1,2,0.681973834143873,-0.0302780261325203
"1061",5,31,1,1,101,1,1,1,4,0.534463264927475,-0.26334472549443
"1062",5,32,1,1,102,2,2,0,3,1.00733659732623,0.483795139695611
"1063",5,24,1,2,103,1,2,1,4,0.272320733319638,-0.677529925434812
"1064",5,37,1,2,104,1,2,1,4,0.504845030133099,-0.310141536469543
"1065",5,19,1,2,105,1,2,1,5,0.376931037296066,-0.512245645152055
"1066",5,38,1,1,106,3,1,1,3,0.811993908949612,0.175153692060548
"1067",5,33,1,1,107,2,1,1,4,0.737391652303238,0.0572821265592758
"1068",5,24,1,1,108,3,2,0,2,1.39649278484908,1.0986619159817
"1069",5,30,1,1,109,1,1,1,5,0.299298995612781,-0.634904271011646
"1070",5,37,1,2,110,1,2,1,5,0.479075175922228,-0.35085790612272
"1071",5,31,1,2,111,3,2,1,3,0.720929756702798,0.0312723315105813
"1072",5,32,1,1,112,2,1,1,4,0.526957129481977,-0.275204419498317
"1073",5,24,1,2,113,2,2,1,4,0.515699251626578,-0.292991866509847
"1074",5,37,1,2,114,1,1,0,4,0.454829321701694,-0.389166355791163
"1075",5,19,1,2,115,1,2,1,4,0.306307756026748,-0.623830429557578
"1076",5,38,1,1,116,2,2,0,2,0.818298772420395,0.185115376344384
"1077",5,33,1,1,117,2,1,1,3,0.601256261074197,-0.157811791582609
"1078",5,24,1,1,118,2,2,0,2,0.486916883373757,-0.338468008349304
"1079",5,30,1,2,119,2,1,0,3,0.835124463630216,0.211699968455901
"1080",5,37,1,2,120,3,1,0,2,1.01694029240889,0.498968977926209
"1081",5,31,1,1,121,2,2,0,3,0.521906726134632,-0.283184056787122
"1082",5,32,1,2,122,1,2,1,5,0.441098396791266,-0.410861217149639
"1083",5,24,1,2,123,2,1,0,2,0.968293429978257,0.422106935285807
"1084",5,37,1,2,124,1,1,0,4,0.652613922366401,-0.0766666867409258
"1085",5,19,1,2,125,1,2,1,4,0.593855482368004,-0.169505021938394
"1086",5,38,1,1,126,2,1,1,4,0.369518319616391,-0.523957739085942
"1087",5,33,1,1,127,3,1,1,3,0.734552121475569,0.0527956678515586
"1088",5,24,1,1,128,3,1,1,3,1.06563168395482,0.57590137656878
"1089",5,30,1,1,129,3,2,0,2,0.97091526694006,0.426249437685455
"1090",5,37,1,1,130,3,2,0,1,0.553907388894931,-0.23262300962585
"1091",5,31,1,2,131,2,2,1,3,0.589687277741711,-0.176090785247937
"1092",5,32,1,2,132,2,1,0,2,0.662948899893924,-0.0603374222474407
"1093",5,24,1,2,133,2,2,1,3,0.707166320356499,0.00952610208342775
"1094",5,37,1,2,134,1,2,1,4,0.487696609222044,-0.33723604150901
"1095",5,19,1,2,135,3,2,1,2,0.682759464516478,-0.029036730143804
"1096",5,38,1,2,136,3,1,0,2,1.33275836589485,0.997961534034017
"1097",5,33,1,1,137,2,1,1,4,0.585808058583846,-0.182219951517363
"1098",5,24,1,2,138,3,2,1,2,0.658259748843853,-0.0677462809065519
"1099",5,30,1,1,139,3,1,1,2,0.66981835000772,-0.0494836910676424
"1100",5,37,1,1,140,1,1,1,5,0.508511175431446,-0.304349026898155
"1101",5,31,1,1,141,2,2,0,2,0.827154504058315,0.199107432332298
"1102",5,32,1,1,142,3,1,1,3,0.767746457223606,0.105242718333458
"1103",5,24,1,1,143,3,2,0,2,0.868487347149308,0.264413324416067
"1104",5,37,1,1,144,2,2,0,2,0.700041474579912,-0.00173115424357873
"1105",5,19,1,2,145,2,1,0,3,0.960442359994863,0.409702244712044
"1106",5,38,1,1,146,2,1,1,3,0.655560655052104,-0.072010849097515
"1107",5,33,1,2,147,1,2,1,5,0.47867850161803,-0.351484651523352
"1108",5,24,1,1,148,2,2,0,3,0.625221561332575,-0.119946617174371
"1109",5,30,1,1,149,2,1,1,3,0.699242681852156,-0.00299324675343304
"1110",5,37,1,2,150,3,1,0,1,0.976368131562776,0.434864963789347
"1111",5,31,1,1,151,2,1,1,3,0.684723350955352,-0.0259337895703845
"1112",5,32,1,2,152,1,1,0,4,0.407921839799676,-0.463280177196352
"1113",5,24,1,2,153,2,2,1,4,0.578276458102528,-0.194119880277846
"1114",5,37,1,2,154,2,2,1,4,0.513437952251278,-0.296564719522821
"1115",5,19,1,2,155,3,1,0,1,0.904733862307668,0.321682818366276
"1116",5,38,1,2,156,2,1,0,3,0.563329454264778,-0.217736146341491
"1117",5,33,1,1,157,2,2,0,3,0.661244931894339,-0.0630296916867836
"1118",5,24,1,1,158,1,2,0,3,0.505205688381232,-0.309571696437493
"1119",5,30,1,1,159,1,1,1,5,0.520140994638072,-0.285973912551687
"1120",5,37,1,1,160,1,1,1,4,0.543037475796815,-0.249797472320872
"1121",5,31,1,2,161,3,1,0,1,0.940839912199281,0.378730377195025
"1122",5,32,1,2,162,3,1,0,1,1.02974122268356,0.519194447760184
"1123",5,24,1,2,163,1,2,1,5,0.23825760171526,-0.731349673369728
"1124",5,37,1,1,164,3,1,1,3,0.827297877190229,0.199333961880722
"1125",5,19,1,1,165,3,2,0,2,1.22891361045038,0.833886820431761
"1126",5,38,1,1,166,2,2,0,2,1.00718503839718,0.48355567658771
"1127",5,33,1,1,167,2,2,0,2,1.02378981212802,0.509791219082427
"1128",5,24,1,2,168,1,2,1,4,0.444351488679223,-0.405721331966667
"1129",5,30,1,2,169,3,1,0,1,0.995848477549638,0.465643910448588
"1130",5,37,1,2,170,1,2,1,5,0.418921946458027,-0.445900008676158
"1131",5,31,1,2,171,2,2,1,3,0.76184866860444,0.0959242123151746
"1132",5,32,1,1,172,1,1,1,4,0.265484396879018,-0.688331337010991
"1133",5,24,1,2,173,1,2,1,5,0.141660642044619,-0.883972869649342
"1134",5,37,1,1,174,2,2,0,3,0.573520960540417,-0.20163356642598
"1135",5,19,1,1,175,1,1,1,4,0.3158980345438,-0.608677789500635
"1136",5,38,1,1,176,3,1,1,3,1.10823798321468,0.643219329399347
"1137",5,33,1,1,177,3,1,1,3,0.756490603601633,0.0874584696107404
"1138",5,24,1,1,178,1,1,1,5,0.487774562005156,-0.337112876111694
"1139",5,30,1,1,179,2,2,0,3,0.910173807338226,0.330277931514557
"1140",5,37,1,1,180,1,2,0,3,0.63354955089375,-0.106788393667715
"1141",5,31,1,1,181,1,1,1,4,0.369661854542688,-0.523730953902393
"1142",5,32,1,2,182,2,2,1,3,0.422099894040261,-0.440878851496227
"1143",5,24,1,2,183,2,1,0,2,0.944555314537308,0.384600712889107
"1144",5,37,1,1,184,2,1,1,4,0.529559020059364,-0.271093432386044
"1145",5,19,1,1,185,2,2,0,2,0.877170778620036,0.278133146139816
"1146",5,38,1,2,186,2,2,1,3,0.788694836838262,0.138341158124614
"1147",5,33,1,1,187,3,2,0,1,1.77029231422012,1.68926517238795
"1148",5,24,1,1,188,1,1,1,5,0.419341713493393,-0.445236776760279
"1149",5,30,1,2,189,3,2,1,3,0.815444919968383,0.180606289470205
"1150",5,37,1,2,190,2,2,1,4,0.607051516673495,-0.148655287735718
"1151",5,31,1,2,191,3,2,1,2,0.814224536180334,0.178678083085088
"1152",5,32,1,1,192,3,2,0,1,-0.0519645231242893,-1.18990063061622
"1153",5,24,1,2,193,2,1,0,3,0.565179926265813,-0.214812400579856
"1154",5,37,1,2,194,1,1,0,4,0.464570573810851,-0.373775177458696
"1155",5,19,1,1,195,3,1,1,3,0.674229853909647,-0.042513514902597
"1156",5,38,1,1,196,1,1,1,5,0.472382643329509,-0.361432107619215
"1157",5,33,1,1,197,2,2,0,2,0.622261732296996,-0.124623147050586
"1158",5,24,1,2,198,1,2,1,4,0.550489284421345,-0.238023614694114
"1159",5,30,1,2,199,3,1,0,1,1.49279923686823,1.25082611017197
"1160",5,37,1,2,200,1,1,0,3,0.42324183113988,-0.439074590878829
"1161",5,31,1,2,201,1,2,1,4,0.38839427632173,-0.494133727491507
"1162",5,32,1,2,202,1,2,1,5,0.259142222502092,-0.698351972526535
"1163",5,24,1,1,203,1,1,1,5,0.401143142159168,-0.473990519468354
"1164",5,37,1,1,204,1,2,0,3,0.419530445378847,-0.444938580381261
"1165",5,19,1,2,205,3,1,0,2,0.286115426728246,-0.655734309849212
"1166",5,38,1,1,206,3,2,0,1,0.248139773273486,-0.715735842307732
"1167",5,33,1,2,207,3,1,0,2,0.282635505595719,-0.661232585238604
"1168",5,24,1,2,208,3,2,1,3,0.797062318524358,0.151561779188645
"1169",5,30,1,2,209,2,2,1,3,0.478064738455978,-0.352454397319395
"1170",5,37,1,1,210,1,1,1,4,0.282437521800447,-0.661545399635134
"1171",5,31,1,1,211,2,2,0,3,0.531641299364223,-0.267803431084367
"1172",5,32,1,2,212,1,2,1,5,0.307192980553586,-0.622431774805174
"1173",5,24,1,2,213,2,1,0,3,0.699573367032444,-0.00247076416857839
"1174",5,37,1,2,214,1,1,0,4,0.65098251385063,-0.079244312195844
"1175",5,19,1,1,215,2,1,1,3,0.545848986102501,-0.245355286037889
"1176",5,38,1,1,216,3,1,1,3,0.698598203022506,-0.00401152330428067
"1177",5,33,1,1,217,2,1,1,3,0.555773276235561,-0.229674907627653
"1178",5,24,1,1,218,3,1,1,2,0.76033888701009,0.093538757396102
"1179",5,30,1,1,219,2,1,1,4,0.686453420437564,-0.0232002797884887
"1180",5,37,1,1,220,1,1,1,4,0.429302339761391,-0.429498987256842
"1181",5,31,1,2,221,1,2,1,5,0.39078977738633,-0.490348835809439
"1182",5,32,1,1,222,2,2,0,2,0.814479551403532,0.17908100713774
"1183",5,24,1,1,223,2,1,1,4,0.856626289301528,0.245672853016574
"1184",5,37,1,2,224,3,1,0,1,1.17557624486907,0.749613782813283
"1185",5,19,1,1,225,3,2,0,1,1.01981747608428,0.503514928133328
"1186",5,38,1,1,226,3,2,0,1,1.75349836780281,1.6627307370486
"1187",5,33,1,2,227,1,2,1,5,0.408446295787234,-0.462451536736011
"1188",5,24,1,1,228,2,1,1,3,0.447918897061203,-0.40008482672314
"1189",5,30,1,2,229,1,2,1,5,0.409035615916775,-0.461520410931335
"1190",5,37,1,1,230,3,1,1,2,1.05467312875007,0.558586859345268
"1191",5,31,1,2,231,1,2,1,4,0.235079048253511,-0.736371787839292
"1192",5,32,1,1,232,1,1,1,5,0.44345489114016,-0.407137956078388
"1193",5,24,1,2,233,1,2,1,5,0.389522444814802,-0.492351221272452
"1194",5,37,1,1,234,3,2,0,1,1.06097792154508,0.56854843196139
"1195",5,19,1,1,235,3,2,0,2,0.906995771785513,0.325256635341271
"1196",5,38,1,1,236,3,2,0,1,1.21468133373556,0.811399823222348
"1197",5,33,1,2,237,1,2,1,5,0.467844256749701,-0.368602758415312
"1198",5,24,1,2,238,3,1,0,2,1.21573903903914,0.813070997602006
"1199",5,30,1,2,239,2,2,1,4,0.477062168116997,-0.354038458454984
"1200",5,37,1,2,240,3,2,1,2,0.68009078213779,-0.0332532483021322
"1201",4,23,2,1,1,1,1,1,5,0.493059492341796,0.493726688691947
"1202",4,33,2,2,2,2,2,1,3,0.508186495220846,0.517627353240846
"1203",4,32,2,1,3,3,2,0,2,1.09907422160386,1.45122996092601
"1204",4,19,2,2,4,2,2,1,4,0.641546990021829,0.728336935026399
"1205",4,23,2,2,5,1,2,1,5,0.400291167808732,0.347152735929707
"1206",4,36,2,1,6,2,2,0,2,0.78613241756159,0.956781910539221
"1207",4,22,2,2,7,1,1,0,3,0.603933555524593,0.668907708520767
"1208",4,39,2,2,8,3,2,1,3,0.785700173341339,0.956098964671225
"1209",4,24,2,2,9,1,2,1,5,0.518701588664621,0.53424120088201
"1210",4,18,2,2,10,1,2,1,4,0.483270925811658,0.478260753574329
"1211",4,23,2,1,11,2,1,1,3,0.502232076550323,0.508219371741419
"1212",4,33,2,1,12,1,1,1,5,0.450338531020307,0.426227569803995
"1213",4,32,2,2,13,1,2,1,4,0.359020147283582,0.28194452349997
"1214",4,19,2,2,14,3,1,0,2,1.19019516953236,1.59520105865304
"1215",4,23,2,2,15,2,2,1,4,0.41890378592393,0.376560672551718
"1216",4,36,2,2,16,3,1,0,1,0.40217651654556,0.350131586933894
"1217",4,22,2,2,17,3,2,1,2,0.516735701791263,0.531135099622105
"1218",4,39,2,2,18,2,2,1,3,0.605880598077586,0.671984035754496
"1219",4,24,2,1,19,2,2,0,2,0.612726290975285,0.682800230532859
"1220",4,18,2,1,20,2,2,0,2,0.731863290613291,0.871036689960909
"1221",4,23,2,2,21,1,2,1,5,0.357266768919558,0.279174185684811
"1222",4,33,2,2,22,2,2,1,4,0.689941719568779,0.80480060771058
"1223",4,32,2,1,23,3,1,1,2,0.679002627078985,0.787516841576706
"1224",4,19,2,1,24,1,1,1,4,0.308161245582246,0.201587458811858
"1225",4,23,2,1,25,3,1,1,3,0.939725964724026,1.19945971505587
"1226",4,36,2,2,26,3,1,0,1,1.06892862375964,1.40359991633214
"1227",4,22,2,1,27,1,1,1,5,0.50812087801479,0.517523678055278
"1228",4,39,2,1,28,3,2,0,2,1.03893272255093,1.35620639242238
"1229",4,24,2,1,29,3,1,1,2,1.03496571441792,1.34993851957222
"1230",4,18,2,1,30,2,2,0,2,0.510535554006608,0.521338866122351
"1231",4,23,2,1,31,2,2,0,3,0.609053735414593,0.676997592746967
"1232",4,33,2,2,32,2,1,0,2,0.907089848814579,1.14789465191894
"1233",4,32,2,1,33,1,1,1,4,0.434343178888927,0.400954913436414
"1234",4,19,2,2,34,2,2,1,4,0.73650864739854,0.878376353681602
"1235",4,23,2,1,35,3,1,1,2,0.619684261014196,0.693793823194339
"1236",4,36,2,1,36,1,1,1,4,0.384352093136771,0.321968997948007
"1237",4,22,2,2,37,1,2,1,4,0.406550540985545,0.357042545549071
"1238",4,39,2,2,38,3,1,0,1,1.257440299831,1.70144836452488
"1239",4,24,2,1,39,1,1,1,5,0.377676502223165,0.31142156430451
"1240",4,18,2,1,40,3,1,1,2,1.16874897815793,1.56131607628144
"1241",4,23,2,2,41,3,1,0,1,0.703646653378025,0.826454403129189
"1242",4,33,2,2,42,3,2,1,2,0.861390804517252,1.07569016192917
"1243",4,32,2,2,43,2,2,1,4,0.4185329734219,0.375974788798512
"1244",4,19,2,1,44,3,2,0,1,1.28813364557597,1.74994385080194
"1245",4,23,2,1,45,1,1,1,4,0.455189357964039,0.433891876375091
"1246",4,36,2,1,46,1,2,0,3,0.547913448000562,0.580395938632798
"1247",4,22,2,1,47,2,2,0,3,0.528336240452268,0.549463950706492
"1248",4,39,2,1,48,3,1,1,2,0.643372427036263,0.731221125509205
"1249",4,24,2,1,49,1,1,1,4,0.418109215522329,0.375305251317189
"1250",4,18,2,2,50,2,1,0,3,0.65615891661251,0.751423779039676
"1251",4,23,2,1,51,3,2,0,1,1.09691663077072,1.44782096740965
"1252",4,33,2,1,52,1,1,1,4,0.468090256828403,0.454275296580787
"1253",4,32,2,2,53,1,2,1,4,0.328566681128091,0.233828046974294
"1254",4,19,2,1,54,1,1,1,4,0.437113708278437,0.405332349871841
"1255",4,23,2,2,55,2,2,1,3,0.447605335198972,0.421909120406285
"1256",4,36,2,2,56,2,1,0,3,0.778194950945166,0.944240713285273
"1257",4,22,2,2,57,3,1,0,2,0.830127399032492,1.02629398126325
"1258",4,39,2,2,58,2,1,0,3,0.85260925265047,1.06181530997965
"1259",4,24,2,1,59,2,2,0,3,0.960342209634626,1.23203338201462
"1260",4,18,2,2,60,1,2,1,5,0.464468044280097,0.448552200754462
"1261",4,23,2,2,61,1,2,1,4,0.416255146370529,0.372375822057345
"1262",4,33,2,1,62,3,2,0,2,1.28105690985566,1.73876260836385
"1263",4,32,2,2,63,3,2,1,3,0.722821908872166,0.856751306809932
"1264",4,19,2,2,64,3,1,0,1,0.735291423560101,0.876453140016869
"1265",4,23,2,2,65,1,2,1,4,0.44539641329608,0.418419023799715
"1266",4,36,2,1,66,3,2,0,2,1.49065403622773,2.06992606803172
"1267",4,22,2,1,67,2,2,0,3,0.764230100880609,0.922176250183271
"1268",4,39,2,2,68,3,1,0,1,0.86766375902215,1.08560143004691
"1269",4,24,2,1,69,1,1,1,5,0.429500980126736,0.393304239392153
"1270",4,18,2,2,70,1,2,1,5,0.426484532949475,0.38853825285208
"1271",4,23,2,1,71,3,1,1,2,0.894954516368553,1.12872082665422
"1272",4,33,2,1,72,2,1,1,3,0.63655690121233,0.72045259470739
"1273",4,32,2,2,73,1,2,1,5,0.297083894226456,0.18408524366971
"1274",4,19,2,2,74,2,2,1,3,0.546218983241007,0.577718684312701
"1275",4,23,2,2,75,3,2,1,3,0.819553247571662,1.00958682195514
"1276",4,36,2,2,76,2,1,0,2,0.788943807953898,0.961223907359069
"1277",4,22,2,2,77,3,2,1,3,0.703037688927713,0.825492239297696
"1278",4,39,2,1,78,2,1,1,4,0.52959835376312,0.55145808973764
"1279",4,24,2,2,79,2,2,1,4,0.607846741046853,0.675090541645937
"1280",4,18,2,1,80,2,2,0,3,0.781378016103843,0.949269956235982
"1281",4,23,2,2,81,3,2,1,2,0.724598655137244,0.859558565908755
"1282",4,33,2,1,82,1,2,0,4,0.63103301945531,0.711724861531299
"1283",4,32,2,2,83,3,1,0,1,0.865360702847624,1.08196260129116
"1284",4,19,2,2,84,2,2,1,4,0.482495276582385,0.477035227792079
"1285",4,23,2,2,85,3,2,1,3,1.12069305814603,1.48538772266264
"1286",4,36,2,2,86,3,2,1,3,0.652938694292451,0.746335827773983
"1287",4,22,2,1,87,1,1,1,5,0.484042217157347,0.479479393900517
"1288",4,39,2,1,88,3,2,0,1,0.908912358221723,1.15077421678223
"1289",4,24,2,1,89,1,2,0,3,0.705728163059789,0.829743188426376
"1290",4,18,2,1,90,2,2,0,2,0.710951708658909,0.837996390472987
"1291",4,23,2,2,91,3,1,0,1,0.932880809545341,1.18864436987355
"1292",4,33,2,2,92,1,1,0,3,0.585276848155333,0.639430110877335
"1293",4,32,2,1,93,2,2,0,2,0.714668769708262,0.843869346930963
"1294",4,19,2,2,94,1,2,1,5,0.403236711096532,0.35180669432443
"1295",4,23,2,1,95,1,2,0,4,0.570331696743496,0.615816771646634
"1296",4,36,2,1,96,3,2,0,1,0.844578118777999,1.04912611846115
"1297",4,22,2,2,97,2,2,1,4,0.565102758592696,0.607555049368369
"1298",4,39,2,2,98,3,2,1,2,0.874843086470974,1.09694476741605
"1299",4,24,2,1,99,3,1,1,2,0.548772813965618,0.581753736857586
"1300",4,18,2,1,100,2,1,1,4,0.699597702664625,0.820057061002016
"1301",4,23,2,1,101,3,1,1,3,0.86718609042508,1.08484671366354
"1302",4,33,2,1,102,1,1,1,5,0.294682939629946,0.180291735407224
"1303",4,32,2,1,103,1,1,1,5,0.345670266193498,0.260851711377637
"1304",4,19,2,2,104,2,2,1,3,0.541712691398525,0.57059874320158
"1305",4,23,2,2,105,1,2,1,4,0.376750108826039,0.309957862737051
"1306",4,36,2,2,106,3,1,0,1,1.17092429971094,1.5647530843352
"1307",4,22,2,1,107,3,1,1,3,1.14757411676463,1.52785979528003
"1308",4,39,2,2,108,1,2,1,5,0.385196545186964,0.323303232187312
"1309",4,24,2,1,109,1,1,1,4,0.28686220620728,0.167934976599412
"1310",4,18,2,2,110,3,1,0,2,1.55963690048573,2.17891899355937
"1311",4,23,2,2,111,2,2,1,3,0.653820757000878,0.747729486853296
"1312",4,33,2,2,112,2,2,1,4,0.638170023353393,0.723001327690271
"1313",4,32,2,1,113,3,1,1,2,1.05364191418261,1.37944691520044
"1314",4,19,2,2,114,1,2,1,5,0.387238811868593,0.326530013544287
"1315",4,23,2,2,115,3,2,1,3,0.617048883193952,0.689629926238354
"1316",4,36,2,1,116,3,1,1,3,0.559543533429837,0.598771473611052
"1317",4,22,2,2,117,3,2,1,3,0.983766266199238,1.26904339138671
"1318",4,39,2,2,118,3,2,1,2,0.860155211800376,1.0737379254365
"1319",4,24,2,2,119,3,1,0,1,1.50589808549094,2.09401166586759
"1320",4,18,2,1,120,1,1,1,4,0.458069088675148,0.438441850898644
"1321",4,23,2,1,121,1,1,1,5,0.239333730284652,0.0928399846416591
"1322",4,33,2,1,122,1,1,1,5,0.397297963946282,0.342423473827035
"1323",4,32,2,2,123,2,2,1,4,0.79768253909286,0.975031102558629
"1324",4,19,2,2,124,2,2,1,3,0.610136321663396,0.678708079020076
"1325",4,23,2,1,125,1,1,1,4,0.307409273798329,0.20039934339327
"1326",4,36,2,1,126,1,1,1,4,0.384507844502957,0.322215085106582
"1327",4,22,2,1,127,1,1,1,5,0.370614430122024,0.300263490384708
"1328",4,39,2,1,128,1,1,1,4,0.394364080818131,0.337787938484557
"1329",4,24,2,1,129,1,2,0,4,0.604766476292415,0.670223723333925
"1330",4,18,2,1,130,2,1,1,4,0.59038912774789,0.647507512633576
"1331",4,23,2,2,131,2,2,1,4,0.85223308966151,1.06122097245709
"1332",4,33,2,2,132,1,2,1,5,0.390213910945422,0.331230670085677
"1333",4,32,2,2,133,3,1,0,1,1.29815228478199,1.76577330074745
"1334",4,19,2,2,134,2,1,0,2,0.53057493107361,0.553001081888213
"1335",4,23,2,1,135,2,2,0,2,0.874125817027124,1.09581148169477
"1336",4,36,2,1,136,2,1,1,3,0.386792482711055,0.325824813475377
"1337",4,22,2,1,137,2,2,0,2,0.623032602634279,0.699084202954071
"1338",4,39,2,1,138,2,1,1,3,0.758708099140172,0.913451487433381
"1339",4,24,2,2,139,3,2,1,3,1.14952962836823,1.53094950361372
"1340",4,18,2,1,140,2,1,1,4,0.590062935863335,0.646992129455978
"1341",4,23,2,1,141,1,1,1,5,0.495252592491944,0.497191786929181
"1342",4,33,2,1,142,2,2,0,3,0.715584478553918,0.845316166907099
"1343",4,32,2,2,143,1,2,1,5,0.369429974078904,0.298392049836578
"1344",4,19,2,1,144,3,2,0,2,1.39813959645861,1.92375325319651
"1345",4,23,2,1,145,2,1,1,3,0.447783291567479,0.422190291468526
"1346",4,36,2,2,146,2,1,0,3,0.650233602403229,0.742061782589012
"1347",4,22,2,2,147,2,2,1,4,0.475199493307558,0.465507890217852
"1348",4,39,2,1,148,2,1,1,4,0.76675577319161,0.926166812434653
"1349",4,24,2,1,149,3,2,0,1,0.523577937100125,0.541945831410107
"1350",4,18,2,1,150,1,2,0,3,0.541970467561438,0.571006029538982
"1351",4,23,2,1,151,1,1,1,4,0.460824221490738,0.442794960747276
"1352",4,33,2,2,152,1,2,1,4,0.213849077507494,0.0525742332537506
"1353",4,32,2,2,153,2,1,0,3,0.831593535854761,1.02861047744243
"1354",4,19,2,1,154,1,1,1,4,0.349045668366253,0.266184846810589
"1355",4,23,2,1,155,3,2,0,1,1.3614341032861,1.86575857398395
"1356",4,36,2,1,156,3,2,0,1,1.10250397389565,1.45664896954704
"1357",4,22,2,2,157,1,2,1,5,0.415918627297235,0.371844121921542
"1358",4,39,2,1,158,1,1,1,5,0.304437367326916,0.195703731168437
"1359",4,24,2,1,159,1,2,0,4,0.550279133423089,0.58413372160039
"1360",4,18,2,1,160,3,1,1,3,0.854822184929961,1.06531174298125
"1361",4,23,2,2,161,3,1,0,2,0.952624102216871,1.21983877229456
"1362",4,33,2,1,162,3,1,1,3,0.557981880620452,0.596304062172224
"1363",4,32,2,2,163,2,2,1,3,0.717222128923915,0.847903654491696
"1364",4,19,2,1,164,3,1,1,3,0.754836707422732,0.907334688519827
"1365",4,23,2,1,165,2,1,1,3,0.498871923634617,0.502910330134604
"1366",4,36,2,1,166,2,2,0,2,0.647271346276361,0.73738141790856
"1367",4,22,2,1,167,1,2,0,4,0.59609684253768,0.656525702001444
"1368",4,39,2,2,168,3,1,0,2,1.38230221290322,1.89873018717899
"1369",4,24,2,1,169,1,2,0,4,0.347842578316282,0.264283964531635
"1370",4,18,2,2,170,2,2,1,3,0.650394741828384,0.742316382880757
"1371",4,23,2,2,171,2,2,1,4,0.485367687439109,0.481573636945702
"1372",4,33,2,1,172,2,1,1,3,0.429744712048388,0.393689335828362
"1373",4,32,2,1,173,1,1,1,4,0.375100614317169,0.307351661413037
"1374",4,19,2,2,174,3,1,0,2,0.843628255241617,1.04762533407366
"1375",4,23,2,2,175,2,2,1,3,0.567650765860671,0.61158090085177
"1376",4,36,2,2,176,2,2,1,4,0.654943341927571,0.749503171037472
"1377",4,22,2,2,177,3,1,0,1,1.00286537899472,1.29921998960356
"1378",4,39,2,2,178,2,2,1,3,0.574906914413448,0.623045615565158
"1379",4,24,2,1,179,2,2,0,2,0.907675004352652,1.1488191976691
"1380",4,18,2,1,180,3,2,0,1,1.4883739070058,2.06632346386108
"1381",4,23,2,2,181,2,1,0,3,0.883512018150736,1.11064167947007
"1382",4,33,2,1,182,1,1,1,4,0.515641589940911,0.529406402898549
"1383",4,32,2,1,183,1,1,1,4,0.28469303352535,0.164507683761963
"1384",4,19,2,2,184,2,1,0,2,0.923966244228594,1.17455935667309
"1385",4,23,2,1,185,1,1,1,4,0.366075842570725,0.293092522053655
"1386",4,36,2,1,186,2,1,1,4,0.703228540750736,0.825793785178073
"1387",4,22,2,2,187,1,2,1,4,0.443548097954318,0.415498685559732
"1388",4,39,2,1,188,3,2,0,2,0.829880278542415,1.02590353088893
"1389",4,24,2,2,189,2,1,0,2,0.799775082861504,0.978337321713086
"1390",4,18,2,2,190,1,2,1,4,0.312969362565482,0.209184283645371
"1391",4,23,2,1,191,3,1,1,2,0.994920620855312,1.2866672717433
"1392",4,33,2,1,192,2,1,1,3,0.504846443673416,0.512350071795907
"1393",4,32,2,2,193,2,1,0,3,0.698053277710992,0.817616869575277
"1394",4,19,2,1,194,1,1,1,4,0.450413252384449,0.426345629559338
"1395",4,23,2,2,195,2,1,0,2,0.310345168315838,0.205038056730934
"1396",4,36,2,2,196,3,2,1,2,0.916612036141817,1.16293970789598
"1397",4,22,2,1,197,3,2,0,2,1.00235323206018,1.298410797447
"1398",4,39,2,2,198,2,2,1,4,0.432925960737887,0.398715708757771
"1399",4,24,2,2,199,1,1,0,3,0.619433697011807,0.693397932070564
"1400",4,18,2,2,200,1,2,1,5,0.321810165369894,0.223152752076341
"1401",4,23,2,1,201,1,1,1,4,0.578628948279867,0.628926429074099
"1402",4,33,2,1,202,3,1,1,2,0.775739986774015,0.940361869894853
"1403",4,32,2,2,203,3,1,0,2,1.3300089858608,1.81610688845197
"1404",4,19,2,1,204,1,1,1,4,0.38786463887778,0.327518820218802
"1405",4,23,2,2,205,3,1,0,1,0.509437590212385,0.519604083327478
"1406",4,36,2,2,206,3,2,1,2,0.463694476174856,0.447329963148182
"1407",4,22,2,2,207,1,2,1,5,0.420133826690357,0.378504136962674
"1408",4,39,2,2,208,3,2,1,2,1.2343202304516,1.66491865490544
"1409",4,24,2,1,209,1,1,1,4,0.439416398190795,0.408970599933365
"1410",4,18,2,1,210,3,2,0,1,1.35075300227871,1.84888243439228
"1411",4,23,2,2,211,3,1,0,2,0.793405861664403,0.968273952221667
"1412",4,33,2,2,212,1,2,1,4,0.570481720520781,0.616053809214744
"1413",4,32,2,1,213,2,1,1,4,0.481935190560069,0.476150291876819
"1414",4,19,2,1,214,2,2,0,3,0.629674273988714,0.709578043694078
"1415",4,23,2,2,215,1,2,1,4,0.465489363943663,0.450165885822898
"1416",4,36,2,2,216,1,2,1,5,0.432093872610027,0.397401009515752
"1417",4,22,2,1,217,3,1,1,2,0.572176251450721,0.61873116808405
"1418",4,39,2,2,218,3,1,0,1,0.823789831016542,1.01628062379805
"1419",4,24,2,2,219,1,2,1,5,0.571843884147531,0.618206027745008
"1420",4,18,2,2,220,2,2,1,4,0.793845683425315,0.968968870603907
"1421",4,23,2,1,221,1,1,1,5,0.428958756304172,0.392447525752501
"1422",4,33,2,2,222,2,1,0,2,0.721860054653853,0.855231577144997
"1423",4,32,2,1,223,3,1,1,2,0.829366249708231,1.02509136533091
"1424",4,19,2,2,224,3,2,1,2,0.784356253331482,0.953975571055651
"1425",4,23,2,2,225,2,2,1,4,0.463574099544235,0.447139768071801
"1426",4,36,2,1,226,2,2,0,2,0.717838118421432,0.848876917897772
"1427",4,22,2,1,227,1,1,1,5,0.403255124031344,0.351835786761433
"1428",4,39,2,1,228,1,1,1,5,0.332265875385501,0.239672773901001
"1429",4,24,2,2,229,3,1,0,1,0.97784019499481,1.25968019888371
"1430",4,18,2,2,230,2,2,1,4,0.536221710973099,0.561922994129406
"1431",4,23,2,2,231,1,1,0,4,0.59797009856196,0.659485446519807
"1432",4,33,2,1,232,3,1,1,2,0.536455273248092,0.562292022523895
"1433",4,32,2,1,233,1,1,1,5,0.441928159530741,0.412939182850481
"1434",4,19,2,1,234,3,2,0,1,1.12184352326999,1.4872054575585
"1435",4,23,2,1,235,3,2,0,1,0.760702645197494,0.916602870203949
"1436",4,36,2,2,236,2,1,0,2,0.808364942285382,0.991909299602812
"1437",4,22,2,2,237,2,2,1,3,0.624703279889963,0.701723873018051
"1438",4,39,2,1,238,2,2,0,2,0.676383215680137,0.783378171566525
"1439",4,24,2,2,239,2,1,0,2,0.845335145131511,1.0503222200997
"1440",4,18,2,2,240,3,2,1,3,1.09082847278444,1.43820167779133
"1441",3,32,1,2,1,1,2,1,4,0.342558966151848,0.0492878698663313
"1442",3,26,1,2,2,2,1,0,2,1.03855331857995,1.14895894670273
"1443",3,23,1,2,3,3,2,1,2,0.733121448622747,0.666376592170352
"1444",3,28,1,1,4,3,1,1,3,0.857857171963613,0.863459035048921
"1445",3,36,1,1,5,3,2,0,2,1.35506722910056,1.64905092532529
"1446",3,30,1,1,6,3,2,0,1,1.13761797054414,1.30548109680615
"1447",3,34,1,2,7,2,2,1,4,0.520482237580037,0.330406638722871
"1448",3,25,1,2,8,2,2,1,3,0.779047567180796,0.73893985949207
"1449",3,36,1,1,9,1,1,1,4,0.488848012361237,0.280424562877167
"1450",3,36,1,2,10,2,1,0,3,0.527954196284212,0.342212333475468
"1451",3,32,1,2,11,1,2,1,5,0.287084887475486,-0.0383611744423201
"1452",3,26,1,2,12,1,2,1,5,0.518676098970211,0.327552939719345
"1453",3,23,1,2,13,3,1,0,2,0.872160098013974,0.88605765820849
"1454",3,28,1,1,14,1,1,1,4,0.301707956624345,-0.0152567251871232
"1455",3,36,1,1,15,3,1,1,2,1.09507085507465,1.23825665436436
"1456",3,30,1,2,16,2,2,1,3,0.445587858262692,0.212073519401465
"1457",3,34,1,1,17,3,2,0,2,1.44942523819206,1.79813657968986
"1458",3,25,1,1,18,2,2,0,2,0.696058063784727,0.607816444126281
"1459",3,36,1,1,19,3,1,1,2,1.062568526486,1.18690297519429
"1460",3,36,1,2,20,3,2,1,2,0.696600831997187,0.608674017901967
"1461",3,32,1,1,21,3,2,0,1,0.815638037695072,0.796752802904626
"1462",3,26,1,2,22,1,2,1,4,0.486975704460307,0.277466316393697
"1463",3,23,1,1,23,1,1,1,4,0.469068891945899,0.249173552620933
"1464",3,28,1,2,24,2,2,1,4,0.708913062135858,0.628127341521068
"1465",3,36,1,2,25,1,2,1,4,0.5644399352517,0.399859801044098
"1466",3,30,1,2,26,1,2,1,4,0.259410134491047,-0.0820872841577331
"1467",3,34,1,2,27,2,1,0,3,0.682398249245773,0.586233937154734
"1468",3,25,1,1,28,3,1,1,2,0.929027743693385,0.975908538381961
"1469",3,36,1,1,29,3,2,0,2,1.25695572462372,1.49403474825189
"1470",3,36,1,1,30,2,2,0,2,0.454359761456062,0.22593312644699
"1471",3,32,1,2,31,1,2,1,4,0.467781703276702,0.247139794523601
"1472",3,26,1,1,32,2,1,1,3,0.469972511441298,0.250601271423663
"1473",3,23,1,2,33,2,1,0,2,0.684119628518303,0.58895371640533
"1474",3,28,1,2,34,1,1,0,4,0.704346620465226,0.620912363681468
"1475",3,36,1,1,35,3,1,1,3,1.04903070508362,1.16551321737853
"1476",3,30,1,1,36,2,2,0,3,0.792837389866524,0.76072777933552
"1477",3,34,1,2,37,1,1,0,4,0.631451028445914,0.505737328290957
"1478",3,25,1,2,38,1,2,1,4,0.534991508505425,0.353331286784983
"1479",3,36,1,2,39,2,1,0,3,0.667250836135581,0.56230102444063
"1480",3,36,1,1,40,3,1,1,3,0.617608935491446,0.483866821422897
"1481",3,32,1,2,41,2,2,1,4,0.547688973590983,0.373393281620165
"1482",3,26,1,1,42,2,2,0,3,0.84032924915304,0.835764917008215
"1483",3,23,1,2,43,3,2,1,2,0.591173426622665,0.442098717410223
"1484",3,28,1,2,44,3,1,0,1,1.36716374293745,1.66816341718759
"1485",3,36,1,2,45,2,2,1,3,0.745375539172682,0.685738055239249
"1486",3,30,1,2,46,3,2,1,2,0.688851490681365,0.596430058622969
"1487",3,34,1,2,47,1,2,1,5,0.426863379506846,0.182488842967228
"1488",3,25,1,1,48,1,1,1,5,0.476407732386773,0.260768920517513
"1489",3,36,1,1,49,2,2,0,2,0.704162074221743,0.620620780616765
"1490",3,36,1,1,50,1,1,1,4,0.38160634071562,0.110982721677092
"1491",3,32,1,1,51,1,1,1,4,0.503442391707304,0.303483682243952
"1492",3,26,1,1,52,1,2,0,3,0.50969350039678,0.313360433973324
"1493",3,23,1,2,53,3,2,1,3,1.09607225663796,1.23983886883438
"1494",3,28,1,1,54,1,1,1,5,0.389225645810161,0.123021223726466
"1495",3,36,1,1,55,1,1,1,5,0.391669994443768,0.126883294567565
"1496",3,30,1,2,56,3,2,1,3,0.82868349774869,0.817364629789343
"1497",3,34,1,2,57,1,2,1,4,0.275047066123672,-0.0573809321781866
"1498",3,25,1,1,58,2,1,1,4,0.42178633769301,0.174467116901368
"1499",3,36,1,1,59,3,1,1,3,0.629291145886046,0.502324713846365
"1500",3,36,1,2,60,3,2,1,3,0.475110028944023,0.258718549077968
"1501",3,32,1,1,61,3,2,0,1,2.06703076429072,2.77395331092575
"1502",3,26,1,2,62,1,2,1,5,0.462287180896891,0.238458449163499
"1503",3,23,1,2,63,3,2,1,3,1.03295355777394,1.14011132462923
"1504",3,28,1,1,64,1,1,1,4,0.417878752807232,0.168293132781838
"1505",3,36,1,1,65,2,2,0,3,0.503758534086851,0.303983187203636
"1506",3,30,1,2,66,2,1,0,2,0.738549334528011,0.67495265190067
"1507",3,34,1,1,67,3,1,1,3,0.806815277556054,0.782812841884977
"1508",3,25,1,2,68,2,2,1,3,0.624556504287791,0.494843980121122
"1509",3,36,1,2,69,3,2,1,3,0.886127473145335,0.908126110916041
"1510",3,36,1,2,70,1,1,0,3,0.509261812448659,0.312678367015293
"1511",3,32,1,1,71,3,1,1,2,0.53135017860079,0.34757798553566
"1512",3,26,1,1,72,2,1,1,3,0.751989628415194,0.696188316242418
"1513",3,23,1,1,73,3,2,0,1,0.566894104785652,0.403737388907743
"1514",3,28,1,2,74,2,2,1,4,0.595778776767359,0.449375170638839
"1515",3,36,1,1,75,3,1,1,2,0.429223324844826,0.186217556601237
"1516",3,30,1,1,76,2,1,1,3,0.570911690300744,0.410085174021587
"1517",3,34,1,1,77,2,1,1,4,0.291541508178325,-0.0313197137318346
"1518",3,25,1,1,78,2,1,1,4,0.486230347968484,0.276288653136616
"1519",3,36,1,2,79,2,1,0,3,0.670931763040104,0.568116888949776
"1520",3,36,1,1,80,1,2,0,4,0.69658440541639,0.608648063904308
"1521",3,32,1,1,81,1,2,0,3,0.483632243354106,0.272183647845899
"1522",3,26,1,2,82,1,1,0,3,0.506751213359824,0.308711620454934
"1523",3,23,1,2,83,3,2,1,2,0.79998467770865,0.772020494126079
"1524",3,28,1,2,84,1,2,1,4,0.340115795791694,0.0454276606972879
"1525",3,36,1,1,85,2,1,1,3,0.735090451839152,0.669487617252272
"1526",3,30,1,1,86,3,2,0,2,1.27186497709173,1.51759136715135
"1527",3,34,1,2,87,2,2,1,3,0.595226681993616,0.448502860896326
"1528",3,25,1,2,88,2,2,1,4,0.620625786989515,0.488633446789845
"1529",3,36,1,2,89,2,1,0,2,0.782869533575696,0.744978566396011
"1530",3,36,1,1,90,3,2,0,2,1.38501331684497,1.69636574396146
"1531",3,32,1,2,91,2,1,0,2,0.711379471535729,0.632024268372864
"1532",3,26,1,2,92,1,1,0,3,0.586294063219064,0.434389323232532
"1533",3,23,1,2,93,3,1,0,1,0.669278942583654,0.565505432628585
"1534",3,28,1,1,94,2,2,0,3,0.785767447390571,0.749557270223514
"1535",3,36,1,1,95,1,1,1,5,0.634815608373277,0.51105336457619
"1536",3,30,1,2,96,3,1,0,1,1.31194744984607,1.58092167410321
"1537",3,34,1,1,97,1,1,1,5,0.304998533924686,-0.0100576130525844
"1538",3,25,1,2,98,2,1,0,2,0.851621501629479,0.853606675920988
"1539",3,36,1,1,99,2,1,1,3,0.737460352862493,0.673232060869151
"1540",3,36,1,1,100,2,1,1,3,0.545598924750196,0.370091004451722
"1541",3,32,1,2,101,1,2,1,5,0.395204738584743,0.132468190310305
"1542",3,26,1,1,102,3,2,0,1,0.928177811766037,0.974565645936751
"1543",3,23,1,2,103,3,2,1,3,1.07851948451194,1.21210548887528
"1544",3,28,1,2,104,1,2,1,5,0.516962063389389,0.324844763501647
"1545",3,36,1,2,105,3,2,1,2,0.923673975875154,0.967449585229155
"1546",3,30,1,1,106,1,2,0,4,0.359073778051616,0.0753812726679658
"1547",3,34,1,1,107,2,2,0,3,0.7079244332782,0.626565307925968
"1548",3,25,1,2,108,3,1,0,2,0.669579024961309,0.56597956278528
"1549",3,36,1,1,109,1,1,1,4,0.4652730382328,0.243176103754236
"1550",3,36,1,1,110,3,1,1,2,0.781482053396421,0.742786347712757
"1551",3,32,1,2,111,2,1,0,2,0.445025574994135,0.211185111837145
"1552",3,26,1,2,112,2,1,0,3,0.846577708522646,0.845637482812193
"1553",3,23,1,2,113,3,1,0,2,0.418926658384644,0.16994882359415
"1554",3,28,1,1,114,3,1,1,3,1.02094526056836,1.12113821504442
"1555",3,36,1,2,115,1,2,1,4,0.423079528755201,0.17651035877963
"1556",3,30,1,1,116,1,2,0,3,0.619435322336823,0.486752512638592
"1557",3,34,1,1,117,2,2,0,2,0.621638476167667,0.490233495691325
"1558",3,25,1,2,118,2,2,1,4,0.596424437911184,0.450395315246082
"1559",3,36,1,1,119,3,2,0,1,1.80288703887146,2.35660622476331
"1560",3,36,1,1,120,3,2,0,1,1.56355427018191,1.97846045023382
"1561",3,32,1,1,121,1,1,1,4,0.482878314204285,0.270992439789182
"1562",3,26,1,1,122,2,1,1,3,0.48102843775194,0.268069634994478
"1563",3,23,1,2,123,3,1,0,2,0.473729585851522,0.256537448991816
"1564",3,28,1,1,124,3,2,0,1,1.07577184107908,1.20776421225137
"1565",3,36,1,1,125,1,1,1,4,0.409572742544109,0.155169636566105
"1566",3,30,1,2,126,2,2,1,4,0.447938313641145,0.215787238899421
"1567",3,34,1,1,127,1,1,1,5,0.440991468049238,0.204811222864209
"1568",3,25,1,1,128,1,1,1,5,0.531731092114965,0.348179828888057
"1569",3,36,1,1,129,2,1,1,3,0.558292854947462,0.390147414163403
"1570",3,36,1,1,130,2,1,1,4,0.552024435032093,0.380243310697119
"1571",3,32,1,2,131,1,1,0,4,0.454664184938217,0.226414115548795
"1572",3,26,1,1,132,2,1,1,3,0.732621742436412,0.665587056395943
"1573",3,23,1,2,133,2,2,1,3,0.458669296735032,0.232742192187763
"1574",3,28,1,1,134,3,1,1,2,1.00507042376977,1.09605597290264
"1575",3,36,1,2,135,2,2,1,4,0.562588532895639,0.396934585321521
"1576",3,30,1,2,136,3,2,1,3,1.08595175489465,1.22384847607996
"1577",3,34,1,2,137,1,1,0,4,0.477509383024489,0.262509528525104
"1578",3,25,1,1,138,2,1,1,3,0.78031135947639,0.740936651319108
"1579",3,36,1,2,139,3,2,1,2,0.882901778603819,0.903029513540446
"1580",3,36,1,1,140,1,1,1,5,0.334824269913553,0.0370670498098257
"1581",3,32,1,1,141,3,2,0,1,0.585796697013968,0.433603484628481
"1582",3,26,1,2,142,1,1,0,3,0.507533285909425,0.309947295083304
"1583",3,23,1,2,143,3,1,0,2,0.772078638840884,0.727928952715008
"1584",3,28,1,1,144,1,1,1,5,0.43610554034965,0.197091457098859
"1585",3,36,1,2,145,1,1,0,4,0.368729246007923,0.0906369120389297
"1586",3,30,1,2,146,1,2,1,4,0.366884729395447,0.0877225757912175
"1587",3,34,1,1,147,3,1,1,2,0.563188632471559,0.397882742651475
"1588",3,25,1,2,148,3,1,0,1,1.17551292104403,1.36535511859598
"1589",3,36,1,2,149,2,1,0,2,0.665993286127068,0.56031409542718
"1590",3,36,1,1,150,2,2,0,3,0.663540402150435,0.556438538744099
"1591",3,32,1,2,151,1,1,0,3,0.53945252337654,0.360379690281346
"1592",3,26,1,1,152,2,1,1,3,0.528427529433157,0.3429601998508
"1593",3,23,1,1,153,3,1,1,3,0.891470313838309,0.916567799210941
"1594",3,28,1,2,154,3,1,0,1,0.53455020468223,0.352634026744336
"1595",3,36,1,2,155,2,1,0,3,0.710109323541244,0.630017434541577
"1596",3,30,1,2,156,2,2,1,3,0.863817625901718,0.872876552271126
"1597",3,34,1,1,157,2,2,0,2,0.687867203507273,0.594874884887904
"1598",3,25,1,1,158,1,2,0,3,0.486437191550637,0.276615465996418
"1599",3,36,1,2,159,2,1,0,3,0.85655877132114,0.861407562033814
"1600",3,36,1,2,160,3,1,0,1,0.71769976025106,0.642010324543086
"1601",3,32,1,2,161,2,2,1,4,0.311531622600321,0.000264667054919066
"1602",3,26,1,1,162,2,1,1,4,0.709245144564774,0.628652031758754
"1603",3,23,1,1,163,2,1,1,3,0.683069401392471,0.587294357546516
