"","subj_no","age","group","stim","trial","difficulty","resp","corr","conf","RT_day1","RT_day2"
"1",3,32,1,2,1,1,2,1,4,0.342558966151848,0.0492878698663313
"2",3,26,1,2,2,2,1,0,2,1.03855331857995,1.14895894670273
"3",3,23,1,2,3,3,2,1,2,0.733121448622747,0.666376592170352
"4",3,28,1,1,4,3,1,1,3,0.857857171963613,0.863459035048921
"5",3,36,1,1,5,3,2,0,2,1.35506722910056,1.64905092532529
"6",3,30,1,1,6,3,2,0,1,1.13761797054414,1.30548109680615
"7",3,34,1,2,7,2,2,1,4,0.520482237580037,0.330406638722871
"8",3,25,1,2,8,2,2,1,3,0.779047567180796,0.73893985949207
"9",3,36,1,1,9,1,1,1,4,0.488848012361237,0.280424562877167
"10",3,36,1,2,10,2,1,0,3,0.527954196284212,0.342212333475468
"11",3,32,1,2,11,1,2,1,5,0.287084887475486,-0.0383611744423201
"12",3,26,1,2,12,1,2,1,5,0.518676098970211,0.327552939719345
"13",3,23,1,2,13,3,1,0,2,0.872160098013974,0.88605765820849
"14",3,28,1,1,14,1,1,1,4,0.301707956624345,-0.0152567251871232
"15",3,36,1,1,15,3,1,1,2,1.09507085507465,1.23825665436436
"16",3,30,1,2,16,2,2,1,3,0.445587858262692,0.212073519401465
"17",3,34,1,1,17,3,2,0,2,1.44942523819206,1.79813657968986
"18",3,25,1,1,18,2,2,0,2,0.696058063784727,0.607816444126281
"19",3,36,1,1,19,3,1,1,2,1.062568526486,1.18690297519429
"20",3,36,1,2,20,3,2,1,2,0.696600831997187,0.608674017901967
"21",3,32,1,1,21,3,2,0,1,0.815638037695072,0.796752802904626
"22",3,26,1,2,22,1,2,1,4,0.486975704460307,0.277466316393697
"23",3,23,1,1,23,1,1,1,4,0.469068891945899,0.249173552620933
"24",3,28,1,2,24,2,2,1,4,0.708913062135858,0.628127341521068
"25",3,36,1,2,25,1,2,1,4,0.5644399352517,0.399859801044098
"26",3,30,1,2,26,1,2,1,4,0.259410134491047,-0.0820872841577331
"27",3,34,1,2,27,2,1,0,3,0.682398249245773,0.586233937154734
"28",3,25,1,1,28,3,1,1,2,0.929027743693385,0.975908538381961
"29",3,36,1,1,29,3,2,0,2,1.25695572462372,1.49403474825189
"30",3,36,1,1,30,2,2,0,2,0.454359761456062,0.22593312644699
"31",3,32,1,2,31,1,2,1,4,0.467781703276702,0.247139794523601
"32",3,26,1,1,32,2,1,1,3,0.469972511441298,0.250601271423663
"33",3,23,1,2,33,2,1,0,2,0.684119628518303,0.58895371640533
"34",3,28,1,2,34,1,1,0,4,0.704346620465226,0.620912363681468
"35",3,36,1,1,35,3,1,1,3,1.04903070508362,1.16551321737853
"36",3,30,1,1,36,2,2,0,3,0.792837389866524,0.76072777933552
"37",3,34,1,2,37,1,1,0,4,0.631451028445914,0.505737328290957
"38",3,25,1,2,38,1,2,1,4,0.534991508505425,0.353331286784983
"39",3,36,1,2,39,2,1,0,3,0.667250836135581,0.56230102444063
"40",3,36,1,1,40,3,1,1,3,0.617608935491446,0.483866821422897
"41",3,32,1,2,41,2,2,1,4,0.547688973590983,0.373393281620165
"42",3,26,1,1,42,2,2,0,3,0.84032924915304,0.835764917008215
"43",3,23,1,2,43,3,2,1,2,0.591173426622665,0.442098717410223
"44",3,28,1,2,44,3,1,0,1,1.36716374293745,1.66816341718759
"45",3,36,1,2,45,2,2,1,3,0.745375539172682,0.685738055239249
"46",3,30,1,2,46,3,2,1,2,0.688851490681365,0.596430058622969
"47",3,34,1,2,47,1,2,1,5,0.426863379506846,0.182488842967228
"48",3,25,1,1,48,1,1,1,5,0.476407732386773,0.260768920517513
"49",3,36,1,1,49,2,2,0,2,0.704162074221743,0.620620780616765
"50",3,36,1,1,50,1,1,1,4,0.38160634071562,0.110982721677092
"51",3,32,1,1,51,1,1,1,4,0.503442391707304,0.303483682243952
"52",3,26,1,1,52,1,2,0,3,0.50969350039678,0.313360433973324
"53",3,23,1,2,53,3,2,1,3,1.09607225663796,1.23983886883438
"54",3,28,1,1,54,1,1,1,5,0.389225645810161,0.123021223726466
"55",3,36,1,1,55,1,1,1,5,0.391669994443768,0.126883294567565
"56",3,30,1,2,56,3,2,1,3,0.82868349774869,0.817364629789343
"57",3,34,1,2,57,1,2,1,4,0.275047066123672,-0.0573809321781866
"58",3,25,1,1,58,2,1,1,4,0.42178633769301,0.174467116901368
"59",3,36,1,1,59,3,1,1,3,0.629291145886046,0.502324713846365
"60",3,36,1,2,60,3,2,1,3,0.475110028944023,0.258718549077968
"61",3,32,1,1,61,3,2,0,1,2.06703076429072,2.77395331092575
"62",3,26,1,2,62,1,2,1,5,0.462287180896891,0.238458449163499
"63",3,23,1,2,63,3,2,1,3,1.03295355777394,1.14011132462923
"64",3,28,1,1,64,1,1,1,4,0.417878752807232,0.168293132781838
"65",3,36,1,1,65,2,2,0,3,0.503758534086851,0.303983187203636
"66",3,30,1,2,66,2,1,0,2,0.738549334528011,0.67495265190067
"67",3,34,1,1,67,3,1,1,3,0.806815277556054,0.782812841884977
"68",3,25,1,2,68,2,2,1,3,0.624556504287791,0.494843980121122
"69",3,36,1,2,69,3,2,1,3,0.886127473145335,0.908126110916041
"70",3,36,1,2,70,1,1,0,3,0.509261812448659,0.312678367015293
"71",3,32,1,1,71,3,1,1,2,0.53135017860079,0.34757798553566
"72",3,26,1,1,72,2,1,1,3,0.751989628415194,0.696188316242418
"73",3,23,1,1,73,3,2,0,1,0.566894104785652,0.403737388907743
"74",3,28,1,2,74,2,2,1,4,0.595778776767359,0.449375170638839
"75",3,36,1,1,75,3,1,1,2,0.429223324844826,0.186217556601237
"76",3,30,1,1,76,2,1,1,3,0.570911690300744,0.410085174021587
"77",3,34,1,1,77,2,1,1,4,0.291541508178325,-0.0313197137318346
"78",3,25,1,1,78,2,1,1,4,0.486230347968484,0.276288653136616
"79",3,36,1,2,79,2,1,0,3,0.670931763040104,0.568116888949776
"80",3,36,1,1,80,1,2,0,4,0.69658440541639,0.608648063904308
"81",3,32,1,1,81,1,2,0,3,0.483632243354106,0.272183647845899
"82",3,26,1,2,82,1,1,0,3,0.506751213359824,0.308711620454934
"83",3,23,1,2,83,3,2,1,2,0.79998467770865,0.772020494126079
"84",3,28,1,2,84,1,2,1,4,0.340115795791694,0.0454276606972879
"85",3,36,1,1,85,2,1,1,3,0.735090451839152,0.669487617252272
"86",3,30,1,1,86,3,2,0,2,1.27186497709173,1.51759136715135
"87",3,34,1,2,87,2,2,1,3,0.595226681993616,0.448502860896326
"88",3,25,1,2,88,2,2,1,4,0.620625786989515,0.488633446789845
"89",3,36,1,2,89,2,1,0,2,0.782869533575696,0.744978566396011
"90",3,36,1,1,90,3,2,0,2,1.38501331684497,1.69636574396146
"91",3,32,1,2,91,2,1,0,2,0.711379471535729,0.632024268372864
"92",3,26,1,2,92,1,1,0,3,0.586294063219064,0.434389323232532
"93",3,23,1,2,93,3,1,0,1,0.669278942583654,0.565505432628585
"94",3,28,1,1,94,2,2,0,3,0.785767447390571,0.749557270223514
"95",3,36,1,1,95,1,1,1,5,0.634815608373277,0.51105336457619
"96",3,30,1,2,96,3,1,0,1,1.31194744984607,1.58092167410321
"97",3,34,1,1,97,1,1,1,5,0.304998533924686,-0.0100576130525844
"98",3,25,1,2,98,2,1,0,2,0.851621501629479,0.853606675920988
"99",3,36,1,1,99,2,1,1,3,0.737460352862493,0.673232060869151
"100",3,36,1,1,100,2,1,1,3,0.545598924750196,0.370091004451722
"101",3,32,1,2,101,1,2,1,5,0.395204738584743,0.132468190310305
"102",3,26,1,1,102,3,2,0,1,0.928177811766037,0.974565645936751
"103",3,23,1,2,103,3,2,1,3,1.07851948451194,1.21210548887528
"104",3,28,1,2,104,1,2,1,5,0.516962063389389,0.324844763501647
"105",3,36,1,2,105,3,2,1,2,0.923673975875154,0.967449585229155
"106",3,30,1,1,106,1,2,0,4,0.359073778051616,0.0753812726679658
"107",3,34,1,1,107,2,2,0,3,0.7079244332782,0.626565307925968
"108",3,25,1,2,108,3,1,0,2,0.669579024961309,0.56597956278528
"109",3,36,1,1,109,1,1,1,4,0.4652730382328,0.243176103754236
"110",3,36,1,1,110,3,1,1,2,0.781482053396421,0.742786347712757
"111",3,32,1,2,111,2,1,0,2,0.445025574994135,0.211185111837145
"112",3,26,1,2,112,2,1,0,3,0.846577708522646,0.845637482812193
"113",3,23,1,2,113,3,1,0,2,0.418926658384644,0.16994882359415
"114",3,28,1,1,114,3,1,1,3,1.02094526056836,1.12113821504442
"115",3,36,1,2,115,1,2,1,4,0.423079528755201,0.17651035877963
"116",3,30,1,1,116,1,2,0,3,0.619435322336823,0.486752512638592
"117",3,34,1,1,117,2,2,0,2,0.621638476167667,0.490233495691325
"118",3,25,1,2,118,2,2,1,4,0.596424437911184,0.450395315246082
"119",3,36,1,1,119,3,2,0,1,1.80288703887146,2.35660622476331
"120",3,36,1,1,120,3,2,0,1,1.56355427018191,1.97846045023382
"121",3,32,1,1,121,1,1,1,4,0.482878314204285,0.270992439789182
"122",3,26,1,1,122,2,1,1,3,0.48102843775194,0.268069634994478
"123",3,23,1,2,123,3,1,0,2,0.473729585851522,0.256537448991816
"124",3,28,1,1,124,3,2,0,1,1.07577184107908,1.20776421225137
"125",3,36,1,1,125,1,1,1,4,0.409572742544109,0.155169636566105
"126",3,30,1,2,126,2,2,1,4,0.447938313641145,0.215787238899421
"127",3,34,1,1,127,1,1,1,5,0.440991468049238,0.204811222864209
"128",3,25,1,1,128,1,1,1,5,0.531731092114965,0.348179828888057
"129",3,36,1,1,129,2,1,1,3,0.558292854947462,0.390147414163403
"130",3,36,1,1,130,2,1,1,4,0.552024435032093,0.380243310697119
"131",3,32,1,2,131,1,1,0,4,0.454664184938217,0.226414115548795
"132",3,26,1,1,132,2,1,1,3,0.732621742436412,0.665587056395943
"133",3,23,1,2,133,2,2,1,3,0.458669296735032,0.232742192187763
"134",3,28,1,1,134,3,1,1,2,1.00507042376977,1.09605597290264
"135",3,36,1,2,135,2,2,1,4,0.562588532895639,0.396934585321521
"136",3,30,1,2,136,3,2,1,3,1.08595175489465,1.22384847607996
"137",3,34,1,2,137,1,1,0,4,0.477509383024489,0.262509528525104
"138",3,25,1,1,138,2,1,1,3,0.78031135947639,0.740936651319108
"139",3,36,1,2,139,3,2,1,2,0.882901778603819,0.903029513540446
"140",3,36,1,1,140,1,1,1,5,0.334824269913553,0.0370670498098257
"141",3,32,1,1,141,3,2,0,1,0.585796697013968,0.433603484628481
"142",3,26,1,2,142,1,1,0,3,0.507533285909425,0.309947295083304
"143",3,23,1,2,143,3,1,0,2,0.772078638840884,0.727928952715008
"144",3,28,1,1,144,1,1,1,5,0.43610554034965,0.197091457098859
"145",3,36,1,2,145,1,1,0,4,0.368729246007923,0.0906369120389297
"146",3,30,1,2,146,1,2,1,4,0.366884729395447,0.0877225757912175
"147",3,34,1,1,147,3,1,1,2,0.563188632471559,0.397882742651475
"148",3,25,1,2,148,3,1,0,1,1.17551292104403,1.36535511859598
"149",3,36,1,2,149,2,1,0,2,0.665993286127068,0.56031409542718
"150",3,36,1,1,150,2,2,0,3,0.663540402150435,0.556438538744099
"151",3,32,1,2,151,1,1,0,3,0.53945252337654,0.360379690281346
"152",3,26,1,1,152,2,1,1,3,0.528427529433157,0.3429601998508
"153",3,23,1,1,153,3,1,1,3,0.891470313838309,0.916567799210941
"154",3,28,1,2,154,3,1,0,1,0.53455020468223,0.352634026744336
"155",3,36,1,2,155,2,1,0,3,0.710109323541244,0.630017434541577
"156",3,30,1,2,156,2,2,1,3,0.863817625901718,0.872876552271126
"157",3,34,1,1,157,2,2,0,2,0.687867203507273,0.594874884887904
"158",3,25,1,1,158,1,2,0,3,0.486437191550637,0.276615465996418
"159",3,36,1,2,159,2,1,0,3,0.85655877132114,0.861407562033814
"160",3,36,1,2,160,3,1,0,1,0.71769976025106,0.642010324543086
"161",3,32,1,2,161,2,2,1,4,0.311531622600321,0.000264667054919066
"162",3,26,1,1,162,2,1,1,4,0.709245144564774,0.628652031758754
"163",3,23,1,1,163,2,1,1,3,0.683069401392471,0.587294357546516
"164",3,28,1,1,164,1,1,1,5,0.365277205193478,0.0851826875521077
"165",3,36,1,1,165,2,2,0,3,0.725291621779225,0.654005465757588
"166",3,30,1,2,166,1,2,1,5,0.317891229729444,0.010312846318933
"167",3,34,1,2,167,3,2,1,3,0.93275773660219,0.981801927177872
"168",3,25,1,1,168,1,1,1,5,0.428393731157924,0.184906798575931
"169",3,36,1,2,169,2,1,0,3,0.264781522511148,-0.0736004910859735
"170",3,36,1,1,170,3,1,1,2,0.80667875647458,0.782597138576249
"171",3,32,1,2,171,1,2,1,5,0.292346693119089,-0.0300475215254269
"172",3,26,1,2,172,3,2,1,3,0.879211311993433,0.897198576296037
"173",3,23,1,1,173,3,1,1,3,0.718285123160695,0.64293519794031
"174",3,28,1,2,174,1,2,1,4,0.34827055128465,0.0583121743761592
"175",3,36,1,1,175,1,2,0,3,0.588298808707156,0.437556821103718
"176",3,30,1,2,176,2,1,0,2,0.670101385002213,0.566804891649909
"177",3,34,1,2,177,2,2,1,3,0.550588725061943,0.377974888944282
"178",3,25,1,2,178,1,1,0,4,0.55824557412623,0.390072710465855
"179",3,36,1,1,179,1,2,0,4,0.395548877974817,0.133011930546622
"180",3,36,1,1,180,3,2,0,2,0.973914325057052,1.04682933693655
"181",3,32,1,1,181,3,2,0,1,0.859460526993499,0.86599233599614
"182",3,26,1,2,182,3,2,1,2,0.580559851279638,0.42532926836824
"183",3,23,1,1,183,3,1,1,2,0.5398783245284,0.361052456101283
"184",3,28,1,2,184,3,2,1,2,0.552873142978811,0.381584269252933
"185",3,36,1,1,185,2,2,0,2,0.700456550779443,0.614766053577933
"186",3,30,1,2,186,2,2,1,4,0.444630136176748,0.210560318505674
"187",3,34,1,2,187,1,2,1,5,0.454247826205219,0.225756268750658
"188",3,25,1,1,188,3,1,1,3,0.827839705921283,0.816031438702039
"189",3,36,1,2,189,3,2,1,2,0.700882232435515,0.615438630594526
"190",3,36,1,2,190,1,1,0,4,0.455961362172573,0.228463655579078
"191",3,32,1,2,191,2,2,1,4,0.517319360778407,0.325409293376294
"192",3,26,1,1,192,2,1,1,3,0.592035558135331,0.443460885200234
"193",3,23,1,2,193,3,1,0,1,1.13696743784268,1.30445325513785
"194",3,28,1,1,194,2,2,0,3,0.516909706936376,0.324762040305885
"195",3,36,1,1,195,1,1,1,5,0.357879090940351,0.0734936670321667
"196",3,30,1,1,196,1,2,0,4,0.62642039015215,0.497788919786809
"197",3,34,1,2,197,3,2,1,3,0.90485939312383,0.937722544482063
"198",3,25,1,1,198,1,1,1,5,0.540119156440242,0.361432970521995
"199",3,36,1,2,199,1,2,1,4,0.245005984503773,-0.104845841137627
"200",3,36,1,1,200,1,1,1,4,0.276808287725847,-0.0545982020467493
"201",3,32,1,2,201,2,2,1,4,0.597808234180325,0.452581713351325
"202",3,26,1,2,202,1,2,1,4,0.321316013809068,0.0157240051647392
"203",3,23,1,1,203,1,1,1,5,0.331948041409665,0.0325226087736833
"204",3,28,1,1,204,1,2,0,4,0.503664568817103,0.303834722077435
"205",3,36,1,1,205,1,1,1,5,0.442090880390911,0.206548294364052
"206",3,30,1,1,206,2,1,1,4,0.682010567481121,0.585621399966584
"207",3,34,1,1,207,1,2,0,4,0.506119865230355,0.307714090410374
"208",3,25,1,2,208,2,1,0,2,0.666073141308604,0.560440266614006
"209",3,36,1,1,209,3,2,0,1,1.08875213518865,1.22827307694447
"210",3,36,1,1,210,2,2,0,3,0.507778775788525,0.310335169092281
"211",3,32,1,1,211,3,2,0,1,0.590424513483696,0.440915434650652
"212",3,26,1,1,212,2,1,1,4,0.646313894307305,0.529220656351954
"213",3,23,1,1,213,2,1,1,3,0.627504726314497,0.499502170923317
"214",3,28,1,2,214,1,2,1,4,0.388560812475813,0.121970787058196
"215",3,36,1,2,215,2,1,0,2,0.403563567965667,0.145675140732166
"216",3,30,1,2,216,2,1,0,3,0.682343183742098,0.586146933658927
"217",3,34,1,1,217,1,1,1,5,0.289815964104586,-0.0340460733683418
"218",3,25,1,2,218,1,1,0,4,0.615076163986245,0.479865042444679
"219",3,36,1,2,219,3,2,1,2,1.12051067772154,1.27845157414645
"220",3,36,1,1,220,1,2,0,3,0.353773023075873,0.067006079806292
"221",3,32,1,1,221,3,2,0,1,1.19154525548747,1.39068620701661
"222",3,26,1,2,222,3,2,1,3,0.759110760593931,0.707439705084823
"223",3,23,1,2,223,3,1,0,1,0.380497862398197,0.109231325935563
"224",3,28,1,2,224,1,2,1,5,0.461205820647775,0.236749899969896
"225",3,36,1,2,225,3,1,0,2,0.430794058322908,0.188699315496607
"226",3,30,1,1,226,3,1,1,2,0.755532423155396,0.701785931931938
"227",3,34,1,1,227,2,1,1,4,0.497405794795563,0.293945859123401
"228",3,25,1,2,228,3,2,1,2,0.965800959618994,1.03401021954442
"229",3,36,1,2,229,1,1,0,3,0.617064007596749,0.483005835349276
"230",3,36,1,1,230,2,1,1,4,0.67076951578368,0.567860538284626
"231",3,32,1,1,231,1,1,1,4,0.302947643190785,-0.0132980204121473
"232",3,26,1,2,232,3,1,0,1,0.735140895249913,0.669567317841274
"233",3,23,1,1,233,1,1,1,5,0.364981330194427,0.0847152050536063
"234",3,28,1,1,234,2,2,0,3,0.6299139508236,0.503308745647699
"235",3,36,1,2,235,3,1,0,1,0.938431072629766,0.990765798101442
"236",3,30,1,2,236,1,1,0,3,0.732848390096784,0.66594515969933
"237",3,34,1,2,237,1,2,1,5,0.302639527116442,-0.0137848438096101
"238",3,25,1,2,238,2,1,0,3,0.602106107788471,0.459372353652196
"239",3,36,1,1,239,3,2,0,2,1.35313332443208,1.6459953559491
"240",3,36,1,1,240,3,2,0,2,0.848766869291996,0.849096356827765
"241",2,29,2,2,1,1,2,1,4,0.307825927612126,1.16274020029757
"242",2,30,2,1,2,1,2,0,3,0.638524137129286,1.68524337133468
"243",2,23,2,2,3,3,2,1,3,1.07345366951871,2.37243203250996
"244",2,31,2,2,4,2,2,1,3,0.537210743716399,1.52516820974232
"245",2,24,2,1,5,1,2,0,3,0.645352464967526,1.6960321293191
"246",2,19,2,1,6,3,1,1,3,1.30700477109985,2.74144277300817
"247",2,18,2,2,7,3,2,1,3,0.572668639902578,1.58119168571648
"248",2,30,2,1,8,3,2,0,1,0.228672568487545,1.03767789288073
"249",2,36,2,2,9,2,2,1,4,0.777981382513584,1.90558581904187
"250",2,24,2,2,10,2,2,1,4,0.514455884995571,1.48921553296341
"251",2,29,2,2,11,2,2,1,4,0.531258212599121,1.51576321057702
"252",2,30,2,2,12,1,2,1,5,0.360424666863812,1.24584620831523
"253",2,23,2,1,13,1,2,0,3,0.525798049800293,1.50713615335487
"254",2,31,2,1,14,2,1,1,3,0.615512285831575,1.6488846462843
"255",2,24,2,1,15,2,1,1,4,0.406023050930838,1.31789165514113
"256",2,19,2,2,16,1,2,1,5,0.436885038776161,1.36665359593674
"257",2,18,2,1,17,3,1,1,3,0.522673988933901,1.50220013718597
"258",2,30,2,2,18,1,2,1,5,0.32972485705909,1.19734050882377
"259",2,36,2,2,19,1,2,1,5,0.368929790996315,1.25928430444459
"260",2,24,2,2,20,2,2,1,4,0.813888926193426,1.96231973805602
"261",2,29,2,2,21,3,1,0,1,0.91157682288672,2.11666661483143
"262",2,30,2,2,22,2,2,1,4,0.683550483740515,1.75638499898042
"263",2,23,2,2,23,2,2,1,3,0.68513453728084,1.75888780357414
"264",2,31,2,1,24,3,1,1,2,1.44148296837781,2.95391832470735
"265",2,24,2,2,25,3,2,1,3,0.680704671661052,1.75188861589487
"266",2,19,2,2,26,3,1,0,2,1.14451401283544,2.48470737495041
"267",2,18,2,2,27,1,1,0,3,0.495237989018769,1.45885125732006
"268",2,30,2,2,28,3,2,1,3,0.95557201307114,2.18617901532281
"269",2,36,2,2,29,3,2,1,3,0.564586089827822,1.56842125659837
"270",2,24,2,1,30,3,1,1,3,0.843348160423081,2.00886532813888
"271",2,29,2,2,31,1,2,1,5,0.370826243500393,1.26228069940103
"272",2,30,2,2,32,1,2,1,5,0.45481200750584,1.39497820652964
"273",2,23,2,1,33,1,1,1,5,0.553608851713855,1.5510772203783
"274",2,31,2,2,34,3,2,1,2,0.689124575233709,1.76519206353967
"275",2,24,2,1,35,1,2,0,4,0.638007330680735,1.68442681714597
"276",2,19,2,2,36,3,1,0,2,1.55474729107777,3.13287595457329
"277",2,18,2,2,37,2,2,1,3,0.614461797137802,1.64722487414814
"278",2,30,2,1,38,1,1,1,5,0.505708994283195,1.47539544563786
"279",2,36,2,2,39,2,2,1,3,0.568729281740675,1.57496749982068
"280",2,24,2,2,40,3,1,0,2,1.28249562000125,2.70271831427238
"281",2,29,2,2,41,1,2,1,4,0.314371230729743,1.1730817792234
"282",2,30,2,1,42,1,2,0,3,0.455275579016058,1.39571064951578
"283",2,23,2,2,43,1,1,0,3,0.325485692952192,1.19064262953487
"284",2,31,2,1,44,3,2,0,2,0.393484765607332,1.29808116432999
"285",2,24,2,1,45,1,1,1,4,0.439793207211534,1.37124850206463
"286",2,19,2,1,46,2,2,0,3,0.456440543717022,1.3975512937433
"287",2,18,2,1,47,3,1,1,3,0.526277844615532,1.50789422916295
"288",2,30,2,1,48,1,1,1,4,0.415505401021585,1.33287376828451
"289",2,36,2,1,49,1,1,1,4,0.329274452908705,1.19662887026616
"290",2,24,2,2,50,2,2,1,3,0.596614926296987,1.61902681821965
"291",2,29,2,1,51,2,2,0,2,0.717797939144096,1.81049597851808
"292",2,30,2,1,52,1,1,1,5,0.458422853901484,1.40068334383475
"293",2,23,2,1,53,1,1,1,5,0.525080566713531,1.50600253007779
"294",2,31,2,1,54,3,2,0,1,0.670950586110419,1.73647716072487
"295",2,24,2,2,55,2,2,1,3,0.62906684780995,1.67030085421013
"296",2,19,2,2,56,3,1,0,2,0.825981060604639,1.98142531042574
"297",2,18,2,2,57,1,1,0,4,0.377579340082498,1.27295059200076
"298",2,30,2,1,58,1,1,1,5,0.499774989321276,1.46601971779803
"299",2,36,2,1,59,2,2,0,2,0.693461587934904,1.77204454360756
"300",2,24,2,1,60,2,1,1,4,0.739335128812696,1.84452473819447
"301",2,29,2,1,61,1,2,0,3,0.404456359725126,1.31541628303611
"302",2,30,2,1,62,2,1,1,3,0.747215687587336,1.8569760210584
"303",2,23,2,1,63,3,1,1,2,0.604882263974048,1.63208921174941
"304",2,31,2,1,64,3,2,0,2,1.46969704814762,2.99849657074365
"305",2,24,2,1,65,2,2,0,3,0.805387342448435,1.94888723573894
"306",2,19,2,1,66,1,1,1,5,0.52577863930292,1.50710548476902
"307",2,18,2,1,67,2,2,0,3,0.773596653117871,1.89865794659665
"308",2,30,2,1,68,1,1,1,5,0.471104276075072,1.42071999086902
"309",2,36,2,2,69,2,2,1,3,0.574535252161228,1.58414093308515
"310",2,24,2,2,70,3,1,0,2,1.0374478171774,2.31554278581069
"311",2,29,2,2,71,2,1,0,3,0.770083302785991,1.89310685307227
"312",2,30,2,1,72,3,1,1,2,1.02969958706948,2.30330058224019
"313",2,23,2,2,73,2,2,1,4,0.521496008371874,1.50033892789797
"314",2,31,2,1,74,1,1,1,5,0.443140616186309,1.37653740824478
"315",2,24,2,1,75,2,2,0,3,0.850429181977906,2.0200533421955
"316",2,19,2,1,76,3,1,1,2,0.909315736463144,2.11309409828218
"317",2,18,2,2,77,2,2,1,3,0.743923089473106,1.85177371603792
"318",2,30,2,2,78,2,1,0,3,0.482768515908632,1.43914948980605
"319",2,36,2,2,79,2,2,1,4,0.73102512641281,1.83139493440265
"320",2,24,2,2,80,3,2,1,3,0.870870058617699,2.05234992728637
"321",2,29,2,1,81,3,2,0,1,0.280628302645692,1.1197679528506
"322",2,30,2,2,82,2,1,0,3,0.678301238096266,1.74809119086251
"323",2,23,2,1,83,2,1,1,4,0.650628977813042,1.70436901961502
"324",2,31,2,1,84,1,1,1,5,0.443267662449697,1.37673814134093
"325",2,24,2,2,85,2,1,0,3,0.665838779831391,1.72840050680401
"326",2,19,2,1,86,1,1,1,5,0.367716457353922,1.25736723728961
"327",2,18,2,2,87,1,2,1,5,0.351973118219382,1.23249276145703
"328",2,30,2,2,88,1,2,1,5,0.366204943612109,1.25497904557754
"329",2,36,2,1,89,1,2,0,4,0.669406182995299,1.73403700380298
"330",2,24,2,2,90,2,1,0,3,0.499237075779494,1.46516981440201
"331",2,29,2,2,91,1,2,1,4,0.331355409767223,1.19991678210262
"332",2,30,2,2,92,3,1,0,1,0.975498512162797,2.21766288388763
"333",2,23,2,2,93,3,2,1,2,0.906493583713619,2.10863509693793
"334",2,31,2,2,94,2,1,0,2,0.750132989912898,1.86158535873279
"335",2,24,2,2,95,3,2,1,2,0.980222168892825,2.22512626152107
"336",2,19,2,2,96,2,1,0,3,0.433845443557366,1.36185103549105
"337",2,18,2,1,97,3,1,1,3,0.928212438753839,2.14295088790148
"338",2,30,2,2,98,2,2,1,4,0.507746648396596,1.47861493913703
"339",2,36,2,1,99,1,1,1,5,0.44724253295836,1.38301843674462
"340",2,24,2,2,100,1,1,0,4,0.683320578530383,1.75602174874841
"341",2,29,2,2,101,2,2,1,3,0.639403070795113,1.68663208652669
"342",2,30,2,2,102,2,2,1,3,0.505998867950109,1.47585344603158
"343",2,23,2,2,103,1,2,1,5,0.46243806315807,1.40702737446016
"344",2,31,2,2,104,3,1,0,1,0.731904510472913,1.83278436121761
"345",2,24,2,2,105,3,2,1,3,0.76728520063583,1.88868585167502
"346",2,19,2,2,106,3,1,0,1,0.983329610943787,2.23003601996159
"347",2,18,2,2,107,2,2,1,4,0.423222181233247,1.34506628101894
"348",2,30,2,1,108,3,1,1,3,0.741859741696189,1.84851362655039
"349",2,36,2,1,109,3,2,0,2,1.37257087812312,2.84503722210493
"350",2,24,2,2,110,2,1,0,3,0.60056307561953,1.62526489414927
"351",2,29,2,1,111,1,2,0,3,0.550019242161704,1.5454056372859
"352",2,30,2,1,112,3,1,1,2,0.647649110983665,1.6996608300246
"353",2,23,2,2,113,2,1,0,2,0.69023599358618,1.76694810453657
"354",2,31,2,1,114,1,1,1,4,0.375088792091569,1.26901552617509
"355",2,24,2,1,115,1,2,0,3,0.606273265570163,1.63428699427127
"356",2,19,2,1,116,2,2,0,2,0.464332904578189,1.41002122390395
"357",2,18,2,1,117,2,1,1,4,0.702070339526233,1.78564637112186
"358",2,30,2,2,118,3,1,0,2,0.394619060902603,1.29987335089652
"359",2,36,2,1,119,3,2,0,1,0.741263884100549,1.84757217154928
"360",2,24,2,2,120,2,2,1,4,0.534454098299786,1.52081270998407
"361",2,29,2,2,121,2,2,1,3,0.48783826460731,1.44715969274996
"362",2,30,2,1,122,3,1,1,3,0.608897695942477,1.63843359425952
"363",2,23,2,1,123,1,1,1,5,0.421250080869539,1.34195036244428
"364",2,31,2,2,124,3,1,0,2,0.653612832641144,1.70908351024342
"365",2,24,2,2,125,2,2,1,4,0.769311914932148,1.8918880602632
"366",2,19,2,2,126,1,2,1,4,0.409965796370864,1.32412119293637
"367",2,18,2,1,127,1,1,1,5,0.307171929223267,1.16170688284317
"368",2,30,2,2,128,2,2,1,3,0.747486173187407,1.85740338830651
"369",2,36,2,1,129,2,2,0,3,0.64887007223542,1.70158994880237
"370",2,24,2,2,130,2,2,1,3,0.61289321609718,1.64474651610395
"371",2,29,2,1,131,2,2,0,3,0.542975560685735,1.53427662055387
"372",2,30,2,2,132,1,1,0,3,0.614394728643297,1.64711890592682
"373",2,23,2,1,133,3,2,0,1,1.67823198340622,3.32798176845224
"374",2,31,2,1,134,2,2,0,2,0.815962888090597,1.96559659785355
"375",2,24,2,1,135,2,1,1,3,0.746928066747567,1.85652158013157
"376",2,19,2,1,136,3,1,1,3,0.831350172085234,1.98990850656508
"377",2,18,2,1,137,2,1,1,3,0.584023909244825,1.59913301127723
"378",2,30,2,1,138,1,1,1,4,0.486099078741565,1.44441177908208
"379",2,36,2,1,139,3,1,1,2,0.868004995480365,2.04782312752939
"380",2,24,2,2,140,3,1,0,2,0.524149378365875,1.50453125248849
"381",2,29,2,2,141,3,1,0,1,1.06381442764358,2.35720203034727
"382",2,30,2,1,142,1,1,1,5,0.488305771797793,1.44789835411092
"383",2,23,2,2,143,3,1,0,2,1.28499148249662,2.70666177701507
"384",2,31,2,1,144,1,1,1,5,0.45512818658519,1.39547776947501
"385",2,24,2,1,145,2,1,1,3,0.720152972309226,1.81421693091899
"386",2,19,2,1,146,2,1,1,3,0.687452357555225,1.76254995960767
"387",2,18,2,2,147,1,2,1,4,0.248599353246836,1.06916221280041
"388",2,30,2,1,148,3,1,1,3,0.70670310539959,1.79296614120176
"389",2,36,2,2,149,3,2,1,3,0.956093608318841,2.18700313581418
"390",2,24,2,2,150,2,2,1,4,0.382501005674026,1.28072682363537
"391",2,29,2,2,151,2,1,0,2,0.675596512705127,1.74381772474451
"392",2,30,2,2,152,3,1,0,1,0.591033484787438,1.61020814063456
"393",2,23,2,2,153,3,1,0,2,1.7064104380919,3.37250372685562
"394",2,31,2,2,154,3,1,0,1,1.0523186094332,2.33903863757487
"395",2,24,2,2,155,2,2,1,4,0.441566292317846,1.37404997653261
"396",2,19,2,1,156,3,1,1,3,0.731427952614895,1.83203139980194
"397",2,18,2,1,157,3,1,1,2,1.22110425309543,2.60571995456119
"398",2,30,2,2,158,1,2,1,5,0.35982647716495,1.24490106859103
"399",2,36,2,1,159,3,2,0,2,1.14793837296173,2.49011786394994
"400",2,24,2,1,160,2,1,1,3,0.598058483409569,1.62130763845753
"401",2,29,2,2,161,3,1,0,2,0.632321076825544,1.67544253605477
"402",2,30,2,2,162,2,2,1,3,0.507069816741937,1.47754554512267
"403",2,23,2,2,163,2,2,1,3,0.493510409613952,1.45612168186045
"404",2,31,2,1,164,2,2,0,2,0.864926949586852,2.04295981501764
"405",2,24,2,1,165,3,2,0,2,1.17020239990169,2.52529502651508
"406",2,19,2,2,166,1,2,1,4,0.46438837693434,1.41010887022667
"407",2,18,2,1,167,2,1,1,3,0.662263893980079,1.72275218715893
"408",2,30,2,1,168,1,1,1,5,0.501959797551918,1.46947171480244
"409",2,36,2,2,169,3,1,0,1,1.17731698992747,2.53653607875582
"410",2,24,2,2,170,3,2,1,2,0.899399366872338,2.0974262343287
"411",2,29,2,2,171,3,2,1,3,0.934874791567773,2.15347740534749
"412",2,30,2,1,172,2,2,0,3,0.723091634372032,1.81886001697822
"413",2,23,2,2,173,2,2,1,4,0.635783859548135,1.68091373275646
"414",2,31,2,2,174,1,2,1,5,0.286038260826545,1.12831568677635
"415",2,24,2,1,175,1,1,1,5,0.525848342585995,1.50721561595628
"416",2,19,2,2,176,1,2,1,5,0.365227011250395,1.25343391244603
"417",2,18,2,2,177,3,2,1,3,1.00429388019101,2.2631595653722
"418",2,30,2,2,178,3,1,0,1,0.958511371754967,2.19082320204326
"419",2,36,2,2,179,3,2,1,2,0.893167003590354,2.08757910034317
"420",2,24,2,1,180,1,1,1,4,0.396371616914351,1.30264238939508
"421",2,29,2,2,181,1,2,1,5,0.348416139819614,1.2268727355854
"422",2,30,2,1,182,2,2,0,3,0.694060228732695,1.77299039606807
"423",2,23,2,1,183,3,2,0,1,1.49161791763756,3.03313154453775
"424",2,31,2,2,184,2,1,0,3,0.657302251553164,1.71491279212441
"425",2,24,2,1,185,2,1,1,4,0.872613723305313,2.0551049174928
"426",2,19,2,2,186,1,2,1,4,0.623143780779115,1.66094240830141
"427",2,18,2,1,187,1,1,1,4,0.357578075640367,1.24134859418219
"428",2,30,2,1,188,1,1,1,4,0.46030743359445,1.40366097974964
"429",2,36,2,1,189,1,2,0,4,0.50322188330232,1.47146581028807
"430",2,24,2,2,190,1,2,1,5,0.404645641419018,1.31571534811246
"431",2,29,2,1,191,1,1,1,4,0.395433157470664,1.30115962347406
"432",2,30,2,1,192,1,1,1,4,0.441516353959975,1.37397107392717
"433",2,23,2,1,193,2,1,1,3,0.508684840981365,1.48009728342097
"434",2,31,2,2,194,2,2,1,3,0.687446393719485,1.7625405367472
"435",2,24,2,1,195,1,1,1,4,0.32631095062184,1.19194653665292
"436",2,19,2,1,196,2,1,1,4,0.703035787228118,1.78717177849084
"437",2,18,2,2,197,2,1,0,2,0.467446126193439,1.41494011405604
"438",2,30,2,2,198,3,1,0,1,1.12953448992096,2.46103972874553
"439",2,36,2,2,199,3,2,1,2,0.996808153038961,2.25133211647197
"440",2,24,2,2,200,2,2,1,4,0.651895912466213,1.70637077636703
"441",2,29,2,1,201,1,1,1,4,0.401587401592338,1.3108833291863
"442",2,30,2,1,202,3,1,1,3,0.760331732573609,1.87769937213671
"443",2,23,2,1,203,3,2,0,2,1.03709433599631,2.31498428554459
"444",2,31,2,1,204,1,1,1,4,0.40891988037293,1.32246864565964
"445",2,24,2,1,205,1,2,0,3,0.479477184668388,1.43394918644646
"446",2,19,2,2,206,3,1,0,1,1.03996562519115,2.31952092247242
"447",2,18,2,2,207,1,2,1,5,0.566750574902414,1.57184114301622
"448",2,30,2,1,208,1,2,0,3,0.811390313324064,1.95837192972243
"449",2,36,2,1,209,3,2,0,2,1.02529412679057,2.29633995499951
"450",2,24,2,2,210,2,1,0,3,0.561359383827133,1.56332306111728
"451",2,29,2,1,211,1,2,0,4,0.598538297698157,1.6220657450335
"452",2,30,2,2,212,2,2,1,3,0.539849490241403,1.52933742925183
"453",2,23,2,1,213,2,2,0,2,0.590558803867898,1.60945814478169
"454",2,31,2,2,214,3,1,0,2,0.707407615838119,1.79407926769464
"455",2,24,2,2,215,2,1,0,3,0.717871201857977,1.81061173360601
"456",2,19,2,2,216,1,2,1,5,0.300828114146642,1.1516836550221
"457",2,18,2,1,217,3,2,0,1,0.890334596633183,2.08310389735084
"458",2,30,2,1,218,2,2,0,3,0.436088317907247,1.36539477696386
"459",2,36,2,1,219,3,2,0,2,0.706986064410092,1.79341321643835
"460",2,24,2,1,220,1,2,0,4,0.610887683842392,1.64157777514139
"461",2,29,2,1,221,3,1,1,2,0.485718549424359,1.4438105427609
"462",2,30,2,1,222,2,1,1,3,0.714920727502609,1.80594998412453
"463",2,23,2,2,223,1,1,0,4,0.441312352661949,1.37364875187629
"464",2,31,2,1,224,3,2,0,1,0.673858935964375,1.74107235349412
"465",2,24,2,1,225,3,1,1,2,0.676198479329817,1.74476883201152
"466",2,19,2,2,226,2,2,1,4,0.61306734051867,1.64502163268991
"467",2,18,2,1,227,1,1,1,5,0.481972725737098,1.43789214133502
"468",2,30,2,1,228,1,2,0,4,0.696942112431985,1.77754377231295
"469",2,36,2,1,229,3,2,0,2,1.21761798182272,2.6002116459503
"470",2,24,2,2,230,1,2,1,4,0.351249420010153,1.23134931828645
"471",2,29,2,1,231,1,2,0,4,0.595221923094598,1.61682587315987
"472",2,30,2,1,232,2,2,0,2,0.673661039478626,1.74075967704664
"473",2,23,2,2,233,3,1,0,2,0.851352446325734,2.02151209986507
"474",2,31,2,2,234,3,1,0,1,1.08627434149572,2.39268869423365
"475",2,24,2,1,235,3,1,1,3,0.73848890737531,1.8431877083234
"476",2,19,2,1,236,2,1,1,4,0.363545231402675,1.25077670028664
"477",2,18,2,2,237,3,1,0,2,1.34782685543658,2.8059416662602
"478",2,30,2,2,238,1,2,1,4,0.366133758492454,1.25486657308849
"479",2,36,2,1,239,1,1,1,5,0.357674784920111,1.24150139484418
"480",2,24,2,1,240,1,1,1,4,0.432387966101586,1.35954822111092
"481",1,21,1,2,1,1,2,1,4,0.511131044948446,1.13176006886526
"482",1,27,1,1,2,3,2,0,1,1.2946032491484,2.36964615150119
"483",1,22,1,2,3,1,2,1,4,0.46478565980636,1.05853436034077
"484",1,24,1,1,4,1,1,1,5,0.465723909610536,1.06001679503137
"485",1,28,1,2,5,3,1,0,2,1.4165335582955,2.56229603995361
"486",1,18,1,1,6,3,1,1,2,0.69954031622141,1.42944671747655
"487",1,30,1,1,7,2,1,1,3,0.474521534368628,1.07391704214915
"488",1,20,1,2,8,3,1,0,1,0.933837888663129,1.79963688193446
"489",1,24,1,2,9,2,1,0,3,0.880597084917368,1.71551641201616
"490",1,30,1,1,10,1,1,1,5,0.445316226361087,1.02777265549724
"491",1,21,1,2,11,1,2,1,5,0.473364523929757,1.07208896565574
"492",1,27,1,2,12,2,2,1,4,0.597416961011793,1.26809181624535
"493",1,22,1,2,13,3,1,0,2,1.44317421457198,2.60438827687044
"494",1,24,1,2,14,3,1,0,1,1.76789090940301,3.11744065470347
"495",1,28,1,2,15,2,1,0,2,0.760606527231361,1.52593133087227
"496",1,18,1,1,16,1,1,1,4,0.342921473771935,0.865988946406378
"497",1,30,1,1,17,3,1,1,3,1.16097412086524,2.15851212881381
"498",1,20,1,1,18,3,2,0,1,1.21525600450439,2.24427750496366
"499",1,24,1,2,19,3,2,1,2,0.994591073015597,1.89562691321136
"500",1,30,1,1,20,2,1,1,4,0.57409475605304,1.23124273241052
"501",1,21,1,1,21,2,1,1,3,0.458944619657573,1.04930551690569
"502",1,27,1,1,22,1,2,0,4,0.644897548186476,1.34311114398135
"503",1,22,1,1,23,1,1,1,4,0.514799298060145,1.13755590878175
"504",1,24,1,2,24,3,1,0,2,0.964153634621129,1.8475357605481
"505",1,28,1,2,25,2,2,1,4,0.589583468212377,1.25571489762228
"506",1,18,1,2,26,3,1,0,2,1.12237943239978,2.09753252103838
"507",1,30,1,2,27,2,2,1,3,0.623481667266047,1.30927405212707
"508",1,20,1,1,28,2,2,0,2,0.978783621803776,1.87065114029669
"509",1,24,1,1,29,2,1,1,4,0.543836206566741,1.18343422422217
"510",1,30,1,2,30,3,1,0,1,0.716421687177578,1.45611928358729
"511",1,21,1,1,31,2,1,1,4,0.612397021979969,1.29176031257507
"512",1,27,1,1,32,1,1,1,5,0.354857976017558,0.884848619954461
"513",1,22,1,1,33,3,1,1,3,0.869872811099416,1.6985720593838
"514",1,24,1,1,34,3,2,0,2,0.728019629951335,1.47444403316983
"515",1,28,1,1,35,3,2,0,1,1.4877927438297,2.67488555309765
"516",1,18,1,1,36,1,1,1,5,0.327780721103251,0.842066557189856
"517",1,30,1,2,37,3,2,1,2,0.634072837193129,1.32600810061186
"518",1,20,1,2,38,3,2,1,3,0.550976015116222,1.19471512173035
"519",1,24,1,1,39,2,2,0,3,0.586019548938069,1.25008390516887
"520",1,30,1,1,40,1,2,0,4,0.483119659141653,1.08750207929053
"521",1,21,1,2,41,1,1,0,4,0.478721846385571,1.08055353513592
"522",1,27,1,1,42,1,1,1,4,0.379350924223148,0.923547478119294
"523",1,22,1,2,43,1,2,1,5,0.497028960388875,1.10947877526114
"524",1,24,1,1,44,1,1,1,4,0.460780925136986,1.05220687956316
"525",1,28,1,2,45,1,2,1,4,0.423278132660969,0.992952467451051
"526",1,18,1,2,46,1,2,1,4,0.395022854518108,0.94830912798533
"527",1,30,1,2,47,1,1,0,4,0.469305521353502,1.06567574158525
"528",1,20,1,2,48,1,2,1,4,0.468867690659062,1.06498396908804
"529",1,24,1,2,49,3,2,1,3,0.996693957283393,1.89894947035448
"530",1,30,1,2,50,2,1,0,3,0.680875983408453,1.39995707163208
"531",1,21,1,1,51,1,1,1,5,0.351114082526812,0.878933268239083
"532",1,27,1,2,52,2,2,1,4,0.658244396673651,1.36419916459109
"533",1,22,1,1,53,2,1,1,3,0.62657213443398,1.31415699025241
"534",1,24,1,2,54,3,2,1,2,0.893763330182194,1.73631907953459
"535",1,28,1,2,55,2,1,0,3,0.563316907817656,1.21421373219862
"536",1,18,1,2,56,2,2,1,4,0.773690895686286,1.54660463303105
"537",1,30,1,1,57,2,2,0,3,0.579887759549574,1.24039567793505
"538",1,20,1,2,58,1,2,1,4,0.427030709052703,0.998881538149991
"539",1,24,1,2,59,3,2,1,2,0.868004541318908,1.6956201931306
"540",1,30,1,2,60,1,2,1,5,0.366662477053639,0.90349973159147
"541",1,21,1,2,61,1,1,0,4,0.577671160566949,1.2368934515425
"542",1,27,1,2,62,2,1,0,3,0.638592491473913,1.3331491543755
"543",1,22,1,2,63,2,2,1,4,0.474322869632312,1.07360315186577
"544",1,24,1,2,64,2,2,1,4,0.645795469320829,1.34452985937363
"545",1,28,1,2,65,1,1,0,3,0.56790219429595,1.22145848483432
"546",1,18,1,1,66,2,2,0,2,0.846019267824825,1.66088346100994
"547",1,30,1,1,67,1,1,1,5,0.459476358385241,1.0501456640954
"548",1,20,1,2,68,2,2,1,3,0.85883700131707,1.68113547992769
"549",1,24,1,2,69,3,1,0,2,0.730583566092207,1.47849505227241
"550",1,30,1,2,70,3,2,1,2,0.430287948091,1.0040279758305
"551",1,21,1,1,71,3,2,0,2,0.604662713667169,1.27954010544085
"552",1,27,1,1,72,3,2,0,2,1.58304402895484,2.82538258359536
"553",1,22,1,2,73,2,1,0,3,0.68872858811325,1.41236418706566
"554",1,24,1,2,74,1,2,1,5,0.425292512437614,0.99613518749815
"555",1,28,1,2,75,3,2,1,3,0.618314498721885,1.3011099258273
"556",1,18,1,2,76,2,1,0,2,0.874250932216962,1.70548949074952
"557",1,30,1,2,77,2,2,1,4,0.750145761380622,1.5094033208281
"558",1,20,1,2,78,1,2,1,4,0.343600084382965,0.867061151171805
"559",1,24,1,2,79,1,2,1,5,0.379390400142429,0.923609850071757
"560",1,30,1,1,80,1,2,0,3,0.364594872859748,0.900232916965122
"561",1,21,1,1,81,1,1,1,4,0.459988705512096,1.05095517255583
"562",1,27,1,2,82,2,2,1,4,0.530955862554663,1.16308328068309
"563",1,22,1,2,83,1,2,1,5,0.437711613479164,1.0157573671438
"564",1,24,1,2,84,3,2,1,3,0.758712211329201,1.52293831174686
"565",1,28,1,1,85,1,1,1,4,0.321291735315582,0.83181395964534
"566",1,18,1,2,86,2,1,0,2,0.708412750454164,1.4434651635643
"567",1,30,1,1,87,3,1,1,3,1.20071034954907,2.22129537013426
"568",1,20,1,2,88,2,2,1,3,0.90345923729137,1.75163861276708
"569",1,24,1,2,89,2,1,0,2,0.859662602162165,1.68243992926294
"570",1,30,1,1,90,2,1,1,3,0.396535227897093,0.950698677924128
"571",1,21,1,1,91,2,1,1,4,0.522181277832133,1.14921943682149
"572",1,27,1,2,92,1,1,0,4,0.603304059191692,1.27739343136959
"573",1,22,1,1,93,3,2,0,1,0.830072040362344,1.63568684161922
"574",1,24,1,1,94,3,2,0,2,1.18709334693784,2.1997805060085
"575",1,28,1,1,95,1,1,1,4,0.50941955799934,1.12905591948568
"576",1,18,1,2,96,1,2,1,4,0.477707360798221,1.07895064790791
"577",1,30,1,2,97,1,2,1,5,0.474141166051955,1.07331606020881
"578",1,20,1,1,98,2,1,1,3,0.368594829072786,0.906552847781721
"579",1,24,1,1,99,3,1,1,2,0.762257484555621,1.5285398434446
"580",1,30,1,2,100,3,1,0,1,0.993247592521547,1.89350421403076
"581",1,21,1,1,101,2,1,1,3,0.491363073000845,1.10052667318805
"582",1,27,1,1,102,1,1,1,5,0.347535053823806,0.873278402888334
"583",1,22,1,2,103,3,2,1,3,0.941422540284413,1.81162063149609
"584",1,24,1,2,104,1,2,1,5,0.481386472613986,1.08476364457682
"585",1,28,1,1,105,2,2,0,3,0.353971276761928,0.883447635130566
"586",1,18,1,2,106,2,1,0,2,0.815947040036428,1.61336934110428
"587",1,30,1,1,107,2,1,1,3,0.825681296062062,1.62874946562478
"588",1,20,1,2,108,2,2,1,4,0.505285122619931,1.12252351158621
"589",1,24,1,2,109,3,2,1,3,0.697269932253011,1.42585951080648
"590",1,30,1,1,110,2,1,1,4,0.61045203441459,1.28868723222177
"591",1,21,1,1,111,3,2,0,2,1.34499585016767,2.44926646111164
"592",1,27,1,1,112,3,2,0,1,0.815928240076352,1.61333963716736
"593",1,22,1,2,113,1,2,1,5,0.344434545605719,0.868379599903756
"594",1,24,1,1,114,3,2,0,1,1.04238248680444,1.97113734699774
"595",1,28,1,1,115,3,1,1,2,0.819202933593275,1.6185136529241
"596",1,18,1,2,116,1,2,1,4,0.327165980178145,0.841095266528189
"597",1,30,1,2,117,2,2,1,3,0.57596226689233,1.2341933995366
"598",1,20,1,1,118,3,2,0,1,1.57783560232018,2.8171532695126
"599",1,24,1,1,119,3,2,0,1,0.88015315221562,1.7148149983474
"600",1,30,1,2,120,1,2,1,4,0.365711113097599,0.901996576540927
"601",1,21,1,1,121,2,2,0,2,0.583443225487888,1.24601331411758
"602",1,27,1,2,122,1,2,1,4,0.499664084699248,1.11364227167153
"603",1,22,1,2,123,2,1,0,3,0.775604071346679,1.54962745057447
"604",1,24,1,2,124,1,2,1,4,0.523026308878101,1.15055458587412
"605",1,28,1,2,125,3,1,0,1,0.986664487899319,1.88310290872764
"606",1,18,1,1,126,2,2,0,3,0.703073984960076,1.43502991408364
"607",1,30,1,1,127,3,2,0,2,0.84252365087319,1.65536038622636
"608",1,20,1,2,128,2,2,1,4,0.461611756331357,1.05351959285026
"609",1,24,1,2,129,3,2,1,2,0.62522562145086,1.31202949973908
"610",1,30,1,2,130,3,2,1,3,0.719908029871008,1.46162770504291
"611",1,21,1,2,131,1,2,1,4,0.500854431402427,1.11552301946255
"612",1,27,1,2,132,3,1,0,2,0.749402300672071,1.50822865290859
"613",1,22,1,2,133,3,2,1,3,0.711331758823504,1.44807719678786
"614",1,24,1,1,134,3,1,1,2,0.735641975139235,1.48648733856671
"615",1,28,1,2,135,3,1,0,2,0.596705765407635,1.26696812719078
"616",1,18,1,1,136,3,1,1,3,1.02352127802138,1.9413366371205
"617",1,30,1,2,137,1,2,1,4,0.530913474897889,1.16301630818538
"618",1,20,1,2,138,3,2,1,2,0.776301102868618,1.55072876037914
"619",1,24,1,1,139,1,2,0,4,0.693378332224076,1.41971078276076
"620",1,30,1,1,140,1,1,1,4,0.461769984693436,1.05376959366235
"621",1,21,1,1,141,3,2,0,2,0.705337579340268,1.43860639320434
"622",1,27,1,1,142,1,2,0,3,0.547138409987077,1.1886517056263
"623",1,22,1,1,143,2,1,1,3,0.385709864814352,0.933594604253396
"624",1,24,1,1,144,2,2,0,2,0.488116771516539,1.09539751684285
"625",1,28,1,1,145,1,1,1,4,0.472762864182277,1.07113834325472
"626",1,18,1,1,146,1,1,1,4,0.294184679496449,0.78898481145111
"627",1,30,1,1,147,2,1,1,4,0.557029949710978,1.20428033839007
"628",1,20,1,2,148,3,2,1,3,0.519678270225653,1.14526468480325
"629",1,24,1,2,149,3,2,1,2,0.683203463612692,1.40363449035477
"630",1,30,1,2,150,1,2,1,4,0.393187585023974,0.945409402184599
"631",1,21,1,1,151,1,1,1,4,0.527362686669648,1.15740606278476
"632",1,27,1,2,152,1,2,1,4,0.311476496192469,0.816305881830821
"633",1,22,1,1,153,3,2,0,2,1.25934940779481,2.31394508216252
"634",1,24,1,1,154,1,1,1,5,0.386593110456272,0.93499013236763
"635",1,28,1,2,155,3,2,1,3,0.854466171439643,1.67422956872136
"636",1,18,1,1,156,1,1,1,4,0.541348982521919,1.17950441023135
"637",1,30,1,2,157,2,1,0,3,0.832500873223576,1.63952439753997
"638",1,20,1,1,158,1,1,1,4,0.519131929269692,1.14440146609283
"639",1,24,1,2,159,2,2,1,3,0.53545459929517,1.17019128473309
"640",1,30,1,1,160,2,1,1,4,0.388339573998029,0.937749544763606
"641",1,21,1,2,161,1,2,1,4,0.444793951280989,1.02694746087068
"642",1,27,1,2,162,3,1,0,1,1.37090070489327,2.49019613157808
"643",1,22,1,1,163,1,1,1,5,0.376714280899597,0.919381581668083
"644",1,24,1,2,164,2,1,0,2,0.394473986627452,0.947441916718095
"645",1,28,1,2,165,1,1,0,4,0.508124934349025,1.12701041411818
"646",1,18,1,1,166,3,2,0,1,0.269291843418518,0.749654130447979
"647",1,30,1,2,167,3,2,1,3,0.947458415712319,1.82115731467218
"648",1,20,1,1,168,1,1,1,5,0.350762433392676,0.878377662607149
"649",1,24,1,1,169,3,1,1,3,0.969720007803691,1.85633063017655
"650",1,30,1,1,170,2,2,0,3,0.491119908185711,1.10014247278014
"651",1,21,1,1,171,3,1,1,2,0.66498583188636,1.37485063222717
"652",1,27,1,1,172,2,1,1,3,0.681600953667201,1.4011025246409
"653",1,22,1,2,173,2,1,0,3,0.903634378122452,1.75191533528019
"654",1,24,1,1,174,2,1,1,4,0.381007606106946,0.926165035495694
"655",1,28,1,1,175,1,1,1,4,0.442268773232926,1.02295767955474
"656",1,18,1,1,176,2,2,0,2,0.687907497793686,1.41106686436074
"657",1,30,1,2,177,2,1,0,3,0.762512995553687,1.52894355082155
"658",1,20,1,1,178,1,2,0,3,0.561731508139838,1.21170880070766
"659",1,24,1,1,179,2,2,0,2,0.683427598352222,1.40398862324323
"660",1,30,1,2,180,1,1,0,3,0.426057892848241,0.997344488546942
"661",1,21,1,1,181,2,2,0,2,0.609991099707983,1.28795895538533
"662",1,27,1,1,182,1,1,1,5,0.387956231622284,0.937143863809928
"663",1,22,1,1,183,3,1,1,3,0.656053439525004,1.36073745229623
"664",1,24,1,2,184,2,2,1,4,0.77439126963479,1.54771122386969
"665",1,28,1,1,185,3,2,0,2,1.54229536613735,2.76099969634374
"666",1,18,1,2,186,1,2,1,4,0.430638686594777,1.00458214266647
"667",1,30,1,1,187,2,1,1,4,0.502873211418064,1.11871269188726
"668",1,20,1,2,188,2,2,1,3,0.743441797130473,1.49881105731287
"669",1,24,1,1,189,3,1,1,3,0.959262890113575,1.83980838422617
"670",1,30,1,1,190,2,1,1,4,0.539057842731863,1.17588440936306
"671",1,21,1,1,191,2,2,0,3,0.548288920948212,1.1904695129449
"672",1,27,1,1,192,3,2,0,2,0.812545241493569,1.60799449940656
"673",1,22,1,1,193,2,1,1,4,0.652223898235704,1.35468677705913
"674",1,24,1,1,194,3,2,0,2,1.75209257598223,3.09247928789865
"675",1,28,1,2,195,2,2,1,3,0.658805502789131,1.36508571225355
"676",1,18,1,2,196,3,2,1,3,0.914713907214319,1.76942099124534
"677",1,30,1,2,197,1,1,0,4,0.433586303958943,1.00923937810185
"678",1,20,1,1,198,1,1,1,5,0.419047979660037,0.986268825709578
"679",1,24,1,2,199,3,2,1,3,1.06944410940728,2.01389471071022
"680",1,30,1,2,200,3,2,1,2,0.967602907303299,1.85298561138593
"681",1,21,1,1,201,2,1,1,4,0.692804317272897,1.4188038391379
"682",1,27,1,2,202,1,2,1,4,0.249821570093273,0.718891098594092
"683",1,22,1,2,203,2,2,1,3,0.446516183870154,1.02966858836156
"684",1,24,1,1,204,3,2,0,2,1.58273662020682,2.82489687777349
"685",1,28,1,1,205,1,1,1,5,0.42477552987877,0.995318355055177
"686",1,18,1,1,206,3,2,0,1,1.7146671676342,3.03334714270875
"687",1,30,1,1,207,2,1,1,4,0.553230329727773,1.1982769388166
"688",1,20,1,2,208,3,2,1,2,0.855083298602785,1.67520462963912
"689",1,24,1,1,209,2,2,0,2,0.586432404898569,1.25073621758646
"690",1,30,1,1,210,2,1,1,4,0.695340418340238,1.4228108788243
"691",1,21,1,2,211,1,2,1,5,0.405715303718841,0.965203197722489
"692",1,27,1,1,212,1,1,1,4,0.464938414995617,1.0587757135398
"693",1,22,1,1,213,3,1,1,2,0.953965630774106,1.83143871446981
"694",1,24,1,1,214,2,1,1,3,0.504505921677369,1.12129237409696
"695",1,28,1,2,215,2,2,1,4,0.423301831702552,0.992989911936752
"696",1,18,1,2,216,1,2,1,5,0.407413879112496,0.967886946844464
"697",1,30,1,2,217,2,2,1,3,0.603620767704093,1.27789383081919
"698",1,20,1,1,218,1,1,1,5,0.457272871575142,1.04666415493544
"699",1,24,1,2,219,3,2,1,2,0.78445136540353,1.5636061751843
"700",1,30,1,2,220,2,2,1,3,0.490663847299236,1.09942189657951
"701",1,21,1,1,221,3,2,0,2,1.26998463541463,2.33074874180183
"702",1,27,1,1,222,1,1,1,5,0.361662355387791,0.89559953935943
"703",1,22,1,2,223,2,1,0,3,0.770454587546116,1.54149126616958
"704",1,24,1,1,224,1,2,0,3,0.476097659603336,1.07640732001999
"705",1,28,1,1,225,3,1,1,2,1.26294396637025,2.31962448471171
"706",1,18,1,2,226,2,2,1,3,0.512078943215965,1.13325774812795
"707",1,30,1,1,227,3,2,0,1,0.708424252378329,1.44348333660448
"708",1,20,1,1,228,3,2,0,1,0.51839541939971,1.14323778049826
"709",1,24,1,2,229,1,2,1,5,0.453648413748714,1.04093751156969
"710",1,30,1,1,230,1,1,1,5,0.308412447795033,0.811464685362872
"711",1,21,1,1,231,1,1,1,4,0.288102413584451,0.779374831310153
"712",1,27,1,2,232,3,1,0,2,0.640014969228516,1.33539666922778
"713",1,22,1,2,233,2,1,0,3,0.762967973226505,1.5296624155446
"714",1,24,1,2,234,3,1,0,2,1.05022510372176,1.9835286817271
"715",1,28,1,1,235,1,1,1,5,0.493484099135554,1.1038778944809
"716",1,18,1,2,236,2,2,1,4,0.641539626176044,1.33780562720487
"717",1,30,1,1,237,1,1,1,5,0.310275724928158,0.81440866323321
"718",1,20,1,2,238,3,2,1,3,0.753888180647587,1.51531634326991
"719",1,24,1,1,239,3,1,1,2,0.696933033689851,1.42532721107669
"720",1,30,1,1,240,2,2,0,2,0.696686602082216,1.42493784913662
