"","subj_no","age","group","stim","trial","difficulty","resp","corr","conf","RT_day1","RT_day2"
"1",4,23,2,1,1,1,1,1,5,0.493059492341796,0.493726688691947
"2",4,33,2,2,2,2,2,1,3,0.508186495220846,0.517627353240846
"3",4,32,2,1,3,3,2,0,2,1.09907422160386,1.45122996092601
"4",4,19,2,2,4,2,2,1,4,0.641546990021829,0.728336935026399
"5",4,23,2,2,5,1,2,1,5,0.400291167808732,0.347152735929707
"6",4,36,2,1,6,2,2,0,2,0.78613241756159,0.956781910539221
"7",4,22,2,2,7,1,1,0,3,0.603933555524593,0.668907708520767
"8",4,39,2,2,8,3,2,1,3,0.785700173341339,0.956098964671225
"9",4,24,2,2,9,1,2,1,5,0.518701588664621,0.53424120088201
"10",4,18,2,2,10,1,2,1,4,0.483270925811658,0.478260753574329
"11",4,23,2,1,11,2,1,1,3,0.502232076550323,0.508219371741419
"12",4,33,2,1,12,1,1,1,5,0.450338531020307,0.426227569803995
"13",4,32,2,2,13,1,2,1,4,0.359020147283582,0.28194452349997
"14",4,19,2,2,14,3,1,0,2,1.19019516953236,1.59520105865304
"15",4,23,2,2,15,2,2,1,4,0.41890378592393,0.376560672551718
"16",4,36,2,2,16,3,1,0,1,0.40217651654556,0.350131586933894
"17",4,22,2,2,17,3,2,1,2,0.516735701791263,0.531135099622105
"18",4,39,2,2,18,2,2,1,3,0.605880598077586,0.671984035754496
"19",4,24,2,1,19,2,2,0,2,0.612726290975285,0.682800230532859
"20",4,18,2,1,20,2,2,0,2,0.731863290613291,0.871036689960909
"21",4,23,2,2,21,1,2,1,5,0.357266768919558,0.279174185684811
"22",4,33,2,2,22,2,2,1,4,0.689941719568779,0.80480060771058
"23",4,32,2,1,23,3,1,1,2,0.679002627078985,0.787516841576706
"24",4,19,2,1,24,1,1,1,4,0.308161245582246,0.201587458811858
"25",4,23,2,1,25,3,1,1,3,0.939725964724026,1.19945971505587
"26",4,36,2,2,26,3,1,0,1,1.06892862375964,1.40359991633214
"27",4,22,2,1,27,1,1,1,5,0.50812087801479,0.517523678055278
"28",4,39,2,1,28,3,2,0,2,1.03893272255093,1.35620639242238
"29",4,24,2,1,29,3,1,1,2,1.03496571441792,1.34993851957222
"30",4,18,2,1,30,2,2,0,2,0.510535554006608,0.521338866122351
"31",4,23,2,1,31,2,2,0,3,0.609053735414593,0.676997592746967
"32",4,33,2,2,32,2,1,0,2,0.907089848814579,1.14789465191894
"33",4,32,2,1,33,1,1,1,4,0.434343178888927,0.400954913436414
"34",4,19,2,2,34,2,2,1,4,0.73650864739854,0.878376353681602
"35",4,23,2,1,35,3,1,1,2,0.619684261014196,0.693793823194339
"36",4,36,2,1,36,1,1,1,4,0.384352093136771,0.321968997948007
"37",4,22,2,2,37,1,2,1,4,0.406550540985545,0.357042545549071
"38",4,39,2,2,38,3,1,0,1,1.257440299831,1.70144836452488
"39",4,24,2,1,39,1,1,1,5,0.377676502223165,0.31142156430451
"40",4,18,2,1,40,3,1,1,2,1.16874897815793,1.56131607628144
"41",4,23,2,2,41,3,1,0,1,0.703646653378025,0.826454403129189
"42",4,33,2,2,42,3,2,1,2,0.861390804517252,1.07569016192917
"43",4,32,2,2,43,2,2,1,4,0.4185329734219,0.375974788798512
"44",4,19,2,1,44,3,2,0,1,1.28813364557597,1.74994385080194
"45",4,23,2,1,45,1,1,1,4,0.455189357964039,0.433891876375091
"46",4,36,2,1,46,1,2,0,3,0.547913448000562,0.580395938632798
"47",4,22,2,1,47,2,2,0,3,0.528336240452268,0.549463950706492
"48",4,39,2,1,48,3,1,1,2,0.643372427036263,0.731221125509205
"49",4,24,2,1,49,1,1,1,4,0.418109215522329,0.375305251317189
"50",4,18,2,2,50,2,1,0,3,0.65615891661251,0.751423779039676
"51",4,23,2,1,51,3,2,0,1,1.09691663077072,1.44782096740965
"52",4,33,2,1,52,1,1,1,4,0.468090256828403,0.454275296580787
"53",4,32,2,2,53,1,2,1,4,0.328566681128091,0.233828046974294
"54",4,19,2,1,54,1,1,1,4,0.437113708278437,0.405332349871841
"55",4,23,2,2,55,2,2,1,3,0.447605335198972,0.421909120406285
"56",4,36,2,2,56,2,1,0,3,0.778194950945166,0.944240713285273
"57",4,22,2,2,57,3,1,0,2,0.830127399032492,1.02629398126325
"58",4,39,2,2,58,2,1,0,3,0.85260925265047,1.06181530997965
"59",4,24,2,1,59,2,2,0,3,0.960342209634626,1.23203338201462
"60",4,18,2,2,60,1,2,1,5,0.464468044280097,0.448552200754462
"61",4,23,2,2,61,1,2,1,4,0.416255146370529,0.372375822057345
"62",4,33,2,1,62,3,2,0,2,1.28105690985566,1.73876260836385
"63",4,32,2,2,63,3,2,1,3,0.722821908872166,0.856751306809932
"64",4,19,2,2,64,3,1,0,1,0.735291423560101,0.876453140016869
"65",4,23,2,2,65,1,2,1,4,0.44539641329608,0.418419023799715
"66",4,36,2,1,66,3,2,0,2,1.49065403622773,2.06992606803172
"67",4,22,2,1,67,2,2,0,3,0.764230100880609,0.922176250183271
"68",4,39,2,2,68,3,1,0,1,0.86766375902215,1.08560143004691
"69",4,24,2,1,69,1,1,1,5,0.429500980126736,0.393304239392153
"70",4,18,2,2,70,1,2,1,5,0.426484532949475,0.38853825285208
"71",4,23,2,1,71,3,1,1,2,0.894954516368553,1.12872082665422
"72",4,33,2,1,72,2,1,1,3,0.63655690121233,0.72045259470739
"73",4,32,2,2,73,1,2,1,5,0.297083894226456,0.18408524366971
"74",4,19,2,2,74,2,2,1,3,0.546218983241007,0.577718684312701
"75",4,23,2,2,75,3,2,1,3,0.819553247571662,1.00958682195514
"76",4,36,2,2,76,2,1,0,2,0.788943807953898,0.961223907359069
"77",4,22,2,2,77,3,2,1,3,0.703037688927713,0.825492239297696
"78",4,39,2,1,78,2,1,1,4,0.52959835376312,0.55145808973764
"79",4,24,2,2,79,2,2,1,4,0.607846741046853,0.675090541645937
"80",4,18,2,1,80,2,2,0,3,0.781378016103843,0.949269956235982
"81",4,23,2,2,81,3,2,1,2,0.724598655137244,0.859558565908755
"82",4,33,2,1,82,1,2,0,4,0.63103301945531,0.711724861531299
"83",4,32,2,2,83,3,1,0,1,0.865360702847624,1.08196260129116
"84",4,19,2,2,84,2,2,1,4,0.482495276582385,0.477035227792079
"85",4,23,2,2,85,3,2,1,3,1.12069305814603,1.48538772266264
"86",4,36,2,2,86,3,2,1,3,0.652938694292451,0.746335827773983
"87",4,22,2,1,87,1,1,1,5,0.484042217157347,0.479479393900517
"88",4,39,2,1,88,3,2,0,1,0.908912358221723,1.15077421678223
"89",4,24,2,1,89,1,2,0,3,0.705728163059789,0.829743188426376
"90",4,18,2,1,90,2,2,0,2,0.710951708658909,0.837996390472987
"91",4,23,2,2,91,3,1,0,1,0.932880809545341,1.18864436987355
"92",4,33,2,2,92,1,1,0,3,0.585276848155333,0.639430110877335
"93",4,32,2,1,93,2,2,0,2,0.714668769708262,0.843869346930963
"94",4,19,2,2,94,1,2,1,5,0.403236711096532,0.35180669432443
"95",4,23,2,1,95,1,2,0,4,0.570331696743496,0.615816771646634
"96",4,36,2,1,96,3,2,0,1,0.844578118777999,1.04912611846115
"97",4,22,2,2,97,2,2,1,4,0.565102758592696,0.607555049368369
"98",4,39,2,2,98,3,2,1,2,0.874843086470974,1.09694476741605
"99",4,24,2,1,99,3,1,1,2,0.548772813965618,0.581753736857586
"100",4,18,2,1,100,2,1,1,4,0.699597702664625,0.820057061002016
"101",4,23,2,1,101,3,1,1,3,0.86718609042508,1.08484671366354
"102",4,33,2,1,102,1,1,1,5,0.294682939629946,0.180291735407224
"103",4,32,2,1,103,1,1,1,5,0.345670266193498,0.260851711377637
"104",4,19,2,2,104,2,2,1,3,0.541712691398525,0.57059874320158
"105",4,23,2,2,105,1,2,1,4,0.376750108826039,0.309957862737051
"106",4,36,2,2,106,3,1,0,1,1.17092429971094,1.5647530843352
"107",4,22,2,1,107,3,1,1,3,1.14757411676463,1.52785979528003
"108",4,39,2,2,108,1,2,1,5,0.385196545186964,0.323303232187312
"109",4,24,2,1,109,1,1,1,4,0.28686220620728,0.167934976599412
"110",4,18,2,2,110,3,1,0,2,1.55963690048573,2.17891899355937
"111",4,23,2,2,111,2,2,1,3,0.653820757000878,0.747729486853296
"112",4,33,2,2,112,2,2,1,4,0.638170023353393,0.723001327690271
"113",4,32,2,1,113,3,1,1,2,1.05364191418261,1.37944691520044
"114",4,19,2,2,114,1,2,1,5,0.387238811868593,0.326530013544287
"115",4,23,2,2,115,3,2,1,3,0.617048883193952,0.689629926238354
"116",4,36,2,1,116,3,1,1,3,0.559543533429837,0.598771473611052
"117",4,22,2,2,117,3,2,1,3,0.983766266199238,1.26904339138671
"118",4,39,2,2,118,3,2,1,2,0.860155211800376,1.0737379254365
"119",4,24,2,2,119,3,1,0,1,1.50589808549094,2.09401166586759
"120",4,18,2,1,120,1,1,1,4,0.458069088675148,0.438441850898644
"121",4,23,2,1,121,1,1,1,5,0.239333730284652,0.0928399846416591
"122",4,33,2,1,122,1,1,1,5,0.397297963946282,0.342423473827035
"123",4,32,2,2,123,2,2,1,4,0.79768253909286,0.975031102558629
"124",4,19,2,2,124,2,2,1,3,0.610136321663396,0.678708079020076
"125",4,23,2,1,125,1,1,1,4,0.307409273798329,0.20039934339327
"126",4,36,2,1,126,1,1,1,4,0.384507844502957,0.322215085106582
"127",4,22,2,1,127,1,1,1,5,0.370614430122024,0.300263490384708
"128",4,39,2,1,128,1,1,1,4,0.394364080818131,0.337787938484557
"129",4,24,2,1,129,1,2,0,4,0.604766476292415,0.670223723333925
"130",4,18,2,1,130,2,1,1,4,0.59038912774789,0.647507512633576
"131",4,23,2,2,131,2,2,1,4,0.85223308966151,1.06122097245709
"132",4,33,2,2,132,1,2,1,5,0.390213910945422,0.331230670085677
"133",4,32,2,2,133,3,1,0,1,1.29815228478199,1.76577330074745
"134",4,19,2,2,134,2,1,0,2,0.53057493107361,0.553001081888213
"135",4,23,2,1,135,2,2,0,2,0.874125817027124,1.09581148169477
"136",4,36,2,1,136,2,1,1,3,0.386792482711055,0.325824813475377
"137",4,22,2,1,137,2,2,0,2,0.623032602634279,0.699084202954071
"138",4,39,2,1,138,2,1,1,3,0.758708099140172,0.913451487433381
"139",4,24,2,2,139,3,2,1,3,1.14952962836823,1.53094950361372
"140",4,18,2,1,140,2,1,1,4,0.590062935863335,0.646992129455978
"141",4,23,2,1,141,1,1,1,5,0.495252592491944,0.497191786929181
"142",4,33,2,1,142,2,2,0,3,0.715584478553918,0.845316166907099
"143",4,32,2,2,143,1,2,1,5,0.369429974078904,0.298392049836578
"144",4,19,2,1,144,3,2,0,2,1.39813959645861,1.92375325319651
"145",4,23,2,1,145,2,1,1,3,0.447783291567479,0.422190291468526
"146",4,36,2,2,146,2,1,0,3,0.650233602403229,0.742061782589012
"147",4,22,2,2,147,2,2,1,4,0.475199493307558,0.465507890217852
"148",4,39,2,1,148,2,1,1,4,0.76675577319161,0.926166812434653
"149",4,24,2,1,149,3,2,0,1,0.523577937100125,0.541945831410107
"150",4,18,2,1,150,1,2,0,3,0.541970467561438,0.571006029538982
"151",4,23,2,1,151,1,1,1,4,0.460824221490738,0.442794960747276
"152",4,33,2,2,152,1,2,1,4,0.213849077507494,0.0525742332537506
"153",4,32,2,2,153,2,1,0,3,0.831593535854761,1.02861047744243
"154",4,19,2,1,154,1,1,1,4,0.349045668366253,0.266184846810589
"155",4,23,2,1,155,3,2,0,1,1.3614341032861,1.86575857398395
"156",4,36,2,1,156,3,2,0,1,1.10250397389565,1.45664896954704
"157",4,22,2,2,157,1,2,1,5,0.415918627297235,0.371844121921542
"158",4,39,2,1,158,1,1,1,5,0.304437367326916,0.195703731168437
"159",4,24,2,1,159,1,2,0,4,0.550279133423089,0.58413372160039
"160",4,18,2,1,160,3,1,1,3,0.854822184929961,1.06531174298125
"161",4,23,2,2,161,3,1,0,2,0.952624102216871,1.21983877229456
"162",4,33,2,1,162,3,1,1,3,0.557981880620452,0.596304062172224
"163",4,32,2,2,163,2,2,1,3,0.717222128923915,0.847903654491696
"164",4,19,2,1,164,3,1,1,3,0.754836707422732,0.907334688519827
"165",4,23,2,1,165,2,1,1,3,0.498871923634617,0.502910330134604
"166",4,36,2,1,166,2,2,0,2,0.647271346276361,0.73738141790856
"167",4,22,2,1,167,1,2,0,4,0.59609684253768,0.656525702001444
"168",4,39,2,2,168,3,1,0,2,1.38230221290322,1.89873018717899
"169",4,24,2,1,169,1,2,0,4,0.347842578316282,0.264283964531635
"170",4,18,2,2,170,2,2,1,3,0.650394741828384,0.742316382880757
"171",4,23,2,2,171,2,2,1,4,0.485367687439109,0.481573636945702
"172",4,33,2,1,172,2,1,1,3,0.429744712048388,0.393689335828362
"173",4,32,2,1,173,1,1,1,4,0.375100614317169,0.307351661413037
"174",4,19,2,2,174,3,1,0,2,0.843628255241617,1.04762533407366
"175",4,23,2,2,175,2,2,1,3,0.567650765860671,0.61158090085177
"176",4,36,2,2,176,2,2,1,4,0.654943341927571,0.749503171037472
"177",4,22,2,2,177,3,1,0,1,1.00286537899472,1.29921998960356
"178",4,39,2,2,178,2,2,1,3,0.574906914413448,0.623045615565158
"179",4,24,2,1,179,2,2,0,2,0.907675004352652,1.1488191976691
"180",4,18,2,1,180,3,2,0,1,1.4883739070058,2.06632346386108
"181",4,23,2,2,181,2,1,0,3,0.883512018150736,1.11064167947007
"182",4,33,2,1,182,1,1,1,4,0.515641589940911,0.529406402898549
"183",4,32,2,1,183,1,1,1,4,0.28469303352535,0.164507683761963
"184",4,19,2,2,184,2,1,0,2,0.923966244228594,1.17455935667309
"185",4,23,2,1,185,1,1,1,4,0.366075842570725,0.293092522053655
"186",4,36,2,1,186,2,1,1,4,0.703228540750736,0.825793785178073
"187",4,22,2,2,187,1,2,1,4,0.443548097954318,0.415498685559732
"188",4,39,2,1,188,3,2,0,2,0.829880278542415,1.02590353088893
"189",4,24,2,2,189,2,1,0,2,0.799775082861504,0.978337321713086
"190",4,18,2,2,190,1,2,1,4,0.312969362565482,0.209184283645371
"191",4,23,2,1,191,3,1,1,2,0.994920620855312,1.2866672717433
"192",4,33,2,1,192,2,1,1,3,0.504846443673416,0.512350071795907
"193",4,32,2,2,193,2,1,0,3,0.698053277710992,0.817616869575277
"194",4,19,2,1,194,1,1,1,4,0.450413252384449,0.426345629559338
"195",4,23,2,2,195,2,1,0,2,0.310345168315838,0.205038056730934
"196",4,36,2,2,196,3,2,1,2,0.916612036141817,1.16293970789598
"197",4,22,2,1,197,3,2,0,2,1.00235323206018,1.298410797447
"198",4,39,2,2,198,2,2,1,4,0.432925960737887,0.398715708757771
"199",4,24,2,2,199,1,1,0,3,0.619433697011807,0.693397932070564
"200",4,18,2,2,200,1,2,1,5,0.321810165369894,0.223152752076341
"201",4,23,2,1,201,1,1,1,4,0.578628948279867,0.628926429074099
"202",4,33,2,1,202,3,1,1,2,0.775739986774015,0.940361869894853
"203",4,32,2,2,203,3,1,0,2,1.3300089858608,1.81610688845197
"204",4,19,2,1,204,1,1,1,4,0.38786463887778,0.327518820218802
"205",4,23,2,2,205,3,1,0,1,0.509437590212385,0.519604083327478
"206",4,36,2,2,206,3,2,1,2,0.463694476174856,0.447329963148182
"207",4,22,2,2,207,1,2,1,5,0.420133826690357,0.378504136962674
"208",4,39,2,2,208,3,2,1,2,1.2343202304516,1.66491865490544
"209",4,24,2,1,209,1,1,1,4,0.439416398190795,0.408970599933365
"210",4,18,2,1,210,3,2,0,1,1.35075300227871,1.84888243439228
"211",4,23,2,2,211,3,1,0,2,0.793405861664403,0.968273952221667
"212",4,33,2,2,212,1,2,1,4,0.570481720520781,0.616053809214744
"213",4,32,2,1,213,2,1,1,4,0.481935190560069,0.476150291876819
"214",4,19,2,1,214,2,2,0,3,0.629674273988714,0.709578043694078
"215",4,23,2,2,215,1,2,1,4,0.465489363943663,0.450165885822898
"216",4,36,2,2,216,1,2,1,5,0.432093872610027,0.397401009515752
"217",4,22,2,1,217,3,1,1,2,0.572176251450721,0.61873116808405
"218",4,39,2,2,218,3,1,0,1,0.823789831016542,1.01628062379805
"219",4,24,2,2,219,1,2,1,5,0.571843884147531,0.618206027745008
"220",4,18,2,2,220,2,2,1,4,0.793845683425315,0.968968870603907
"221",4,23,2,1,221,1,1,1,5,0.428958756304172,0.392447525752501
"222",4,33,2,2,222,2,1,0,2,0.721860054653853,0.855231577144997
"223",4,32,2,1,223,3,1,1,2,0.829366249708231,1.02509136533091
"224",4,19,2,2,224,3,2,1,2,0.784356253331482,0.953975571055651
"225",4,23,2,2,225,2,2,1,4,0.463574099544235,0.447139768071801
"226",4,36,2,1,226,2,2,0,2,0.717838118421432,0.848876917897772
"227",4,22,2,1,227,1,1,1,5,0.403255124031344,0.351835786761433
"228",4,39,2,1,228,1,1,1,5,0.332265875385501,0.239672773901001
"229",4,24,2,2,229,3,1,0,1,0.97784019499481,1.25968019888371
"230",4,18,2,2,230,2,2,1,4,0.536221710973099,0.561922994129406
"231",4,23,2,2,231,1,1,0,4,0.59797009856196,0.659485446519807
"232",4,33,2,1,232,3,1,1,2,0.536455273248092,0.562292022523895
"233",4,32,2,1,233,1,1,1,5,0.441928159530741,0.412939182850481
"234",4,19,2,1,234,3,2,0,1,1.12184352326999,1.4872054575585
"235",4,23,2,1,235,3,2,0,1,0.760702645197494,0.916602870203949
"236",4,36,2,2,236,2,1,0,2,0.808364942285382,0.991909299602812
"237",4,22,2,2,237,2,2,1,3,0.624703279889963,0.701723873018051
"238",4,39,2,1,238,2,2,0,2,0.676383215680137,0.783378171566525
"239",4,24,2,2,239,2,1,0,2,0.845335145131511,1.0503222200997
"240",4,18,2,2,240,3,2,1,3,1.09082847278444,1.43820167779133
"241",3,32,1,2,1,1,2,1,4,0.342558966151848,0.0492878698663313
"242",3,26,1,2,2,2,1,0,2,1.03855331857995,1.14895894670273
"243",3,23,1,2,3,3,2,1,2,0.733121448622747,0.666376592170352
"244",3,28,1,1,4,3,1,1,3,0.857857171963613,0.863459035048921
"245",3,36,1,1,5,3,2,0,2,1.35506722910056,1.64905092532529
"246",3,30,1,1,6,3,2,0,1,1.13761797054414,1.30548109680615
"247",3,34,1,2,7,2,2,1,4,0.520482237580037,0.330406638722871
"248",3,25,1,2,8,2,2,1,3,0.779047567180796,0.73893985949207
"249",3,36,1,1,9,1,1,1,4,0.488848012361237,0.280424562877167
"250",3,36,1,2,10,2,1,0,3,0.527954196284212,0.342212333475468
"251",3,32,1,2,11,1,2,1,5,0.287084887475486,-0.0383611744423201
"252",3,26,1,2,12,1,2,1,5,0.518676098970211,0.327552939719345
"253",3,23,1,2,13,3,1,0,2,0.872160098013974,0.88605765820849
"254",3,28,1,1,14,1,1,1,4,0.301707956624345,-0.0152567251871232
"255",3,36,1,1,15,3,1,1,2,1.09507085507465,1.23825665436436
"256",3,30,1,2,16,2,2,1,3,0.445587858262692,0.212073519401465
"257",3,34,1,1,17,3,2,0,2,1.44942523819206,1.79813657968986
"258",3,25,1,1,18,2,2,0,2,0.696058063784727,0.607816444126281
"259",3,36,1,1,19,3,1,1,2,1.062568526486,1.18690297519429
"260",3,36,1,2,20,3,2,1,2,0.696600831997187,0.608674017901967
"261",3,32,1,1,21,3,2,0,1,0.815638037695072,0.796752802904626
"262",3,26,1,2,22,1,2,1,4,0.486975704460307,0.277466316393697
"263",3,23,1,1,23,1,1,1,4,0.469068891945899,0.249173552620933
"264",3,28,1,2,24,2,2,1,4,0.708913062135858,0.628127341521068
"265",3,36,1,2,25,1,2,1,4,0.5644399352517,0.399859801044098
"266",3,30,1,2,26,1,2,1,4,0.259410134491047,-0.0820872841577331
"267",3,34,1,2,27,2,1,0,3,0.682398249245773,0.586233937154734
"268",3,25,1,1,28,3,1,1,2,0.929027743693385,0.975908538381961
"269",3,36,1,1,29,3,2,0,2,1.25695572462372,1.49403474825189
"270",3,36,1,1,30,2,2,0,2,0.454359761456062,0.22593312644699
"271",3,32,1,2,31,1,2,1,4,0.467781703276702,0.247139794523601
"272",3,26,1,1,32,2,1,1,3,0.469972511441298,0.250601271423663
"273",3,23,1,2,33,2,1,0,2,0.684119628518303,0.58895371640533
"274",3,28,1,2,34,1,1,0,4,0.704346620465226,0.620912363681468
"275",3,36,1,1,35,3,1,1,3,1.04903070508362,1.16551321737853
"276",3,30,1,1,36,2,2,0,3,0.792837389866524,0.76072777933552
"277",3,34,1,2,37,1,1,0,4,0.631451028445914,0.505737328290957
"278",3,25,1,2,38,1,2,1,4,0.534991508505425,0.353331286784983
"279",3,36,1,2,39,2,1,0,3,0.667250836135581,0.56230102444063
"280",3,36,1,1,40,3,1,1,3,0.617608935491446,0.483866821422897
"281",3,32,1,2,41,2,2,1,4,0.547688973590983,0.373393281620165
"282",3,26,1,1,42,2,2,0,3,0.84032924915304,0.835764917008215
"283",3,23,1,2,43,3,2,1,2,0.591173426622665,0.442098717410223
"284",3,28,1,2,44,3,1,0,1,1.36716374293745,1.66816341718759
"285",3,36,1,2,45,2,2,1,3,0.745375539172682,0.685738055239249
"286",3,30,1,2,46,3,2,1,2,0.688851490681365,0.596430058622969
"287",3,34,1,2,47,1,2,1,5,0.426863379506846,0.182488842967228
"288",3,25,1,1,48,1,1,1,5,0.476407732386773,0.260768920517513
"289",3,36,1,1,49,2,2,0,2,0.704162074221743,0.620620780616765
"290",3,36,1,1,50,1,1,1,4,0.38160634071562,0.110982721677092
"291",3,32,1,1,51,1,1,1,4,0.503442391707304,0.303483682243952
"292",3,26,1,1,52,1,2,0,3,0.50969350039678,0.313360433973324
"293",3,23,1,2,53,3,2,1,3,1.09607225663796,1.23983886883438
"294",3,28,1,1,54,1,1,1,5,0.389225645810161,0.123021223726466
"295",3,36,1,1,55,1,1,1,5,0.391669994443768,0.126883294567565
"296",3,30,1,2,56,3,2,1,3,0.82868349774869,0.817364629789343
"297",3,34,1,2,57,1,2,1,4,0.275047066123672,-0.0573809321781866
"298",3,25,1,1,58,2,1,1,4,0.42178633769301,0.174467116901368
"299",3,36,1,1,59,3,1,1,3,0.629291145886046,0.502324713846365
"300",3,36,1,2,60,3,2,1,3,0.475110028944023,0.258718549077968
"301",3,32,1,1,61,3,2,0,1,2.06703076429072,2.77395331092575
"302",3,26,1,2,62,1,2,1,5,0.462287180896891,0.238458449163499
"303",3,23,1,2,63,3,2,1,3,1.03295355777394,1.14011132462923
"304",3,28,1,1,64,1,1,1,4,0.417878752807232,0.168293132781838
"305",3,36,1,1,65,2,2,0,3,0.503758534086851,0.303983187203636
"306",3,30,1,2,66,2,1,0,2,0.738549334528011,0.67495265190067
"307",3,34,1,1,67,3,1,1,3,0.806815277556054,0.782812841884977
"308",3,25,1,2,68,2,2,1,3,0.624556504287791,0.494843980121122
"309",3,36,1,2,69,3,2,1,3,0.886127473145335,0.908126110916041
"310",3,36,1,2,70,1,1,0,3,0.509261812448659,0.312678367015293
"311",3,32,1,1,71,3,1,1,2,0.53135017860079,0.34757798553566
"312",3,26,1,1,72,2,1,1,3,0.751989628415194,0.696188316242418
"313",3,23,1,1,73,3,2,0,1,0.566894104785652,0.403737388907743
"314",3,28,1,2,74,2,2,1,4,0.595778776767359,0.449375170638839
"315",3,36,1,1,75,3,1,1,2,0.429223324844826,0.186217556601237
"316",3,30,1,1,76,2,1,1,3,0.570911690300744,0.410085174021587
"317",3,34,1,1,77,2,1,1,4,0.291541508178325,-0.0313197137318346
"318",3,25,1,1,78,2,1,1,4,0.486230347968484,0.276288653136616
"319",3,36,1,2,79,2,1,0,3,0.670931763040104,0.568116888949776
"320",3,36,1,1,80,1,2,0,4,0.69658440541639,0.608648063904308
"321",3,32,1,1,81,1,2,0,3,0.483632243354106,0.272183647845899
"322",3,26,1,2,82,1,1,0,3,0.506751213359824,0.308711620454934
"323",3,23,1,2,83,3,2,1,2,0.79998467770865,0.772020494126079
"324",3,28,1,2,84,1,2,1,4,0.340115795791694,0.0454276606972879
"325",3,36,1,1,85,2,1,1,3,0.735090451839152,0.669487617252272
"326",3,30,1,1,86,3,2,0,2,1.27186497709173,1.51759136715135
"327",3,34,1,2,87,2,2,1,3,0.595226681993616,0.448502860896326
"328",3,25,1,2,88,2,2,1,4,0.620625786989515,0.488633446789845
"329",3,36,1,2,89,2,1,0,2,0.782869533575696,0.744978566396011
"330",3,36,1,1,90,3,2,0,2,1.38501331684497,1.69636574396146
"331",3,32,1,2,91,2,1,0,2,0.711379471535729,0.632024268372864
"332",3,26,1,2,92,1,1,0,3,0.586294063219064,0.434389323232532
"333",3,23,1,2,93,3,1,0,1,0.669278942583654,0.565505432628585
"334",3,28,1,1,94,2,2,0,3,0.785767447390571,0.749557270223514
"335",3,36,1,1,95,1,1,1,5,0.634815608373277,0.51105336457619
"336",3,30,1,2,96,3,1,0,1,1.31194744984607,1.58092167410321
"337",3,34,1,1,97,1,1,1,5,0.304998533924686,-0.0100576130525844
"338",3,25,1,2,98,2,1,0,2,0.851621501629479,0.853606675920988
"339",3,36,1,1,99,2,1,1,3,0.737460352862493,0.673232060869151
"340",3,36,1,1,100,2,1,1,3,0.545598924750196,0.370091004451722
"341",3,32,1,2,101,1,2,1,5,0.395204738584743,0.132468190310305
"342",3,26,1,1,102,3,2,0,1,0.928177811766037,0.974565645936751
"343",3,23,1,2,103,3,2,1,3,1.07851948451194,1.21210548887528
"344",3,28,1,2,104,1,2,1,5,0.516962063389389,0.324844763501647
"345",3,36,1,2,105,3,2,1,2,0.923673975875154,0.967449585229155
"346",3,30,1,1,106,1,2,0,4,0.359073778051616,0.0753812726679658
"347",3,34,1,1,107,2,2,0,3,0.7079244332782,0.626565307925968
"348",3,25,1,2,108,3,1,0,2,0.669579024961309,0.56597956278528
"349",3,36,1,1,109,1,1,1,4,0.4652730382328,0.243176103754236
"350",3,36,1,1,110,3,1,1,2,0.781482053396421,0.742786347712757
"351",3,32,1,2,111,2,1,0,2,0.445025574994135,0.211185111837145
"352",3,26,1,2,112,2,1,0,3,0.846577708522646,0.845637482812193
"353",3,23,1,2,113,3,1,0,2,0.418926658384644,0.16994882359415
"354",3,28,1,1,114,3,1,1,3,1.02094526056836,1.12113821504442
"355",3,36,1,2,115,1,2,1,4,0.423079528755201,0.17651035877963
"356",3,30,1,1,116,1,2,0,3,0.619435322336823,0.486752512638592
"357",3,34,1,1,117,2,2,0,2,0.621638476167667,0.490233495691325
"358",3,25,1,2,118,2,2,1,4,0.596424437911184,0.450395315246082
"359",3,36,1,1,119,3,2,0,1,1.80288703887146,2.35660622476331
"360",3,36,1,1,120,3,2,0,1,1.56355427018191,1.97846045023382
"361",3,32,1,1,121,1,1,1,4,0.482878314204285,0.270992439789182
"362",3,26,1,1,122,2,1,1,3,0.48102843775194,0.268069634994478
"363",3,23,1,2,123,3,1,0,2,0.473729585851522,0.256537448991816
"364",3,28,1,1,124,3,2,0,1,1.07577184107908,1.20776421225137
"365",3,36,1,1,125,1,1,1,4,0.409572742544109,0.155169636566105
"366",3,30,1,2,126,2,2,1,4,0.447938313641145,0.215787238899421
"367",3,34,1,1,127,1,1,1,5,0.440991468049238,0.204811222864209
"368",3,25,1,1,128,1,1,1,5,0.531731092114965,0.348179828888057
"369",3,36,1,1,129,2,1,1,3,0.558292854947462,0.390147414163403
"370",3,36,1,1,130,2,1,1,4,0.552024435032093,0.380243310697119
"371",3,32,1,2,131,1,1,0,4,0.454664184938217,0.226414115548795
"372",3,26,1,1,132,2,1,1,3,0.732621742436412,0.665587056395943
"373",3,23,1,2,133,2,2,1,3,0.458669296735032,0.232742192187763
"374",3,28,1,1,134,3,1,1,2,1.00507042376977,1.09605597290264
"375",3,36,1,2,135,2,2,1,4,0.562588532895639,0.396934585321521
"376",3,30,1,2,136,3,2,1,3,1.08595175489465,1.22384847607996
"377",3,34,1,2,137,1,1,0,4,0.477509383024489,0.262509528525104
"378",3,25,1,1,138,2,1,1,3,0.78031135947639,0.740936651319108
"379",3,36,1,2,139,3,2,1,2,0.882901778603819,0.903029513540446
"380",3,36,1,1,140,1,1,1,5,0.334824269913553,0.0370670498098257
"381",3,32,1,1,141,3,2,0,1,0.585796697013968,0.433603484628481
"382",3,26,1,2,142,1,1,0,3,0.507533285909425,0.309947295083304
"383",3,23,1,2,143,3,1,0,2,0.772078638840884,0.727928952715008
"384",3,28,1,1,144,1,1,1,5,0.43610554034965,0.197091457098859
"385",3,36,1,2,145,1,1,0,4,0.368729246007923,0.0906369120389297
"386",3,30,1,2,146,1,2,1,4,0.366884729395447,0.0877225757912175
"387",3,34,1,1,147,3,1,1,2,0.563188632471559,0.397882742651475
"388",3,25,1,2,148,3,1,0,1,1.17551292104403,1.36535511859598
"389",3,36,1,2,149,2,1,0,2,0.665993286127068,0.56031409542718
"390",3,36,1,1,150,2,2,0,3,0.663540402150435,0.556438538744099
"391",3,32,1,2,151,1,1,0,3,0.53945252337654,0.360379690281346
"392",3,26,1,1,152,2,1,1,3,0.528427529433157,0.3429601998508
"393",3,23,1,1,153,3,1,1,3,0.891470313838309,0.916567799210941
"394",3,28,1,2,154,3,1,0,1,0.53455020468223,0.352634026744336
"395",3,36,1,2,155,2,1,0,3,0.710109323541244,0.630017434541577
"396",3,30,1,2,156,2,2,1,3,0.863817625901718,0.872876552271126
"397",3,34,1,1,157,2,2,0,2,0.687867203507273,0.594874884887904
"398",3,25,1,1,158,1,2,0,3,0.486437191550637,0.276615465996418
"399",3,36,1,2,159,2,1,0,3,0.85655877132114,0.861407562033814
"400",3,36,1,2,160,3,1,0,1,0.71769976025106,0.642010324543086
"401",3,32,1,2,161,2,2,1,4,0.311531622600321,0.000264667054919066
"402",3,26,1,1,162,2,1,1,4,0.709245144564774,0.628652031758754
"403",3,23,1,1,163,2,1,1,3,0.683069401392471,0.587294357546516
"404",3,28,1,1,164,1,1,1,5,0.365277205193478,0.0851826875521077
"405",3,36,1,1,165,2,2,0,3,0.725291621779225,0.654005465757588
"406",3,30,1,2,166,1,2,1,5,0.317891229729444,0.010312846318933
"407",3,34,1,2,167,3,2,1,3,0.93275773660219,0.981801927177872
"408",3,25,1,1,168,1,1,1,5,0.428393731157924,0.184906798575931
"409",3,36,1,2,169,2,1,0,3,0.264781522511148,-0.0736004910859735
"410",3,36,1,1,170,3,1,1,2,0.80667875647458,0.782597138576249
"411",3,32,1,2,171,1,2,1,5,0.292346693119089,-0.0300475215254269
"412",3,26,1,2,172,3,2,1,3,0.879211311993433,0.897198576296037
"413",3,23,1,1,173,3,1,1,3,0.718285123160695,0.64293519794031
"414",3,28,1,2,174,1,2,1,4,0.34827055128465,0.0583121743761592
"415",3,36,1,1,175,1,2,0,3,0.588298808707156,0.437556821103718
"416",3,30,1,2,176,2,1,0,2,0.670101385002213,0.566804891649909
"417",3,34,1,2,177,2,2,1,3,0.550588725061943,0.377974888944282
"418",3,25,1,2,178,1,1,0,4,0.55824557412623,0.390072710465855
"419",3,36,1,1,179,1,2,0,4,0.395548877974817,0.133011930546622
"420",3,36,1,1,180,3,2,0,2,0.973914325057052,1.04682933693655
"421",3,32,1,1,181,3,2,0,1,0.859460526993499,0.86599233599614
"422",3,26,1,2,182,3,2,1,2,0.580559851279638,0.42532926836824
"423",3,23,1,1,183,3,1,1,2,0.5398783245284,0.361052456101283
"424",3,28,1,2,184,3,2,1,2,0.552873142978811,0.381584269252933
"425",3,36,1,1,185,2,2,0,2,0.700456550779443,0.614766053577933
"426",3,30,1,2,186,2,2,1,4,0.444630136176748,0.210560318505674
"427",3,34,1,2,187,1,2,1,5,0.454247826205219,0.225756268750658
"428",3,25,1,1,188,3,1,1,3,0.827839705921283,0.816031438702039
"429",3,36,1,2,189,3,2,1,2,0.700882232435515,0.615438630594526
"430",3,36,1,2,190,1,1,0,4,0.455961362172573,0.228463655579078
"431",3,32,1,2,191,2,2,1,4,0.517319360778407,0.325409293376294
"432",3,26,1,1,192,2,1,1,3,0.592035558135331,0.443460885200234
"433",3,23,1,2,193,3,1,0,1,1.13696743784268,1.30445325513785
"434",3,28,1,1,194,2,2,0,3,0.516909706936376,0.324762040305885
"435",3,36,1,1,195,1,1,1,5,0.357879090940351,0.0734936670321667
"436",3,30,1,1,196,1,2,0,4,0.62642039015215,0.497788919786809
"437",3,34,1,2,197,3,2,1,3,0.90485939312383,0.937722544482063
"438",3,25,1,1,198,1,1,1,5,0.540119156440242,0.361432970521995
"439",3,36,1,2,199,1,2,1,4,0.245005984503773,-0.104845841137627
"440",3,36,1,1,200,1,1,1,4,0.276808287725847,-0.0545982020467493
"441",3,32,1,2,201,2,2,1,4,0.597808234180325,0.452581713351325
"442",3,26,1,2,202,1,2,1,4,0.321316013809068,0.0157240051647392
"443",3,23,1,1,203,1,1,1,5,0.331948041409665,0.0325226087736833
"444",3,28,1,1,204,1,2,0,4,0.503664568817103,0.303834722077435
"445",3,36,1,1,205,1,1,1,5,0.442090880390911,0.206548294364052
"446",3,30,1,1,206,2,1,1,4,0.682010567481121,0.585621399966584
"447",3,34,1,1,207,1,2,0,4,0.506119865230355,0.307714090410374
"448",3,25,1,2,208,2,1,0,2,0.666073141308604,0.560440266614006
"449",3,36,1,1,209,3,2,0,1,1.08875213518865,1.22827307694447
"450",3,36,1,1,210,2,2,0,3,0.507778775788525,0.310335169092281
"451",3,32,1,1,211,3,2,0,1,0.590424513483696,0.440915434650652
"452",3,26,1,1,212,2,1,1,4,0.646313894307305,0.529220656351954
"453",3,23,1,1,213,2,1,1,3,0.627504726314497,0.499502170923317
"454",3,28,1,2,214,1,2,1,4,0.388560812475813,0.121970787058196
"455",3,36,1,2,215,2,1,0,2,0.403563567965667,0.145675140732166
"456",3,30,1,2,216,2,1,0,3,0.682343183742098,0.586146933658927
"457",3,34,1,1,217,1,1,1,5,0.289815964104586,-0.0340460733683418
"458",3,25,1,2,218,1,1,0,4,0.615076163986245,0.479865042444679
"459",3,36,1,2,219,3,2,1,2,1.12051067772154,1.27845157414645
"460",3,36,1,1,220,1,2,0,3,0.353773023075873,0.067006079806292
"461",3,32,1,1,221,3,2,0,1,1.19154525548747,1.39068620701661
"462",3,26,1,2,222,3,2,1,3,0.759110760593931,0.707439705084823
"463",3,23,1,2,223,3,1,0,1,0.380497862398197,0.109231325935563
"464",3,28,1,2,224,1,2,1,5,0.461205820647775,0.236749899969896
"465",3,36,1,2,225,3,1,0,2,0.430794058322908,0.188699315496607
"466",3,30,1,1,226,3,1,1,2,0.755532423155396,0.701785931931938
"467",3,34,1,1,227,2,1,1,4,0.497405794795563,0.293945859123401
"468",3,25,1,2,228,3,2,1,2,0.965800959618994,1.03401021954442
"469",3,36,1,2,229,1,1,0,3,0.617064007596749,0.483005835349276
"470",3,36,1,1,230,2,1,1,4,0.67076951578368,0.567860538284626
"471",3,32,1,1,231,1,1,1,4,0.302947643190785,-0.0132980204121473
"472",3,26,1,2,232,3,1,0,1,0.735140895249913,0.669567317841274
"473",3,23,1,1,233,1,1,1,5,0.364981330194427,0.0847152050536063
"474",3,28,1,1,234,2,2,0,3,0.6299139508236,0.503308745647699
"475",3,36,1,2,235,3,1,0,1,0.938431072629766,0.990765798101442
"476",3,30,1,2,236,1,1,0,3,0.732848390096784,0.66594515969933
"477",3,34,1,2,237,1,2,1,5,0.302639527116442,-0.0137848438096101
"478",3,25,1,2,238,2,1,0,3,0.602106107788471,0.459372353652196
"479",3,36,1,1,239,3,2,0,2,1.35313332443208,1.6459953559491
"480",3,36,1,1,240,3,2,0,2,0.848766869291996,0.849096356827765
"481",2,29,2,2,1,1,2,1,4,0.307825927612126,1.16274020029757
"482",2,30,2,1,2,1,2,0,3,0.638524137129286,1.68524337133468
"483",2,23,2,2,3,3,2,1,3,1.07345366951871,2.37243203250996
"484",2,31,2,2,4,2,2,1,3,0.537210743716399,1.52516820974232
"485",2,24,2,1,5,1,2,0,3,0.645352464967526,1.6960321293191
"486",2,19,2,1,6,3,1,1,3,1.30700477109985,2.74144277300817
"487",2,18,2,2,7,3,2,1,3,0.572668639902578,1.58119168571648
"488",2,30,2,1,8,3,2,0,1,0.228672568487545,1.03767789288073
"489",2,36,2,2,9,2,2,1,4,0.777981382513584,1.90558581904187
"490",2,24,2,2,10,2,2,1,4,0.514455884995571,1.48921553296341
"491",2,29,2,2,11,2,2,1,4,0.531258212599121,1.51576321057702
"492",2,30,2,2,12,1,2,1,5,0.360424666863812,1.24584620831523
"493",2,23,2,1,13,1,2,0,3,0.525798049800293,1.50713615335487
"494",2,31,2,1,14,2,1,1,3,0.615512285831575,1.6488846462843
"495",2,24,2,1,15,2,1,1,4,0.406023050930838,1.31789165514113
"496",2,19,2,2,16,1,2,1,5,0.436885038776161,1.36665359593674
"497",2,18,2,1,17,3,1,1,3,0.522673988933901,1.50220013718597
"498",2,30,2,2,18,1,2,1,5,0.32972485705909,1.19734050882377
"499",2,36,2,2,19,1,2,1,5,0.368929790996315,1.25928430444459
"500",2,24,2,2,20,2,2,1,4,0.813888926193426,1.96231973805602
"501",2,29,2,2,21,3,1,0,1,0.91157682288672,2.11666661483143
"502",2,30,2,2,22,2,2,1,4,0.683550483740515,1.75638499898042
"503",2,23,2,2,23,2,2,1,3,0.68513453728084,1.75888780357414
"504",2,31,2,1,24,3,1,1,2,1.44148296837781,2.95391832470735
"505",2,24,2,2,25,3,2,1,3,0.680704671661052,1.75188861589487
"506",2,19,2,2,26,3,1,0,2,1.14451401283544,2.48470737495041
"507",2,18,2,2,27,1,1,0,3,0.495237989018769,1.45885125732006
"508",2,30,2,2,28,3,2,1,3,0.95557201307114,2.18617901532281
"509",2,36,2,2,29,3,2,1,3,0.564586089827822,1.56842125659837
"510",2,24,2,1,30,3,1,1,3,0.843348160423081,2.00886532813888
"511",2,29,2,2,31,1,2,1,5,0.370826243500393,1.26228069940103
"512",2,30,2,2,32,1,2,1,5,0.45481200750584,1.39497820652964
"513",2,23,2,1,33,1,1,1,5,0.553608851713855,1.5510772203783
"514",2,31,2,2,34,3,2,1,2,0.689124575233709,1.76519206353967
"515",2,24,2,1,35,1,2,0,4,0.638007330680735,1.68442681714597
"516",2,19,2,2,36,3,1,0,2,1.55474729107777,3.13287595457329
"517",2,18,2,2,37,2,2,1,3,0.614461797137802,1.64722487414814
"518",2,30,2,1,38,1,1,1,5,0.505708994283195,1.47539544563786
"519",2,36,2,2,39,2,2,1,3,0.568729281740675,1.57496749982068
"520",2,24,2,2,40,3,1,0,2,1.28249562000125,2.70271831427238
"521",2,29,2,2,41,1,2,1,4,0.314371230729743,1.1730817792234
"522",2,30,2,1,42,1,2,0,3,0.455275579016058,1.39571064951578
"523",2,23,2,2,43,1,1,0,3,0.325485692952192,1.19064262953487
"524",2,31,2,1,44,3,2,0,2,0.393484765607332,1.29808116432999
"525",2,24,2,1,45,1,1,1,4,0.439793207211534,1.37124850206463
"526",2,19,2,1,46,2,2,0,3,0.456440543717022,1.3975512937433
"527",2,18,2,1,47,3,1,1,3,0.526277844615532,1.50789422916295
"528",2,30,2,1,48,1,1,1,4,0.415505401021585,1.33287376828451
"529",2,36,2,1,49,1,1,1,4,0.329274452908705,1.19662887026616
"530",2,24,2,2,50,2,2,1,3,0.596614926296987,1.61902681821965
"531",2,29,2,1,51,2,2,0,2,0.717797939144096,1.81049597851808
"532",2,30,2,1,52,1,1,1,5,0.458422853901484,1.40068334383475
"533",2,23,2,1,53,1,1,1,5,0.525080566713531,1.50600253007779
"534",2,31,2,1,54,3,2,0,1,0.670950586110419,1.73647716072487
"535",2,24,2,2,55,2,2,1,3,0.62906684780995,1.67030085421013
"536",2,19,2,2,56,3,1,0,2,0.825981060604639,1.98142531042574
"537",2,18,2,2,57,1,1,0,4,0.377579340082498,1.27295059200076
"538",2,30,2,1,58,1,1,1,5,0.499774989321276,1.46601971779803
"539",2,36,2,1,59,2,2,0,2,0.693461587934904,1.77204454360756
"540",2,24,2,1,60,2,1,1,4,0.739335128812696,1.84452473819447
"541",2,29,2,1,61,1,2,0,3,0.404456359725126,1.31541628303611
"542",2,30,2,1,62,2,1,1,3,0.747215687587336,1.8569760210584
"543",2,23,2,1,63,3,1,1,2,0.604882263974048,1.63208921174941
"544",2,31,2,1,64,3,2,0,2,1.46969704814762,2.99849657074365
"545",2,24,2,1,65,2,2,0,3,0.805387342448435,1.94888723573894
"546",2,19,2,1,66,1,1,1,5,0.52577863930292,1.50710548476902
"547",2,18,2,1,67,2,2,0,3,0.773596653117871,1.89865794659665
"548",2,30,2,1,68,1,1,1,5,0.471104276075072,1.42071999086902
"549",2,36,2,2,69,2,2,1,3,0.574535252161228,1.58414093308515
"550",2,24,2,2,70,3,1,0,2,1.0374478171774,2.31554278581069
"551",2,29,2,2,71,2,1,0,3,0.770083302785991,1.89310685307227
"552",2,30,2,1,72,3,1,1,2,1.02969958706948,2.30330058224019
"553",2,23,2,2,73,2,2,1,4,0.521496008371874,1.50033892789797
"554",2,31,2,1,74,1,1,1,5,0.443140616186309,1.37653740824478
"555",2,24,2,1,75,2,2,0,3,0.850429181977906,2.0200533421955
"556",2,19,2,1,76,3,1,1,2,0.909315736463144,2.11309409828218
"557",2,18,2,2,77,2,2,1,3,0.743923089473106,1.85177371603792
"558",2,30,2,2,78,2,1,0,3,0.482768515908632,1.43914948980605
"559",2,36,2,2,79,2,2,1,4,0.73102512641281,1.83139493440265
"560",2,24,2,2,80,3,2,1,3,0.870870058617699,2.05234992728637
"561",2,29,2,1,81,3,2,0,1,0.280628302645692,1.1197679528506
"562",2,30,2,2,82,2,1,0,3,0.678301238096266,1.74809119086251
"563",2,23,2,1,83,2,1,1,4,0.650628977813042,1.70436901961502
"564",2,31,2,1,84,1,1,1,5,0.443267662449697,1.37673814134093
"565",2,24,2,2,85,2,1,0,3,0.665838779831391,1.72840050680401
"566",2,19,2,1,86,1,1,1,5,0.367716457353922,1.25736723728961
"567",2,18,2,2,87,1,2,1,5,0.351973118219382,1.23249276145703
"568",2,30,2,2,88,1,2,1,5,0.366204943612109,1.25497904557754
"569",2,36,2,1,89,1,2,0,4,0.669406182995299,1.73403700380298
"570",2,24,2,2,90,2,1,0,3,0.499237075779494,1.46516981440201
"571",2,29,2,2,91,1,2,1,4,0.331355409767223,1.19991678210262
"572",2,30,2,2,92,3,1,0,1,0.975498512162797,2.21766288388763
"573",2,23,2,2,93,3,2,1,2,0.906493583713619,2.10863509693793
"574",2,31,2,2,94,2,1,0,2,0.750132989912898,1.86158535873279
"575",2,24,2,2,95,3,2,1,2,0.980222168892825,2.22512626152107
"576",2,19,2,2,96,2,1,0,3,0.433845443557366,1.36185103549105
"577",2,18,2,1,97,3,1,1,3,0.928212438753839,2.14295088790148
"578",2,30,2,2,98,2,2,1,4,0.507746648396596,1.47861493913703
"579",2,36,2,1,99,1,1,1,5,0.44724253295836,1.38301843674462
"580",2,24,2,2,100,1,1,0,4,0.683320578530383,1.75602174874841
"581",2,29,2,2,101,2,2,1,3,0.639403070795113,1.68663208652669
"582",2,30,2,2,102,2,2,1,3,0.505998867950109,1.47585344603158
"583",2,23,2,2,103,1,2,1,5,0.46243806315807,1.40702737446016
"584",2,31,2,2,104,3,1,0,1,0.731904510472913,1.83278436121761
"585",2,24,2,2,105,3,2,1,3,0.76728520063583,1.88868585167502
"586",2,19,2,2,106,3,1,0,1,0.983329610943787,2.23003601996159
"587",2,18,2,2,107,2,2,1,4,0.423222181233247,1.34506628101894
"588",2,30,2,1,108,3,1,1,3,0.741859741696189,1.84851362655039
"589",2,36,2,1,109,3,2,0,2,1.37257087812312,2.84503722210493
"590",2,24,2,2,110,2,1,0,3,0.60056307561953,1.62526489414927
"591",2,29,2,1,111,1,2,0,3,0.550019242161704,1.5454056372859
"592",2,30,2,1,112,3,1,1,2,0.647649110983665,1.6996608300246
"593",2,23,2,2,113,2,1,0,2,0.69023599358618,1.76694810453657
"594",2,31,2,1,114,1,1,1,4,0.375088792091569,1.26901552617509
"595",2,24,2,1,115,1,2,0,3,0.606273265570163,1.63428699427127
"596",2,19,2,1,116,2,2,0,2,0.464332904578189,1.41002122390395
"597",2,18,2,1,117,2,1,1,4,0.702070339526233,1.78564637112186
"598",2,30,2,2,118,3,1,0,2,0.394619060902603,1.29987335089652
"599",2,36,2,1,119,3,2,0,1,0.741263884100549,1.84757217154928
"600",2,24,2,2,120,2,2,1,4,0.534454098299786,1.52081270998407
"601",2,29,2,2,121,2,2,1,3,0.48783826460731,1.44715969274996
"602",2,30,2,1,122,3,1,1,3,0.608897695942477,1.63843359425952
"603",2,23,2,1,123,1,1,1,5,0.421250080869539,1.34195036244428
"604",2,31,2,2,124,3,1,0,2,0.653612832641144,1.70908351024342
"605",2,24,2,2,125,2,2,1,4,0.769311914932148,1.8918880602632
"606",2,19,2,2,126,1,2,1,4,0.409965796370864,1.32412119293637
"607",2,18,2,1,127,1,1,1,5,0.307171929223267,1.16170688284317
"608",2,30,2,2,128,2,2,1,3,0.747486173187407,1.85740338830651
"609",2,36,2,1,129,2,2,0,3,0.64887007223542,1.70158994880237
"610",2,24,2,2,130,2,2,1,3,0.61289321609718,1.64474651610395
"611",2,29,2,1,131,2,2,0,3,0.542975560685735,1.53427662055387
"612",2,30,2,2,132,1,1,0,3,0.614394728643297,1.64711890592682
"613",2,23,2,1,133,3,2,0,1,1.67823198340622,3.32798176845224
"614",2,31,2,1,134,2,2,0,2,0.815962888090597,1.96559659785355
"615",2,24,2,1,135,2,1,1,3,0.746928066747567,1.85652158013157
"616",2,19,2,1,136,3,1,1,3,0.831350172085234,1.98990850656508
"617",2,18,2,1,137,2,1,1,3,0.584023909244825,1.59913301127723
"618",2,30,2,1,138,1,1,1,4,0.486099078741565,1.44441177908208
"619",2,36,2,1,139,3,1,1,2,0.868004995480365,2.04782312752939
"620",2,24,2,2,140,3,1,0,2,0.524149378365875,1.50453125248849
"621",2,29,2,2,141,3,1,0,1,1.06381442764358,2.35720203034727
"622",2,30,2,1,142,1,1,1,5,0.488305771797793,1.44789835411092
"623",2,23,2,2,143,3,1,0,2,1.28499148249662,2.70666177701507
"624",2,31,2,1,144,1,1,1,5,0.45512818658519,1.39547776947501
"625",2,24,2,1,145,2,1,1,3,0.720152972309226,1.81421693091899
"626",2,19,2,1,146,2,1,1,3,0.687452357555225,1.76254995960767
"627",2,18,2,2,147,1,2,1,4,0.248599353246836,1.06916221280041
"628",2,30,2,1,148,3,1,1,3,0.70670310539959,1.79296614120176
"629",2,36,2,2,149,3,2,1,3,0.956093608318841,2.18700313581418
"630",2,24,2,2,150,2,2,1,4,0.382501005674026,1.28072682363537
"631",2,29,2,2,151,2,1,0,2,0.675596512705127,1.74381772474451
"632",2,30,2,2,152,3,1,0,1,0.591033484787438,1.61020814063456
"633",2,23,2,2,153,3,1,0,2,1.7064104380919,3.37250372685562
"634",2,31,2,2,154,3,1,0,1,1.0523186094332,2.33903863757487
"635",2,24,2,2,155,2,2,1,4,0.441566292317846,1.37404997653261
"636",2,19,2,1,156,3,1,1,3,0.731427952614895,1.83203139980194
"637",2,18,2,1,157,3,1,1,2,1.22110425309543,2.60571995456119
"638",2,30,2,2,158,1,2,1,5,0.35982647716495,1.24490106859103
"639",2,36,2,1,159,3,2,0,2,1.14793837296173,2.49011786394994
"640",2,24,2,1,160,2,1,1,3,0.598058483409569,1.62130763845753
"641",2,29,2,2,161,3,1,0,2,0.632321076825544,1.67544253605477
"642",2,30,2,2,162,2,2,1,3,0.507069816741937,1.47754554512267
"643",2,23,2,2,163,2,2,1,3,0.493510409613952,1.45612168186045
"644",2,31,2,1,164,2,2,0,2,0.864926949586852,2.04295981501764
"645",2,24,2,1,165,3,2,0,2,1.17020239990169,2.52529502651508
"646",2,19,2,2,166,1,2,1,4,0.46438837693434,1.41010887022667
"647",2,18,2,1,167,2,1,1,3,0.662263893980079,1.72275218715893
"648",2,30,2,1,168,1,1,1,5,0.501959797551918,1.46947171480244
"649",2,36,2,2,169,3,1,0,1,1.17731698992747,2.53653607875582
"650",2,24,2,2,170,3,2,1,2,0.899399366872338,2.0974262343287
"651",2,29,2,2,171,3,2,1,3,0.934874791567773,2.15347740534749
"652",2,30,2,1,172,2,2,0,3,0.723091634372032,1.81886001697822
"653",2,23,2,2,173,2,2,1,4,0.635783859548135,1.68091373275646
"654",2,31,2,2,174,1,2,1,5,0.286038260826545,1.12831568677635
"655",2,24,2,1,175,1,1,1,5,0.525848342585995,1.50721561595628
"656",2,19,2,2,176,1,2,1,5,0.365227011250395,1.25343391244603
"657",2,18,2,2,177,3,2,1,3,1.00429388019101,2.2631595653722
"658",2,30,2,2,178,3,1,0,1,0.958511371754967,2.19082320204326
"659",2,36,2,2,179,3,2,1,2,0.893167003590354,2.08757910034317
"660",2,24,2,1,180,1,1,1,4,0.396371616914351,1.30264238939508
"661",2,29,2,2,181,1,2,1,5,0.348416139819614,1.2268727355854
"662",2,30,2,1,182,2,2,0,3,0.694060228732695,1.77299039606807
"663",2,23,2,1,183,3,2,0,1,1.49161791763756,3.03313154453775
"664",2,31,2,2,184,2,1,0,3,0.657302251553164,1.71491279212441
"665",2,24,2,1,185,2,1,1,4,0.872613723305313,2.0551049174928
"666",2,19,2,2,186,1,2,1,4,0.623143780779115,1.66094240830141
"667",2,18,2,1,187,1,1,1,4,0.357578075640367,1.24134859418219
"668",2,30,2,1,188,1,1,1,4,0.46030743359445,1.40366097974964
"669",2,36,2,1,189,1,2,0,4,0.50322188330232,1.47146581028807
"670",2,24,2,2,190,1,2,1,5,0.404645641419018,1.31571534811246
"671",2,29,2,1,191,1,1,1,4,0.395433157470664,1.30115962347406
"672",2,30,2,1,192,1,1,1,4,0.441516353959975,1.37397107392717
"673",2,23,2,1,193,2,1,1,3,0.508684840981365,1.48009728342097
"674",2,31,2,2,194,2,2,1,3,0.687446393719485,1.7625405367472
"675",2,24,2,1,195,1,1,1,4,0.32631095062184,1.19194653665292
"676",2,19,2,1,196,2,1,1,4,0.703035787228118,1.78717177849084
"677",2,18,2,2,197,2,1,0,2,0.467446126193439,1.41494011405604
"678",2,30,2,2,198,3,1,0,1,1.12953448992096,2.46103972874553
"679",2,36,2,2,199,3,2,1,2,0.996808153038961,2.25133211647197
"680",2,24,2,2,200,2,2,1,4,0.651895912466213,1.70637077636703
"681",2,29,2,1,201,1,1,1,4,0.401587401592338,1.3108833291863
"682",2,30,2,1,202,3,1,1,3,0.760331732573609,1.87769937213671
"683",2,23,2,1,203,3,2,0,2,1.03709433599631,2.31498428554459
"684",2,31,2,1,204,1,1,1,4,0.40891988037293,1.32246864565964
"685",2,24,2,1,205,1,2,0,3,0.479477184668388,1.43394918644646
"686",2,19,2,2,206,3,1,0,1,1.03996562519115,2.31952092247242
"687",2,18,2,2,207,1,2,1,5,0.566750574902414,1.57184114301622
"688",2,30,2,1,208,1,2,0,3,0.811390313324064,1.95837192972243
"689",2,36,2,1,209,3,2,0,2,1.02529412679057,2.29633995499951
"690",2,24,2,2,210,2,1,0,3,0.561359383827133,1.56332306111728
"691",2,29,2,1,211,1,2,0,4,0.598538297698157,1.6220657450335
"692",2,30,2,2,212,2,2,1,3,0.539849490241403,1.52933742925183
"693",2,23,2,1,213,2,2,0,2,0.590558803867898,1.60945814478169
"694",2,31,2,2,214,3,1,0,2,0.707407615838119,1.79407926769464
"695",2,24,2,2,215,2,1,0,3,0.717871201857977,1.81061173360601
"696",2,19,2,2,216,1,2,1,5,0.300828114146642,1.1516836550221
"697",2,18,2,1,217,3,2,0,1,0.890334596633183,2.08310389735084
"698",2,30,2,1,218,2,2,0,3,0.436088317907247,1.36539477696386
"699",2,36,2,1,219,3,2,0,2,0.706986064410092,1.79341321643835
"700",2,24,2,1,220,1,2,0,4,0.610887683842392,1.64157777514139
"701",2,29,2,1,221,3,1,1,2,0.485718549424359,1.4438105427609
"702",2,30,2,1,222,2,1,1,3,0.714920727502609,1.80594998412453
"703",2,23,2,2,223,1,1,0,4,0.441312352661949,1.37364875187629
"704",2,31,2,1,224,3,2,0,1,0.673858935964375,1.74107235349412
"705",2,24,2,1,225,3,1,1,2,0.676198479329817,1.74476883201152
"706",2,19,2,2,226,2,2,1,4,0.61306734051867,1.64502163268991
"707",2,18,2,1,227,1,1,1,5,0.481972725737098,1.43789214133502
"708",2,30,2,1,228,1,2,0,4,0.696942112431985,1.77754377231295
"709",2,36,2,1,229,3,2,0,2,1.21761798182272,2.6002116459503
"710",2,24,2,2,230,1,2,1,4,0.351249420010153,1.23134931828645
"711",2,29,2,1,231,1,2,0,4,0.595221923094598,1.61682587315987
"712",2,30,2,1,232,2,2,0,2,0.673661039478626,1.74075967704664
"713",2,23,2,2,233,3,1,0,2,0.851352446325734,2.02151209986507
"714",2,31,2,2,234,3,1,0,1,1.08627434149572,2.39268869423365
"715",2,24,2,1,235,3,1,1,3,0.73848890737531,1.8431877083234
"716",2,19,2,1,236,2,1,1,4,0.363545231402675,1.25077670028664
"717",2,18,2,2,237,3,1,0,2,1.34782685543658,2.8059416662602
"718",2,30,2,2,238,1,2,1,4,0.366133758492454,1.25486657308849
"719",2,36,2,1,239,1,1,1,5,0.357674784920111,1.24150139484418
"720",2,24,2,1,240,1,1,1,4,0.432387966101586,1.35954822111092
"721",1,21,1,2,1,1,2,1,4,0.511131044948446,1.13176006886526
"722",1,27,1,1,2,3,2,0,1,1.2946032491484,2.36964615150119
"723",1,22,1,2,3,1,2,1,4,0.46478565980636,1.05853436034077
"724",1,24,1,1,4,1,1,1,5,0.465723909610536,1.06001679503137
"725",1,28,1,2,5,3,1,0,2,1.4165335582955,2.56229603995361
"726",1,18,1,1,6,3,1,1,2,0.69954031622141,1.42944671747655
"727",1,30,1,1,7,2,1,1,3,0.474521534368628,1.07391704214915
"728",1,20,1,2,8,3,1,0,1,0.933837888663129,1.79963688193446
"729",1,24,1,2,9,2,1,0,3,0.880597084917368,1.71551641201616
"730",1,30,1,1,10,1,1,1,5,0.445316226361087,1.02777265549724
"731",1,21,1,2,11,1,2,1,5,0.473364523929757,1.07208896565574
"732",1,27,1,2,12,2,2,1,4,0.597416961011793,1.26809181624535
"733",1,22,1,2,13,3,1,0,2,1.44317421457198,2.60438827687044
"734",1,24,1,2,14,3,1,0,1,1.76789090940301,3.11744065470347
"735",1,28,1,2,15,2,1,0,2,0.760606527231361,1.52593133087227
"736",1,18,1,1,16,1,1,1,4,0.342921473771935,0.865988946406378
"737",1,30,1,1,17,3,1,1,3,1.16097412086524,2.15851212881381
"738",1,20,1,1,18,3,2,0,1,1.21525600450439,2.24427750496366
"739",1,24,1,2,19,3,2,1,2,0.994591073015597,1.89562691321136
"740",1,30,1,1,20,2,1,1,4,0.57409475605304,1.23124273241052
"741",1,21,1,1,21,2,1,1,3,0.458944619657573,1.04930551690569
"742",1,27,1,1,22,1,2,0,4,0.644897548186476,1.34311114398135
"743",1,22,1,1,23,1,1,1,4,0.514799298060145,1.13755590878175
"744",1,24,1,2,24,3,1,0,2,0.964153634621129,1.8475357605481
"745",1,28,1,2,25,2,2,1,4,0.589583468212377,1.25571489762228
"746",1,18,1,2,26,3,1,0,2,1.12237943239978,2.09753252103838
"747",1,30,1,2,27,2,2,1,3,0.623481667266047,1.30927405212707
"748",1,20,1,1,28,2,2,0,2,0.978783621803776,1.87065114029669
"749",1,24,1,1,29,2,1,1,4,0.543836206566741,1.18343422422217
"750",1,30,1,2,30,3,1,0,1,0.716421687177578,1.45611928358729
"751",1,21,1,1,31,2,1,1,4,0.612397021979969,1.29176031257507
"752",1,27,1,1,32,1,1,1,5,0.354857976017558,0.884848619954461
"753",1,22,1,1,33,3,1,1,3,0.869872811099416,1.6985720593838
"754",1,24,1,1,34,3,2,0,2,0.728019629951335,1.47444403316983
"755",1,28,1,1,35,3,2,0,1,1.4877927438297,2.67488555309765
"756",1,18,1,1,36,1,1,1,5,0.327780721103251,0.842066557189856
"757",1,30,1,2,37,3,2,1,2,0.634072837193129,1.32600810061186
"758",1,20,1,2,38,3,2,1,3,0.550976015116222,1.19471512173035
"759",1,24,1,1,39,2,2,0,3,0.586019548938069,1.25008390516887
"760",1,30,1,1,40,1,2,0,4,0.483119659141653,1.08750207929053
"761",1,21,1,2,41,1,1,0,4,0.478721846385571,1.08055353513592
"762",1,27,1,1,42,1,1,1,4,0.379350924223148,0.923547478119294
"763",1,22,1,2,43,1,2,1,5,0.497028960388875,1.10947877526114
"764",1,24,1,1,44,1,1,1,4,0.460780925136986,1.05220687956316
"765",1,28,1,2,45,1,2,1,4,0.423278132660969,0.992952467451051
"766",1,18,1,2,46,1,2,1,4,0.395022854518108,0.94830912798533
"767",1,30,1,2,47,1,1,0,4,0.469305521353502,1.06567574158525
"768",1,20,1,2,48,1,2,1,4,0.468867690659062,1.06498396908804
"769",1,24,1,2,49,3,2,1,3,0.996693957283393,1.89894947035448
"770",1,30,1,2,50,2,1,0,3,0.680875983408453,1.39995707163208
"771",1,21,1,1,51,1,1,1,5,0.351114082526812,0.878933268239083
"772",1,27,1,2,52,2,2,1,4,0.658244396673651,1.36419916459109
"773",1,22,1,1,53,2,1,1,3,0.62657213443398,1.31415699025241
"774",1,24,1,2,54,3,2,1,2,0.893763330182194,1.73631907953459
"775",1,28,1,2,55,2,1,0,3,0.563316907817656,1.21421373219862
"776",1,18,1,2,56,2,2,1,4,0.773690895686286,1.54660463303105
"777",1,30,1,1,57,2,2,0,3,0.579887759549574,1.24039567793505
"778",1,20,1,2,58,1,2,1,4,0.427030709052703,0.998881538149991
"779",1,24,1,2,59,3,2,1,2,0.868004541318908,1.6956201931306
"780",1,30,1,2,60,1,2,1,5,0.366662477053639,0.90349973159147
"781",1,21,1,2,61,1,1,0,4,0.577671160566949,1.2368934515425
"782",1,27,1,2,62,2,1,0,3,0.638592491473913,1.3331491543755
"783",1,22,1,2,63,2,2,1,4,0.474322869632312,1.07360315186577
"784",1,24,1,2,64,2,2,1,4,0.645795469320829,1.34452985937363
"785",1,28,1,2,65,1,1,0,3,0.56790219429595,1.22145848483432
"786",1,18,1,1,66,2,2,0,2,0.846019267824825,1.66088346100994
"787",1,30,1,1,67,1,1,1,5,0.459476358385241,1.0501456640954
"788",1,20,1,2,68,2,2,1,3,0.85883700131707,1.68113547992769
"789",1,24,1,2,69,3,1,0,2,0.730583566092207,1.47849505227241
"790",1,30,1,2,70,3,2,1,2,0.430287948091,1.0040279758305
"791",1,21,1,1,71,3,2,0,2,0.604662713667169,1.27954010544085
"792",1,27,1,1,72,3,2,0,2,1.58304402895484,2.82538258359536
"793",1,22,1,2,73,2,1,0,3,0.68872858811325,1.41236418706566
"794",1,24,1,2,74,1,2,1,5,0.425292512437614,0.99613518749815
"795",1,28,1,2,75,3,2,1,3,0.618314498721885,1.3011099258273
"796",1,18,1,2,76,2,1,0,2,0.874250932216962,1.70548949074952
"797",1,30,1,2,77,2,2,1,4,0.750145761380622,1.5094033208281
"798",1,20,1,2,78,1,2,1,4,0.343600084382965,0.867061151171805
"799",1,24,1,2,79,1,2,1,5,0.379390400142429,0.923609850071757
"800",1,30,1,1,80,1,2,0,3,0.364594872859748,0.900232916965122
"801",1,21,1,1,81,1,1,1,4,0.459988705512096,1.05095517255583
"802",1,27,1,2,82,2,2,1,4,0.530955862554663,1.16308328068309
"803",1,22,1,2,83,1,2,1,5,0.437711613479164,1.0157573671438
"804",1,24,1,2,84,3,2,1,3,0.758712211329201,1.52293831174686
"805",1,28,1,1,85,1,1,1,4,0.321291735315582,0.83181395964534
"806",1,18,1,2,86,2,1,0,2,0.708412750454164,1.4434651635643
"807",1,30,1,1,87,3,1,1,3,1.20071034954907,2.22129537013426
"808",1,20,1,2,88,2,2,1,3,0.90345923729137,1.75163861276708
"809",1,24,1,2,89,2,1,0,2,0.859662602162165,1.68243992926294
"810",1,30,1,1,90,2,1,1,3,0.396535227897093,0.950698677924128
"811",1,21,1,1,91,2,1,1,4,0.522181277832133,1.14921943682149
"812",1,27,1,2,92,1,1,0,4,0.603304059191692,1.27739343136959
"813",1,22,1,1,93,3,2,0,1,0.830072040362344,1.63568684161922
"814",1,24,1,1,94,3,2,0,2,1.18709334693784,2.1997805060085
"815",1,28,1,1,95,1,1,1,4,0.50941955799934,1.12905591948568
"816",1,18,1,2,96,1,2,1,4,0.477707360798221,1.07895064790791
"817",1,30,1,2,97,1,2,1,5,0.474141166051955,1.07331606020881
"818",1,20,1,1,98,2,1,1,3,0.368594829072786,0.906552847781721
"819",1,24,1,1,99,3,1,1,2,0.762257484555621,1.5285398434446
"820",1,30,1,2,100,3,1,0,1,0.993247592521547,1.89350421403076
"821",1,21,1,1,101,2,1,1,3,0.491363073000845,1.10052667318805
"822",1,27,1,1,102,1,1,1,5,0.347535053823806,0.873278402888334
"823",1,22,1,2,103,3,2,1,3,0.941422540284413,1.81162063149609
"824",1,24,1,2,104,1,2,1,5,0.481386472613986,1.08476364457682
"825",1,28,1,1,105,2,2,0,3,0.353971276761928,0.883447635130566
"826",1,18,1,2,106,2,1,0,2,0.815947040036428,1.61336934110428
"827",1,30,1,1,107,2,1,1,3,0.825681296062062,1.62874946562478
"828",1,20,1,2,108,2,2,1,4,0.505285122619931,1.12252351158621
"829",1,24,1,2,109,3,2,1,3,0.697269932253011,1.42585951080648
"830",1,30,1,1,110,2,1,1,4,0.61045203441459,1.28868723222177
"831",1,21,1,1,111,3,2,0,2,1.34499585016767,2.44926646111164
"832",1,27,1,1,112,3,2,0,1,0.815928240076352,1.61333963716736
"833",1,22,1,2,113,1,2,1,5,0.344434545605719,0.868379599903756
"834",1,24,1,1,114,3,2,0,1,1.04238248680444,1.97113734699774
"835",1,28,1,1,115,3,1,1,2,0.819202933593275,1.6185136529241
"836",1,18,1,2,116,1,2,1,4,0.327165980178145,0.841095266528189
"837",1,30,1,2,117,2,2,1,3,0.57596226689233,1.2341933995366
"838",1,20,1,1,118,3,2,0,1,1.57783560232018,2.8171532695126
"839",1,24,1,1,119,3,2,0,1,0.88015315221562,1.7148149983474
"840",1,30,1,2,120,1,2,1,4,0.365711113097599,0.901996576540927
"841",1,21,1,1,121,2,2,0,2,0.583443225487888,1.24601331411758
"842",1,27,1,2,122,1,2,1,4,0.499664084699248,1.11364227167153
"843",1,22,1,2,123,2,1,0,3,0.775604071346679,1.54962745057447
"844",1,24,1,2,124,1,2,1,4,0.523026308878101,1.15055458587412
"845",1,28,1,2,125,3,1,0,1,0.986664487899319,1.88310290872764
"846",1,18,1,1,126,2,2,0,3,0.703073984960076,1.43502991408364
"847",1,30,1,1,127,3,2,0,2,0.84252365087319,1.65536038622636
"848",1,20,1,2,128,2,2,1,4,0.461611756331357,1.05351959285026
"849",1,24,1,2,129,3,2,1,2,0.62522562145086,1.31202949973908
"850",1,30,1,2,130,3,2,1,3,0.719908029871008,1.46162770504291
"851",1,21,1,2,131,1,2,1,4,0.500854431402427,1.11552301946255
"852",1,27,1,2,132,3,1,0,2,0.749402300672071,1.50822865290859
"853",1,22,1,2,133,3,2,1,3,0.711331758823504,1.44807719678786
"854",1,24,1,1,134,3,1,1,2,0.735641975139235,1.48648733856671
"855",1,28,1,2,135,3,1,0,2,0.596705765407635,1.26696812719078
"856",1,18,1,1,136,3,1,1,3,1.02352127802138,1.9413366371205
"857",1,30,1,2,137,1,2,1,4,0.530913474897889,1.16301630818538
"858",1,20,1,2,138,3,2,1,2,0.776301102868618,1.55072876037914
"859",1,24,1,1,139,1,2,0,4,0.693378332224076,1.41971078276076
"860",1,30,1,1,140,1,1,1,4,0.461769984693436,1.05376959366235
"861",1,21,1,1,141,3,2,0,2,0.705337579340268,1.43860639320434
"862",1,27,1,1,142,1,2,0,3,0.547138409987077,1.1886517056263
"863",1,22,1,1,143,2,1,1,3,0.385709864814352,0.933594604253396
"864",1,24,1,1,144,2,2,0,2,0.488116771516539,1.09539751684285
"865",1,28,1,1,145,1,1,1,4,0.472762864182277,1.07113834325472
"866",1,18,1,1,146,1,1,1,4,0.294184679496449,0.78898481145111
"867",1,30,1,1,147,2,1,1,4,0.557029949710978,1.20428033839007
"868",1,20,1,2,148,3,2,1,3,0.519678270225653,1.14526468480325
"869",1,24,1,2,149,3,2,1,2,0.683203463612692,1.40363449035477
"870",1,30,1,2,150,1,2,1,4,0.393187585023974,0.945409402184599
"871",1,21,1,1,151,1,1,1,4,0.527362686669648,1.15740606278476
"872",1,27,1,2,152,1,2,1,4,0.311476496192469,0.816305881830821
"873",1,22,1,1,153,3,2,0,2,1.25934940779481,2.31394508216252
"874",1,24,1,1,154,1,1,1,5,0.386593110456272,0.93499013236763
"875",1,28,1,2,155,3,2,1,3,0.854466171439643,1.67422956872136
"876",1,18,1,1,156,1,1,1,4,0.541348982521919,1.17950441023135
"877",1,30,1,2,157,2,1,0,3,0.832500873223576,1.63952439753997
"878",1,20,1,1,158,1,1,1,4,0.519131929269692,1.14440146609283
"879",1,24,1,2,159,2,2,1,3,0.53545459929517,1.17019128473309
"880",1,30,1,1,160,2,1,1,4,0.388339573998029,0.937749544763606
"881",1,21,1,2,161,1,2,1,4,0.444793951280989,1.02694746087068
"882",1,27,1,2,162,3,1,0,1,1.37090070489327,2.49019613157808
"883",1,22,1,1,163,1,1,1,5,0.376714280899597,0.919381581668083
"884",1,24,1,2,164,2,1,0,2,0.394473986627452,0.947441916718095
"885",1,28,1,2,165,1,1,0,4,0.508124934349025,1.12701041411818
"886",1,18,1,1,166,3,2,0,1,0.269291843418518,0.749654130447979
"887",1,30,1,2,167,3,2,1,3,0.947458415712319,1.82115731467218
"888",1,20,1,1,168,1,1,1,5,0.350762433392676,0.878377662607149
"889",1,24,1,1,169,3,1,1,3,0.969720007803691,1.85633063017655
"890",1,30,1,1,170,2,2,0,3,0.491119908185711,1.10014247278014
"891",1,21,1,1,171,3,1,1,2,0.66498583188636,1.37485063222717
"892",1,27,1,1,172,2,1,1,3,0.681600953667201,1.4011025246409
"893",1,22,1,2,173,2,1,0,3,0.903634378122452,1.75191533528019
"894",1,24,1,1,174,2,1,1,4,0.381007606106946,0.926165035495694
"895",1,28,1,1,175,1,1,1,4,0.442268773232926,1.02295767955474
"896",1,18,1,1,176,2,2,0,2,0.687907497793686,1.41106686436074
"897",1,30,1,2,177,2,1,0,3,0.762512995553687,1.52894355082155
"898",1,20,1,1,178,1,2,0,3,0.561731508139838,1.21170880070766
"899",1,24,1,1,179,2,2,0,2,0.683427598352222,1.40398862324323
"900",1,30,1,2,180,1,1,0,3,0.426057892848241,0.997344488546942
"901",1,21,1,1,181,2,2,0,2,0.609991099707983,1.28795895538533
"902",1,27,1,1,182,1,1,1,5,0.387956231622284,0.937143863809928
"903",1,22,1,1,183,3,1,1,3,0.656053439525004,1.36073745229623
"904",1,24,1,2,184,2,2,1,4,0.77439126963479,1.54771122386969
"905",1,28,1,1,185,3,2,0,2,1.54229536613735,2.76099969634374
"906",1,18,1,2,186,1,2,1,4,0.430638686594777,1.00458214266647
"907",1,30,1,1,187,2,1,1,4,0.502873211418064,1.11871269188726
"908",1,20,1,2,188,2,2,1,3,0.743441797130473,1.49881105731287
"909",1,24,1,1,189,3,1,1,3,0.959262890113575,1.83980838422617
"910",1,30,1,1,190,2,1,1,4,0.539057842731863,1.17588440936306
"911",1,21,1,1,191,2,2,0,3,0.548288920948212,1.1904695129449
"912",1,27,1,1,192,3,2,0,2,0.812545241493569,1.60799449940656
"913",1,22,1,1,193,2,1,1,4,0.652223898235704,1.35468677705913
"914",1,24,1,1,194,3,2,0,2,1.75209257598223,3.09247928789865
"915",1,28,1,2,195,2,2,1,3,0.658805502789131,1.36508571225355
"916",1,18,1,2,196,3,2,1,3,0.914713907214319,1.76942099124534
"917",1,30,1,2,197,1,1,0,4,0.433586303958943,1.00923937810185
"918",1,20,1,1,198,1,1,1,5,0.419047979660037,0.986268825709578
"919",1,24,1,2,199,3,2,1,3,1.06944410940728,2.01389471071022
"920",1,30,1,2,200,3,2,1,2,0.967602907303299,1.85298561138593
"921",1,21,1,1,201,2,1,1,4,0.692804317272897,1.4188038391379
"922",1,27,1,2,202,1,2,1,4,0.249821570093273,0.718891098594092
"923",1,22,1,2,203,2,2,1,3,0.446516183870154,1.02966858836156
"924",1,24,1,1,204,3,2,0,2,1.58273662020682,2.82489687777349
"925",1,28,1,1,205,1,1,1,5,0.42477552987877,0.995318355055177
"926",1,18,1,1,206,3,2,0,1,1.7146671676342,3.03334714270875
"927",1,30,1,1,207,2,1,1,4,0.553230329727773,1.1982769388166
"928",1,20,1,2,208,3,2,1,2,0.855083298602785,1.67520462963912
"929",1,24,1,1,209,2,2,0,2,0.586432404898569,1.25073621758646
"930",1,30,1,1,210,2,1,1,4,0.695340418340238,1.4228108788243
"931",1,21,1,2,211,1,2,1,5,0.405715303718841,0.965203197722489
"932",1,27,1,1,212,1,1,1,4,0.464938414995617,1.0587757135398
"933",1,22,1,1,213,3,1,1,2,0.953965630774106,1.83143871446981
"934",1,24,1,1,214,2,1,1,3,0.504505921677369,1.12129237409696
"935",1,28,1,2,215,2,2,1,4,0.423301831702552,0.992989911936752
"936",1,18,1,2,216,1,2,1,5,0.407413879112496,0.967886946844464
"937",1,30,1,2,217,2,2,1,3,0.603620767704093,1.27789383081919
"938",1,20,1,1,218,1,1,1,5,0.457272871575142,1.04666415493544
"939",1,24,1,2,219,3,2,1,2,0.78445136540353,1.5636061751843
"940",1,30,1,2,220,2,2,1,3,0.490663847299236,1.09942189657951
"941",1,21,1,1,221,3,2,0,2,1.26998463541463,2.33074874180183
"942",1,27,1,1,222,1,1,1,5,0.361662355387791,0.89559953935943
"943",1,22,1,2,223,2,1,0,3,0.770454587546116,1.54149126616958
"944",1,24,1,1,224,1,2,0,3,0.476097659603336,1.07640732001999
"945",1,28,1,1,225,3,1,1,2,1.26294396637025,2.31962448471171
"946",1,18,1,2,226,2,2,1,3,0.512078943215965,1.13325774812795
"947",1,30,1,1,227,3,2,0,1,0.708424252378329,1.44348333660448
"948",1,20,1,1,228,3,2,0,1,0.51839541939971,1.14323778049826
"949",1,24,1,2,229,1,2,1,5,0.453648413748714,1.04093751156969
"950",1,30,1,1,230,1,1,1,5,0.308412447795033,0.811464685362872
"951",1,21,1,1,231,1,1,1,4,0.288102413584451,0.779374831310153
"952",1,27,1,2,232,3,1,0,2,0.640014969228516,1.33539666922778
"953",1,22,1,2,233,2,1,0,3,0.762967973226505,1.5296624155446
"954",1,24,1,2,234,3,1,0,2,1.05022510372176,1.9835286817271
"955",1,28,1,1,235,1,1,1,5,0.493484099135554,1.1038778944809
"956",1,18,1,2,236,2,2,1,4,0.641539626176044,1.33780562720487
"957",1,30,1,1,237,1,1,1,5,0.310275724928158,0.81440866323321
"958",1,20,1,2,238,3,2,1,3,0.753888180647587,1.51531634326991
"959",1,24,1,1,239,3,1,1,2,0.696933033689851,1.42532721107669
"960",1,30,1,1,240,2,2,0,2,0.696686602082216,1.42493784913662
