"","subj_no","age","group","stim","trial","difficulty","resp","corr","conf","RT_day1","RT_day2"
"1",7,25,1,2,1,1,1,0,3,0.674650458103023,0.583990281955446
"2",7,21,1,2,2,2,1,0,3,0.916274799446267,0.965756741277771
"3",7,22,1,1,3,3,2,0,2,0.0624557059715228,-0.383277426412324
"4",7,38,1,2,4,3,2,1,2,0.689730641844946,0.607816972267684
"5",7,22,1,1,5,2,1,1,3,0.464209125582957,0.251492976573741
"6",7,20,1,1,6,1,1,1,5,0.284664030004402,-0.0321882744403752
"7",7,30,1,1,7,3,1,1,2,0.855944494282443,0.870434859118929
"8",7,23,1,1,8,1,2,0,3,0.623112658175899,0.50256055807059
"9",7,34,1,1,9,3,2,0,1,1.14308313534451,1.324113911997
"10",7,38,1,1,10,2,2,0,3,0.86749416466,0.888683338315469
"11",7,25,1,1,11,2,2,0,2,0.784130290381065,0.756968416954752
"12",7,21,1,2,12,1,2,1,5,0.261133739594462,-0.0693661332880811
"13",7,22,1,2,13,2,2,1,3,0.439994888125023,0.213234481390207
"14",7,38,1,1,14,2,1,1,4,0.399728115725416,0.149612980998826
"15",7,22,1,2,15,1,2,1,5,0.396950046806984,0.145223632107705
"16",7,20,1,2,16,3,2,1,2,0.554418679354026,0.394024071532031
"17",7,30,1,1,17,1,1,1,4,0.424498106377637,0.188749566229335
"18",7,23,1,2,18,1,2,1,5,0.32034541763552,0.0241883180167907
"19",7,34,1,2,19,1,2,1,4,0.333367760246219,0.044763619341696
"20",7,38,1,1,20,1,1,1,5,0.481830844069339,0.279335291782225
"21",7,25,1,1,21,2,1,1,3,0.771287089795918,0.73667616003022
"22",7,21,1,1,22,3,2,0,1,0.761564456725552,0.721314399779041
"23",7,22,1,2,23,3,2,1,2,0.653426120457971,0.550455828476265
"24",7,38,1,2,24,3,1,0,2,0.995083498678059,1.090274486064
"25",7,22,1,2,25,3,2,1,2,0.818692823341687,0.811577219032536
"26",7,20,1,2,26,2,1,0,3,0.946919376458828,1.01417517295762
"27",7,30,1,1,27,1,2,0,4,0.448100321256458,0.226041065737874
"28",7,23,1,2,28,2,1,0,2,0.611252780776858,0.483821951780105
"29",7,34,1,1,29,1,1,1,5,0.327166064690082,0.0349649403629994
"30",7,38,1,2,30,3,1,0,2,0.243958212888956,-0.0965034654827795
"31",7,25,1,2,31,1,2,1,4,0.378579470468459,0.116198121492836
"32",7,21,1,1,32,1,1,1,4,0.390083328825271,0.134374217696598
"33",7,22,1,2,33,2,2,1,3,0.556220715301603,0.396871288329202
"34",7,38,1,2,34,3,1,0,2,1.35495043382481,1.65886424359586
"35",7,22,1,1,35,2,1,1,3,0.420013607935369,0.181664058690553
"36",7,20,1,2,36,1,1,0,4,0.559307967802981,0.40174914728138
"37",7,30,1,1,37,2,2,0,2,0.79898868351116,0.780444678100302
"38",7,23,1,2,38,1,1,0,4,0.665733269855283,0.569901124524017
"39",7,34,1,2,39,1,1,0,4,0.464949646187919,0.252662999129582
"40",7,38,1,2,40,1,2,1,4,0.301217628090768,-0.0060335894639173
"41",7,25,1,2,41,3,2,1,3,0.481867424188238,0.279393088370086
"42",7,21,1,1,42,3,1,1,3,0.631571680126034,0.515925812751804
"43",7,22,1,2,43,1,1,0,3,0.581588000297861,0.43695159862329
"44",7,38,1,2,44,1,1,0,4,0.6781934354922,0.589588186230346
"45",7,22,1,2,45,1,2,1,5,0.466136158759821,0.254537688993187
"46",7,20,1,1,46,2,1,1,3,0.680896128570058,0.593858441293362
"47",7,30,1,2,47,3,2,1,3,1.13031920384238,1.30394690022363
"48",7,23,1,2,48,3,1,0,1,0.331632073766928,0.0420212347044155
"49",7,34,1,2,49,3,1,0,2,0.802556986214027,0.786082596370832
"50",7,38,1,1,50,2,1,1,4,0.732660904280798,0.675646786916331
"51",7,25,1,2,51,2,2,1,3,0.569815442830982,0.418350957825622
"52",7,21,1,2,52,1,2,1,4,0.447117046895566,0.224487492247665
"53",7,22,1,1,53,2,2,0,3,0.766982496920935,0.729874903287747
"54",7,38,1,2,54,3,2,1,2,0.635359375758455,0.521910371851029
"55",7,22,1,2,55,1,1,0,3,0.5222231689731,0.343155165130167
"56",7,20,1,1,56,1,1,1,4,0.405552329986564,0.15881523953144
"57",7,30,1,2,57,1,2,1,5,0.362950215378816,0.0915038984511998
"58",7,23,1,2,58,2,1,0,3,0.600840597358612,0.467370701979276
"59",7,34,1,2,59,2,2,1,3,0.669780585134789,0.576295882665637
"60",7,38,1,1,60,2,2,0,2,0.650495944117157,0.545826149857778
"61",7,25,1,2,61,2,2,1,3,0.47065187066312,0.2616725138004
"62",7,21,1,1,62,1,2,0,3,0.602755315886537,0.470395957253397
"63",7,22,1,2,63,2,1,0,2,0.644218599078207,0.535907944696236
"64",7,38,1,1,64,3,1,1,3,0.724633118956832,0.662962886104465
"65",7,22,1,1,65,2,2,0,2,0.726527818921799,0.665956512049112
"66",7,20,1,1,66,1,1,1,4,0.487249548960601,0.28789684551042
"67",7,30,1,1,67,3,1,1,2,0.441027905685045,0.21486664913504
"68",7,23,1,2,68,3,2,1,2,0.728108957129379,0.668454710417089
"69",7,34,1,1,69,1,1,1,5,0.338055373199081,0.0521700478072185
"70",7,38,1,2,70,1,2,1,5,0.413247615307163,0.170973790337988
"71",7,25,1,1,71,1,1,1,5,0.310339913637503,0.00837962169992412
"72",7,21,1,1,72,3,2,0,1,1.17430250186025,1.37344051109186
"73",7,22,1,2,73,1,2,1,4,0.536911185675625,0.366362231520157
"74",7,38,1,2,74,2,2,1,3,0.578497278461932,0.432068258122523
"75",7,22,1,2,75,2,2,1,3,0.571440921123179,0.420919213527293
"76",7,20,1,1,76,1,1,1,4,0.43119413492136,0.199329291328419
"77",7,30,1,2,77,2,1,0,2,0.656133979858573,0.554734246329214
"78",7,23,1,1,78,1,1,1,4,0.334798425430192,0.0470240703323738
"79",7,34,1,2,79,3,2,1,2,0.776770976406359,0.745340700874716
"80",7,38,1,1,80,2,1,1,3,0.751048551153987,0.704699268975969
"81",7,25,1,1,81,2,2,0,3,0.474077967869436,0.267085747386378
"82",7,21,1,2,82,1,2,1,4,0.242436821229565,-0.0989072643046179
"83",7,22,1,1,83,1,1,1,5,0.533781239265837,0.361416916192693
"84",7,38,1,2,84,1,2,1,5,0.325067415906203,0.0316490752844698
"85",7,22,1,1,85,1,1,1,5,0.316063226797277,0.0174224564923672
"86",7,20,1,2,86,2,1,0,2,1.04530508646229,1.16962459476309
"87",7,30,1,2,87,2,2,1,4,0.4382726225257,0.210513301743276
"88",7,23,1,1,88,3,1,1,2,0.572627658837634,0.422794259116131
"89",7,34,1,2,89,3,2,1,3,0.681595673025845,0.594963721533506
"90",7,38,1,1,90,1,1,1,5,0.354415418799224,0.0780189198554431
"91",7,25,1,2,91,2,1,0,2,0.812400831537665,0.801635871982181
"92",7,21,1,1,92,3,1,1,3,0.686359427792364,0.602490454064605
"93",7,22,1,2,93,3,1,0,2,0.15170333985423,-0.242266164877647
"94",7,38,1,1,94,1,2,0,4,0.575504864012776,0.427340243292856
"95",7,22,1,2,95,1,2,1,5,0.289951030107781,-0.0238348142770363
"96",7,20,1,2,96,3,2,1,3,0.833300312935575,0.834657052590878
"97",7,30,1,2,97,2,2,1,3,0.439216167791632,0.212004103263449
"98",7,23,1,1,98,3,1,1,3,0.742685288965402,0.691485314718004
"99",7,34,1,2,99,2,1,0,3,0.732121887935091,0.674795141090114
"100",7,38,1,2,100,1,2,1,4,0.345714503398856,0.0642714735228628
"101",7,25,1,1,101,1,2,0,3,0.305866668374236,0.00131189418396249
"102",7,21,1,1,102,3,1,1,3,0.628992525535681,0.511850748499045
"103",7,22,1,1,103,3,1,1,2,1.160340144804,1.351379986943
"104",7,38,1,1,104,2,1,1,4,0.577618402370791,0.43067963389852
"105",7,22,1,2,105,3,1,0,1,0.825178938947426,0.821825281689602
"106",7,20,1,2,106,3,2,1,3,0.881115966030917,0.910205784481518
"107",7,30,1,1,107,3,2,0,1,1.1576975838784,1.34720474068054
"108",7,23,1,1,108,1,1,1,5,0.213289473179679,-0.144960074223437
"109",7,34,1,1,109,2,2,0,2,0.804785811677614,0.7896041406033
"110",7,38,1,1,110,3,1,1,2,0.814613937065962,0.805132578716889
"111",7,25,1,1,111,1,1,1,4,0.507021624897344,0.319136725490473
"112",7,21,1,2,112,2,2,1,3,0.719321259817653,0.654570148664561
"113",7,22,1,2,113,3,2,1,2,0.644755431008049,0.536756139145387
"114",7,38,1,1,114,2,2,0,3,0.31536716050409,0.0163226717491322
"115",7,22,1,1,115,1,1,1,4,0.299399410170708,-0.00890637377761133
"116",7,20,1,1,116,2,1,1,4,0.7346051131986,0.678718637006457
"117",7,30,1,1,117,3,2,0,2,0.612609622122194,0.485965761105736
"118",7,23,1,2,118,2,2,1,3,0.735338664340817,0.679877647811161
"119",7,34,1,1,119,2,1,1,3,0.839752251022365,0.844851114768006
"120",7,38,1,1,120,3,1,1,2,0.8560930270758,0.870669540932434
"121",7,25,1,1,121,3,2,0,2,1.33874226884531,1.63325534292825
"122",7,21,1,1,122,1,2,0,3,0.651064628292485,0.546724670854796
"123",7,22,1,1,123,2,1,1,4,0.388180027359731,0.131367001381045
"124",7,38,1,2,124,3,1,0,1,1.15764177067523,1.34711655581953
"125",7,22,1,1,125,2,1,1,4,0.629401029627519,0.512496184964149
"126",7,20,1,2,126,1,2,1,5,0.477276504407721,0.27213943511687
"127",7,30,1,1,127,1,2,0,3,0.546351936927193,0.381278618497635
"128",7,23,1,1,128,2,1,1,3,0.364785447897512,0.0944035658307388
"129",7,34,1,1,129,1,1,1,4,0.454245692988195,0.235750753074018
"130",7,38,1,2,130,2,2,1,3,0.374936684750078,0.110442520057793
"131",7,25,1,2,131,2,2,1,4,0.739834532501929,0.686981119505717
"132",7,21,1,2,132,1,2,1,5,0.380024009707388,0.118480493490342
"133",7,22,1,2,133,3,1,0,1,1.38214467825374,1.70183114979358
"134",7,38,1,2,134,3,1,0,1,1.07047526756401,1.20939348090381
"135",7,22,1,1,135,3,1,1,3,0.512800764313409,0.328267765767857
"136",7,20,1,2,136,2,2,1,4,0.696111386875759,0.617898549416369
"137",7,30,1,1,137,1,1,1,5,0.48968271412239,0.291741246466046
"138",7,23,1,1,138,3,2,0,2,0.987144930095319,1.07773154770327
"139",7,34,1,2,139,3,2,1,2,1.20573078853536,1.42309720403854
"140",7,38,1,1,140,2,2,0,2,0.826040031199273,0.82318580744752
"141",7,25,1,1,141,2,2,0,2,0.748471891108322,0.700628146103819
"142",7,21,1,1,142,3,1,1,2,0.923124806547839,0.976579752498256
"143",7,22,1,2,143,2,1,0,2,0.731387101104778,0.673634177898219
"144",7,38,1,1,144,2,2,0,3,0.83001738672561,0.829470029179133
"145",7,22,1,2,145,2,1,0,2,0.917892124785743,0.968312115314144
"146",7,20,1,1,146,1,1,1,5,0.342805812726156,0.0596757422599966
"147",7,30,1,2,147,3,2,1,2,0.553106343996507,0.391950581667151
"148",7,23,1,2,148,1,2,1,4,0.397798761396958,0.146564601159863
"149",7,34,1,1,149,1,1,1,4,0.467532372394586,0.256743706536115
"150",7,38,1,1,150,1,1,1,5,0.458992494007152,0.24325069868397
"151",7,25,1,1,151,2,2,0,2,0.775673436526688,0.743606587864837
"152",7,21,1,1,152,3,1,1,3,0.777694705932389,0.746800193525845
"153",7,22,1,2,153,2,2,1,3,0.672721930905124,0.580943208982766
"154",7,38,1,2,154,1,2,1,4,0.585794896980498,0.443598495381856
"155",7,22,1,1,155,1,1,1,4,0.310507343858544,0.00864416144916869
"156",7,20,1,1,156,2,2,0,3,0.936188199598686,0.997219913518594
"157",7,30,1,2,157,3,2,1,3,0.551684646815696,0.38970430012147
"158",7,23,1,1,158,2,1,1,3,0.44122143251311,0.215172421523383
"159",7,34,1,2,159,3,2,1,2,0.819517765144173,0.812880627080463
"160",7,38,1,2,160,2,2,1,4,0.523331346602372,0.344906085784417
"161",7,25,1,2,161,3,1,0,2,0.900733816982342,0.94120198898477
"162",7,21,1,1,162,1,1,1,5,0.448456487461028,0.226603808341093
"163",7,22,1,2,163,3,1,0,2,0.80409465496503,0.788512112997418
"164",7,38,1,1,164,1,1,1,4,0.613234288962199,0.486952734712944
"165",7,22,1,2,165,1,2,1,5,0.29764857284194,-0.0116726967570648
"166",7,20,1,1,166,3,2,0,2,1.43366848873477,1.7832387703536
"167",7,30,1,2,167,2,2,1,4,0.576150143780315,0.428359785325567
"168",7,23,1,1,168,3,2,0,1,0.874867983117073,0.900333971477644
"169",7,34,1,1,169,3,2,0,1,1.44163760654005,1.79582997648594
"170",7,38,1,1,170,3,1,1,3,0.908617638291351,0.953658426653005
"171",7,25,1,1,171,1,1,1,5,0.361852744541636,0.0897698945284544
"172",7,21,1,2,172,3,1,0,2,0.424506636540621,0.188763043886852
"173",7,22,1,1,173,2,2,0,3,0.746972245551078,0.698258706123373
"174",7,38,1,2,174,3,1,0,1,0.790907927688731,0.767677083900865
"175",7,22,1,2,175,2,1,0,3,0.847881365329221,0.857695115372839
"176",7,20,1,2,176,2,1,0,2,0.496602464660703,0.30267445231658
"177",7,30,1,2,177,2,1,0,2,0.773872839237303,0.740761644147609
"178",7,23,1,2,178,2,2,1,3,0.561585492595319,0.405347636453274
"179",7,34,1,2,179,2,2,1,4,0.501607077064995,0.310581739915362
"180",7,38,1,1,180,1,1,1,4,0.196522587229628,-0.171451754024518
"181",7,25,1,1,181,3,2,0,2,0.292915676546289,-0.0191506729041929
"182",7,21,1,2,182,1,2,1,5,0.319391525878821,0.022681169041207
"183",7,22,1,1,183,2,1,1,4,0.674367438532311,0.583543111033721
"184",7,38,1,2,184,2,1,0,2,0.936611659043285,0.99788897944106
"185",7,22,1,1,185,1,1,1,4,0.391467539030302,0.136561269820547
"186",7,20,1,2,186,3,1,0,1,1.16006773691083,1.35094958247179
"187",7,30,1,2,187,2,1,0,2,0.654837927010579,0.552686482829385
"188",7,23,1,2,188,1,2,1,4,0.512468749391711,0.327743182191573
"189",7,34,1,1,189,3,2,0,1,0.473272280600756,0.265812761501865
"190",7,38,1,1,190,1,2,0,4,0.606211854036751,0.475857287530736
"191",7,25,1,2,191,2,1,0,3,0.590642534514672,0.451257762685851
"192",7,21,1,2,192,3,2,1,2,0.930677812196044,0.98851350142242
"193",7,22,1,1,193,2,1,1,3,0.682786574822486,0.596845346372197
"194",7,38,1,1,194,3,2,0,1,0.226503703503033,-0.124081590312538
"195",7,22,1,2,195,1,2,1,5,0.365526363755487,0.0955742128863399
"196",7,20,1,1,196,1,1,1,4,0.371480475153065,0.104981708894513
"197",7,30,1,2,197,3,2,1,2,1.12775052231653,1.29988838341279
"198",7,23,1,1,198,2,2,0,2,0.747477862117827,0.699057580298836
"199",7,34,1,2,199,2,2,1,3,0.614723751071252,0.489306084845248
"200",7,38,1,1,200,3,1,1,3,0.725905101322914,0.664972618242875
"201",7,25,1,2,201,3,1,0,1,0.633660479885451,0.519226116371683
"202",7,21,1,1,202,3,1,1,3,0.89629703019587,0.934191865862144
"203",7,22,1,2,203,3,2,1,3,0.748963155813985,0.701404344338766
"204",7,38,1,2,204,1,2,1,4,0.531483923845755,0.357787157828963
"205",7,22,1,1,205,1,2,0,4,0.597655789379961,0.462338705373009
"206",7,20,1,1,206,1,1,1,4,0.488658201554566,0.290122516608884
"207",7,30,1,1,207,2,2,0,3,0.636942200393932,0.524411234775082
"208",7,23,1,1,208,3,1,1,3,0.919457969538909,0.970786150024146
"209",7,34,1,2,209,1,2,1,5,0.516661407787501,0.334367582456921
"210",7,38,1,2,210,2,1,0,2,0.687427969135949,0.604178749387469
"211",7,25,1,1,211,1,1,1,5,0.438656561961984,0.211119926052604
"212",7,21,1,1,212,3,1,1,3,0.968708035275454,1.04860125388789
"213",7,22,1,2,213,3,2,1,3,0.854068094148,0.867470146906509
"214",7,38,1,1,214,1,1,1,5,0.240353673714328,-0.102198637378692
"215",7,22,1,2,215,3,2,1,2,0.792811898323255,0.770685357503412
"216",7,20,1,2,216,1,2,1,5,0.380879146255859,0.119831609236926
"217",7,30,1,1,217,2,2,0,2,0.528734860477335,0.353443637706858
"218",7,23,1,1,218,3,1,1,3,0.890035331775893,0.924298382358581
"219",7,34,1,1,219,2,2,0,3,0.766936624375546,0.729802424666033
"220",7,38,1,1,220,1,2,0,3,0.524197975138216,0.346275358871051
"221",7,25,1,2,221,3,1,0,1,1.110918590716,1.27329393148394
"222",7,21,1,1,222,3,1,1,3,0.749207974389297,0.701791157687759
"223",7,22,1,1,223,3,1,1,3,0.980711778659274,1.06756716843432
"224",7,38,1,2,224,2,1,0,2,0.59429059490441,0.457021698101637
"225",7,22,1,1,225,3,2,0,2,1.77343222443418,2.32006547275868
"226",7,20,1,2,226,2,1,0,3,0.556373821493325,0.397113196112123
"227",7,30,1,2,227,2,2,1,3,0.623012189471347,0.502401817517398
"228",7,23,1,1,228,2,1,1,3,0.529006470706386,0.35387278186876
"229",7,34,1,2,229,2,1,0,2,0.610013791861983,0.481864349294603
"230",7,38,1,1,230,2,1,1,3,0.696851548495721,0.619068004775908
"231",7,25,1,2,231,1,2,1,5,0.283877817149879,-0.0334304907505213
"232",7,21,1,1,232,1,1,1,4,0.449122940126095,0.2276568035519
"233",7,22,1,1,233,3,1,1,2,0.476340633596247,0.27066075923474
"234",7,38,1,2,234,3,2,1,3,0.725864474885561,0.664908428471856
"235",7,22,1,2,235,2,2,1,4,0.586347895398427,0.444472232882184
"236",7,20,1,2,236,1,2,1,4,0.22263760367082,-0.130190028047435
"237",7,30,1,1,237,1,1,1,4,0.428478470369383,0.195038541336295
"238",7,23,1,2,238,3,2,1,3,0.623948149865029,0.503880634939416
"239",7,34,1,2,239,1,1,0,3,0.603691098841103,0.471874494321612
"240",7,38,1,1,240,3,2,0,1,1.13581379160399,1.31262834888697
"241",6,33,2,1,1,3,1,1,3,1.03824039679244,2.07812130543727
"242",6,27,2,1,2,1,1,1,5,0.349931701345092,0.990593566630453
"243",6,18,2,2,3,1,2,1,4,0.299125265587015,0.910319398132691
"244",6,37,2,1,4,2,1,1,4,0.776161733023447,1.66403701668225
"245",6,31,2,2,5,1,2,1,5,0.290418058261035,0.896562010557643
"246",6,21,2,2,6,2,1,0,2,0.6504007374516,1.46533464367874
"247",6,38,2,1,7,2,2,0,2,0.627808517082233,1.42963893549514
"248",6,35,2,2,8,2,1,0,3,0.766796372384394,1.64923974687255
"249",6,38,2,1,9,3,2,0,2,0.995625823377756,2.01079027944206
"250",6,34,2,2,10,2,1,0,2,0.621866409004176,1.42025040473181
"251",6,33,2,2,11,2,2,1,3,0.549378812924114,1.30572000292531
"252",6,27,2,2,12,3,2,1,2,0.997157027098263,2.01320958132046
"253",6,18,2,2,13,2,2,1,3,0.461695967552611,1.16718110723833
"254",6,37,2,1,14,2,1,1,4,0.584360107268247,1.36099044798904
"255",6,31,2,2,15,3,1,0,1,0.618288381579448,1.41459712140074
"256",6,21,2,1,16,1,1,1,4,0.231353660564811,0.80324026219761
"257",6,38,2,1,17,2,2,0,3,0.458945828838854,1.1628358880706
"258",6,35,2,1,18,3,2,0,2,1.44946236398301,2.72785201359837
"259",6,38,2,2,19,3,1,0,1,0.657187823116472,1.47605823902923
"260",6,34,2,2,20,1,2,1,5,0.4815217878756,1.19850590334866
"261",6,33,2,1,21,2,2,0,2,0.638837135420905,1.44706415247024
"262",6,27,2,2,22,1,2,1,5,0.41239216485885,1.08928109898219
"263",6,18,2,1,23,2,2,0,3,0.832181525553572,1.75254828887985
"264",6,37,2,1,24,2,2,0,2,1.00923526992783,2.03229320499117
"265",6,31,2,2,25,2,2,1,3,0.582797450187622,1.35852144980165
"266",6,21,2,1,26,2,2,0,3,0.666012481759335,1.49000119968496
"267",6,38,2,2,27,3,1,0,2,0.633155392625956,1.43808699885422
"268",6,35,2,1,28,2,1,1,4,0.69198254080852,1.53103389298267
"269",6,38,2,2,29,2,2,1,4,0.480062623800568,1.19620042411011
"270",6,34,2,1,30,3,1,1,3,0.93484498034414,1.91475654744895
"271",6,33,2,2,31,3,2,1,3,0.990357638829902,2.00246654785645
"272",6,27,2,2,32,1,2,1,5,0.353269091816329,0.995866643575007
"273",6,18,2,1,33,3,1,1,3,0.736678127187188,1.60165291946096
"274",6,37,2,2,34,3,2,1,3,1.1228518563864,2.21180741159572
"275",6,31,2,2,35,1,2,1,4,0.539191112810538,1.28962343674586
"276",6,21,2,2,36,1,2,1,4,0.253242186257427,0.837824132791942
"277",6,38,2,2,37,2,1,0,2,0.630695893949033,1.43420099094468
"278",6,35,2,1,38,3,1,1,2,0.937247040574658,1.91855180261317
"279",6,38,2,2,39,3,2,1,2,0.889576788119703,1.84323280373434
"280",6,34,2,2,40,1,2,1,4,0.501043844418538,1.2293507526865
"281",6,33,2,1,41,3,1,1,2,0.649822579629056,1.46442115431912
"282",6,27,2,2,42,3,2,1,3,1.07881237415338,2.14222502966755
"283",6,18,2,1,43,2,1,1,4,0.911332880671903,1.87760742996681
"284",6,37,2,2,44,2,2,1,4,0.659858816094364,1.4802784079343
"285",6,31,2,1,45,2,2,0,2,0.77499669458995,1.66219625595733
"286",6,21,2,1,46,1,1,1,4,0.393186065291051,1.05893546166507
"287",6,38,2,2,47,3,2,1,3,0.927339781327421,1.90289833300253
"288",6,35,2,2,48,2,2,1,3,0.608425325799533,1.39901349326847
"289",6,38,2,2,49,1,1,0,3,0.538995332602547,1.28931410401723
"290",6,34,2,2,50,2,1,0,2,0.409029664241605,1.08396834800694
"291",6,33,2,2,51,1,2,1,5,0.388983271178758,1.05229504696764
"292",6,27,2,1,52,1,1,1,5,0.444918700838451,1.14067302582996
"293",6,18,2,1,53,3,2,0,2,1.20545085587611,2.34231383078947
"294",6,37,2,2,54,2,1,0,3,0.54526113418241,1.29921407051342
"295",6,31,2,2,55,3,2,1,3,0.450778661252667,1.14993176328442
"296",6,21,2,2,56,3,1,0,1,0.465365164103059,1.17297843778804
"297",6,38,2,2,57,2,2,1,3,0.583187822553,1.35913823813895
"298",6,35,2,1,58,3,2,0,1,0.556139780828632,1.31640233221445
"299",6,38,2,2,59,3,2,1,2,0.469657803139499,1.17976080746562
"300",6,34,2,1,60,1,1,1,4,0.44842055771046,1.14620595968773
"301",6,33,2,2,61,2,2,1,4,0.584656346129393,1.36145850538965
"302",6,27,2,1,62,1,2,0,4,0.709068274247987,1.55802935181703
"303",6,18,2,2,63,2,2,1,3,0.505298028107118,1.23607236291445
"304",6,37,2,1,64,1,1,1,4,0.379060582154364,1.0366171983091
"305",6,31,2,2,65,3,1,0,2,0.800299475355103,1.70217464956627
"306",6,21,2,2,66,1,2,1,4,0.423135206186609,1.10625510428005
"307",6,38,2,2,67,3,1,0,2,0.823807036126807,1.73931659558556
"308",6,35,2,1,68,1,1,1,5,0.467988863705388,1.17712388315972
"309",6,38,2,1,69,2,2,0,3,0.63907970938211,1.44744741932894
"310",6,34,2,2,70,3,1,0,1,1.25693464128644,2.42365821173778
"311",6,33,2,2,71,3,2,1,2,1.15702412410349,2.26579959458872
"312",6,27,2,1,72,3,1,1,3,0.666471712150941,1.4907267837037
"313",6,18,2,2,73,2,2,1,3,0.806674422412019,1.7122470659162
"314",6,37,2,1,74,1,1,1,4,0.505809253081548,1.23688009837405
"315",6,31,2,1,75,1,2,0,3,0.443060768727824,1.13773749309517
"316",6,21,2,2,76,1,2,1,5,0.496552547884305,1.22225450416241
"317",6,38,2,2,77,2,1,0,3,0.668160997384419,1.49339585437259
"318",6,35,2,2,78,2,1,0,3,0.443170779754518,1.13791131051735
"319",6,38,2,2,79,2,2,1,3,0.593440421266239,1.37533734410587
"320",6,34,2,2,80,3,1,0,1,1.31523444684973,2.51577190452778
"321",6,33,2,1,81,1,2,0,4,0.582431502671152,1.35794325272563
"322",6,27,2,1,82,1,2,0,3,0.63744221427708,1.44486017706299
"323",6,18,2,1,83,1,1,1,4,0.485369656688211,1.20458553607258
"324",6,37,2,1,84,3,1,1,2,0.85011707555027,1.78088645787463
"325",6,31,2,1,85,2,2,0,3,0.781171324912079,1.67195217186629
"326",6,21,2,2,86,1,2,1,4,0.445729573240984,1.14195420422596
"327",6,38,2,2,87,1,2,1,5,0.37117800006891,1.02416271861409
"328",6,35,2,2,88,3,1,0,2,0.960856287625555,1.95585441295358
"329",6,38,2,2,89,3,1,0,1,0.292780639073467,0.900294888241286
"330",6,34,2,2,90,3,1,0,2,1.188282266727,2.31518745993387
"331",6,33,2,1,91,3,1,1,2,1.08213849017359,2.14748029297948
"332",6,27,2,1,92,2,2,0,3,0.733543889199399,1.59670082344026
"333",6,18,2,1,93,1,1,1,4,0.350094413818698,0.99085065233875
"334",6,37,2,1,94,3,1,1,3,0.843284367095503,1.7700907785161
"335",6,31,2,2,95,3,1,0,1,0.981898250625864,1.98910071449407
"336",6,21,2,2,96,3,1,0,2,1.09727924361732,2.17140268342057
"337",6,38,2,1,97,1,1,1,4,0.365537056901511,1.0152500284096
"338",6,35,2,1,98,1,1,1,5,0.489617762401573,1.21129754309969
"339",6,38,2,2,99,1,2,1,5,0.359775134475616,1.00614619097668
"340",6,34,2,1,100,1,2,0,3,0.561109296111588,1.32425416636152
"341",6,33,2,1,101,3,1,1,3,0.47221238079325,1.18379704015854
"342",6,27,2,1,102,2,2,0,2,0.672338738345904,1.49999668509174
"343",6,18,2,2,103,3,1,0,2,1.20079600306021,2.33495916334034
"344",6,37,2,2,104,1,2,1,4,0.543315116450589,1.29613936249714
"345",6,31,2,2,105,2,2,1,4,0.577420393553489,1.35002570031972
"346",6,21,2,2,106,2,2,1,4,0.635798677832187,1.44226338948006
"347",6,38,2,1,107,1,1,1,4,0.417069746159717,1.09667167743756
"348",6,35,2,2,108,1,1,0,3,0.561639400455706,1.32509173122522
"349",6,38,2,1,109,2,2,0,2,0.729348259417464,1.5900717283848
"350",6,34,2,2,110,3,1,0,1,0.714177483253376,1.56610190204554
"351",6,33,2,1,111,2,1,1,3,0.44788726548984,1.14536335797915
"352",6,27,2,1,112,2,1,1,4,0.673418164440661,1.50170217832145
"353",6,18,2,1,113,3,2,0,1,1.64934168372303,3.04366133878759
"354",6,37,2,1,114,3,1,1,3,0.392204866285938,1.05738516723699
"355",6,31,2,2,115,3,2,1,3,0.858940794707269,1.79482793414269
"356",6,21,2,2,116,2,1,0,2,0.696438966985921,1.53807504634296
"357",6,38,2,1,117,1,1,1,4,0.293274487513971,0.901075168777282
"358",6,35,2,2,118,3,2,1,3,0.545859006619132,1.30015870896344
"359",6,38,2,1,119,3,2,0,1,1.12127677747221,2.2093187869113
"360",6,34,2,1,120,3,1,1,3,0.425511187682777,1.11000915504399
"361",6,33,2,1,121,2,1,1,3,0.710928132730733,1.56096792821977
"362",6,27,2,1,122,2,1,1,4,0.475165878690085,1.18846356683554
"363",6,18,2,1,123,3,2,0,2,1.48735228163522,2.78771808348885
"364",6,37,2,1,124,1,1,1,4,0.356896118082042,1.00159734507483
"365",6,31,2,2,125,2,1,0,3,0.723386031472775,1.58065140823219
"366",6,21,2,1,126,2,1,1,4,0.418143895224357,1.09836883295969
"367",6,38,2,1,127,1,1,1,5,0.360512865851039,1.00731180654985
"368",6,35,2,1,128,1,1,1,4,0.55933819738095,1.32145583036711
"369",6,38,2,1,129,2,2,0,2,0.684704246692626,1.51953418827956
"370",6,34,2,1,130,1,1,1,4,0.316824604930207,0.938284354294935
"371",6,33,2,1,131,2,1,1,4,0.761261835021647,1.64049517783941
"372",6,27,2,2,132,1,2,1,4,0.386266343777847,1.04800230167421
"373",6,18,2,2,133,1,2,1,4,0.366843375787272,1.0173140122491
"374",6,37,2,2,134,1,2,1,5,0.354114796671236,0.997202857245761
"375",6,31,2,2,135,3,2,1,3,0.498679118741025,1.22561448611603
"376",6,21,2,1,136,2,1,1,4,0.661751995290277,1.48326963106384
"377",6,38,2,1,137,3,2,0,2,0.879192271758916,1.8268252678843
"378",6,35,2,2,138,1,2,1,5,0.422699820887377,1.10556719550726
"379",6,38,2,1,139,1,1,1,5,0.433099859289096,1.12199925618198
"380",6,34,2,1,140,2,2,0,2,0.882790134872455,1.83250989160369
"381",6,33,2,1,141,2,2,0,2,0.869760265231231,1.81192269757055
"382",6,27,2,2,142,2,2,1,4,0.866527472973808,1.80681488580382
"383",6,18,2,2,143,3,1,0,1,0.16058712511662,0.691429136189467
"384",6,37,2,2,144,3,2,1,2,0.678513293068906,1.50975248155408
"385",6,31,2,2,145,2,1,0,3,0.159429622997681,0.689600282841544
"386",6,21,2,1,146,1,1,1,5,0.376815976206802,1.03307072091196
"387",6,38,2,2,147,1,2,1,5,0.350137006869499,0.990917949359017
"388",6,35,2,1,148,3,1,1,3,0.754067211469087,1.62912767262637
"389",6,38,2,2,149,3,1,0,2,0.676671860034727,1.50684301736008
"390",6,34,2,2,150,1,2,1,4,0.432303153247797,1.12074046063673
"391",6,33,2,1,151,1,1,1,5,0.453013793087476,1.15346327158342
"392",6,27,2,1,152,3,2,0,1,0.944019554973171,1.92925237536282
"393",6,18,2,2,153,1,1,0,3,0.423208963921113,1.10637164150057
"394",6,37,2,1,154,2,1,1,4,0.780763784000444,1.67130825722591
"395",6,31,2,2,155,2,1,0,2,0.581324685228717,1.35619448116658
"396",6,21,2,1,156,2,1,1,4,0.507668674795024,1.23981798468135
"397",6,38,2,1,157,1,1,1,5,0.439027595431222,1.13136507928654
"398",6,35,2,2,158,3,2,1,3,0.864302446421781,1.80329934385162
"399",6,38,2,2,159,2,1,0,3,0.8107378615465,1.71866729974868
"400",6,34,2,2,160,2,1,0,2,0.691137311925585,1.52969843134763
"401",6,33,2,2,161,3,2,1,3,0.7996202052556,1.70110140280906
"402",6,27,2,1,162,1,1,1,4,0.417680672509649,1.09763694107045
"403",6,18,2,2,163,3,2,1,3,0.975698257955844,1.97930472607544
"404",6,37,2,2,164,2,1,0,3,0.798244795832979,1.69892825592132
"405",6,31,2,1,165,1,1,1,5,0.329603463741773,0.95847495121721
"406",6,21,2,2,166,3,1,0,2,0.712793678875002,1.56391549112771
"407",6,38,2,1,167,1,1,1,5,0.414349965064145,1.09237442330656
"408",6,35,2,1,168,1,1,1,4,0.312768518418006,0.931875737605657
"409",6,38,2,2,169,3,1,0,1,0.732827019966061,1.59556817005158
"410",6,34,2,1,170,1,2,0,4,0.467298630312516,1.17603331439898
"411",6,33,2,1,171,3,2,0,1,0.67576913295173,1.50541670856894
"412",6,27,2,2,172,2,2,1,3,0.617470284522803,1.41330452805124
"413",6,18,2,1,173,1,1,1,4,0.343008015558071,0.97965414308696
"414",6,37,2,2,174,1,2,1,4,0.391116863916972,1.05566612349402
"415",6,31,2,1,175,2,2,0,2,0.658629316205074,1.47833579810923
"416",6,21,2,1,176,2,1,1,4,0.59524472588983,1.37818814541114
"417",6,38,2,2,177,3,2,1,3,1.05207526809425,2.09998040209413
"418",6,35,2,1,178,2,1,1,3,0.532528754446279,1.27909691053033
"419",6,38,2,1,179,1,2,0,4,0.514637992491172,1.25082950664126
"420",6,34,2,2,180,2,2,1,3,0.746093684418643,1.61652949988666
"421",6,33,2,2,181,2,1,0,3,0.604944374094875,1.39351358957511
"422",6,27,2,2,182,1,2,1,5,0.495908919298338,1.22123757099658
"423",6,18,2,1,183,1,1,1,5,0.327364659752822,0.954937640914666
"424",6,37,2,2,184,1,2,1,5,0.43683630015368,1.12790283274802
"425",6,31,2,1,185,3,2,0,1,1.2187755286342,2.36336681374724
"426",6,21,2,2,186,2,2,1,3,0.403893981707733,1.07585396960343
"427",6,38,2,1,187,2,1,1,4,0.566294647356747,1.33244702132887
"428",6,35,2,1,188,2,1,1,3,0.638443845338112,1.44644275413942
"429",6,38,2,1,189,2,2,0,3,0.711951467508976,1.56258479716939
"430",6,34,2,1,190,2,1,1,4,0.546289590773656,1.30083903192758
"431",6,33,2,1,191,3,1,1,2,0.972125137675919,1.97365919603316
"432",6,27,2,2,192,1,2,1,4,0.460554252624795,1.16537719765238
"433",6,18,2,2,193,3,1,0,1,1.00710841131838,2.02893276838825
"434",6,37,2,2,194,3,2,1,3,0.930263695594861,1.90751811754509
"435",6,31,2,2,195,2,1,0,3,0.658632621297003,1.47834102015447
"436",6,21,2,1,196,3,1,1,3,0.810840047859052,1.71882875412251
"437",6,38,2,2,197,3,2,1,2,0.844188328203684,1.77151903706703
"438",6,35,2,1,198,1,1,1,5,0.416744530722904,1.0961578370474
"439",6,38,2,2,199,2,2,1,3,0.42030142360304,1.10177772779801
"440",6,34,2,1,200,1,1,1,4,0.353316318298955,0.995941261417557
"441",6,33,2,1,201,2,1,1,3,0.506638009972306,1.23818953426145
"442",6,27,2,1,202,2,2,0,2,0.739870449039718,1.60669678798796
"443",6,18,2,1,203,1,1,1,5,0.405176977087846,1.077881102304
"444",6,37,2,1,204,3,2,0,2,1.28473204648538,2.46757811195211
"445",6,31,2,2,205,1,1,0,4,0.446024350459496,1.14241995223121
"446",6,21,2,1,206,3,2,0,2,0.273218897857104,0.869387337119433
"447",6,38,2,2,207,1,2,1,5,0.377755642042531,1.03455539293241
"448",6,35,2,1,208,2,1,1,4,0.594521695088792,1.3770457567455
"449",6,38,2,1,209,3,2,0,1,0.375980841692928,1.03175120838003
"450",6,34,2,2,210,1,2,1,4,0.463082377450251,1.1693716348766
"451",6,33,2,2,211,1,2,1,5,0.40802644008315,1.08238325383659
"452",6,27,2,1,212,3,1,1,2,1.21608199578592,2.35911103184696
"453",6,18,2,2,213,1,2,1,5,0.457668872477503,1.16081829701966
"454",6,37,2,2,214,2,2,1,3,0.844614287964925,1.77219205348979
"455",6,31,2,1,215,3,2,0,1,1.02171116240491,2.05200511510496
"456",6,21,2,1,216,2,1,1,4,0.554455144239287,1.31374060640328
"457",6,38,2,2,217,2,2,1,3,0.482985670376132,1.2008188376995
"458",6,35,2,2,218,3,2,1,2,0.723619326403066,1.58102001422205
"459",6,38,2,2,219,2,2,1,3,0.419324944084236,1.1002348901583
"460",6,34,2,2,220,2,2,1,3,0.555836192249387,1.31592266225924
"461",6,33,2,1,221,1,1,1,5,0.347693813110601,0.987057703219957
"462",6,27,2,1,222,1,1,1,5,0.340544436616311,0.97576168835898
"463",6,18,2,1,223,3,2,0,1,1.46010831993494,2.74467262400242
"464",6,37,2,2,224,3,2,1,3,0.847831542264908,1.77727531528376
"465",6,31,2,1,225,3,2,0,1,1.04821612890547,2.09388296217586
"466",6,21,2,1,226,1,1,1,4,0.448365496174411,1.14611896246078
"467",6,38,2,1,227,1,1,1,4,0.425494362147744,1.10998257069864
"468",6,35,2,2,228,2,1,0,3,0.875061731126681,1.82029901368536
"469",6,38,2,2,229,3,1,0,2,0.842150621754288,1.76829946087698
"470",6,34,2,2,230,3,2,1,3,0.485809799193683,1.20528096123123
"471",6,33,2,1,231,1,2,0,4,0.587274048032101,1.36559447439593
"472",6,27,2,2,232,3,2,1,2,0.661329198949467,1.48260161284537
"473",6,18,2,1,233,3,2,0,2,1.62121830900062,2.99922640672618
"474",6,37,2,2,234,3,1,0,1,0.968122001596814,1.96733424102817
"475",6,31,2,2,235,1,2,1,5,0.280825336069487,0.881405509494998
"476",6,21,2,1,236,1,2,0,4,0.669112226199599,1.49489879590057
"477",6,38,2,2,237,1,2,1,5,0.426998778348062,1.11235954829514
"478",6,35,2,1,238,2,2,0,3,0.51912187917926,1.25791404760844
"479",6,38,2,1,239,3,2,0,1,0.848783072913074,1.77877873370787
"480",6,34,2,1,240,1,1,1,5,0.327115124057836,0.954543374516588
"481",5,31,1,2,1,2,1,0,3,0.453007417594605,-0.392044964280364
"482",5,32,1,2,2,2,2,1,4,0.615512037120161,-0.135287665429986
"483",5,24,1,2,3,2,2,1,4,0.468516044606558,-0.367541333601478
"484",5,37,1,2,4,2,2,1,4,0.716352792584234,0.0240407282032491
"485",5,19,1,2,5,1,2,1,5,0.3031626253707,-0.628799735994134
"486",5,38,1,2,6,1,1,0,4,0.62924232300726,-0.11359381372837
"487",5,33,1,2,7,3,1,0,2,0.683713614819782,-0.0275291726645848
"488",5,24,1,1,8,3,1,1,3,0.880394505735528,0.283226634982294
"489",5,30,1,2,9,2,2,1,3,0.291179663727054,-0.647732815391094
"490",5,37,1,2,10,2,2,1,3,0.75183648500899,0.0801049622343637
"491",5,31,1,2,11,2,2,1,3,0.586922851132247,-0.18045857929089
"492",5,32,1,1,12,1,2,0,3,0.499462199661743,-0.318646408614287
"493",5,24,1,2,13,1,2,1,5,0.272532660256892,-0.67719508087395
"494",5,37,1,2,14,3,2,1,3,0.678454917517359,-0.0358379144024129
"495",5,19,1,1,15,3,1,1,2,0.793432244769265,0.145826262655599
"496",5,38,1,1,16,3,1,1,3,0.665894281908457,-0.0556837186644782
"497",5,33,1,2,17,3,2,1,3,0.914683491375875,0.337403232294043
"498",5,24,1,1,18,3,1,1,2,0.248789931659605,-0.714708592057664
"499",5,30,1,2,19,1,2,1,5,0.534101290565317,-0.263916644986639
"500",5,37,1,2,20,2,1,0,2,0.683320667764236,-0.0281500290123464
"501",5,31,1,2,21,3,2,1,3,1.06252199138265,0.570988062304748
"502",5,32,1,2,22,1,2,1,5,0.488267218480129,-0.336334478881236
"503",5,24,1,2,23,1,2,1,5,0.504203982930992,-0.311154391048873
"504",5,37,1,1,24,1,1,1,5,0.29780285238023,-0.637268177319077
"505",5,19,1,2,25,1,2,1,5,0.246474627136455,-0.718366773204241
"506",5,38,1,1,26,1,2,0,4,0.296127483224334,-0.639915260585392
"507",5,33,1,1,27,3,1,1,3,0.710277257330969,0.0144413825030912
"508",5,24,1,1,28,1,1,1,4,0.402578892662655,-0.471722033672846
"509",5,30,1,1,29,1,2,0,4,0.661649185982652,-0.0623909702272499
"510",5,37,1,2,30,2,2,1,3,0.57060489864789,-0.206240944216173
"511",5,31,1,1,31,3,2,0,1,1.64605947883202,1.49297729247476
"512",5,32,1,2,32,1,2,1,4,0.318330068950833,-0.604835175137523
"513",5,24,1,1,33,3,1,1,3,0.695929166204405,-0.00822860147687965
"514",5,37,1,1,34,2,1,1,4,0.498490852591887,-0.320181136984658
"515",5,19,1,2,35,2,2,1,3,0.507693011442929,-0.305641726000011
"516",5,38,1,1,36,2,2,0,2,0.567345212493142,-0.211391248340675
"517",5,33,1,1,37,3,1,1,2,1.19564791058239,0.78132701464034
"518",5,24,1,2,38,1,1,0,3,0.476580995122917,-0.354798711785631
"519",5,30,1,2,39,1,2,1,5,0.410199788332385,-0.459681018514672
"520",5,37,1,1,40,3,1,1,3,0.902665827002397,0.318415322583947
"521",5,31,1,1,41,2,1,1,3,0.792103871046817,0.143727432174131
"522",5,32,1,2,42,3,1,0,1,0.703607023290633,0.00390241271936087
"523",5,24,1,2,43,2,2,1,3,0.518902938816934,-0.287930040749084
"524",5,37,1,2,44,2,1,0,2,0.602635540643482,-0.155632529863138
"525",5,19,1,2,45,3,1,0,2,0.893482777213326,0.303906103917215
"526",5,38,1,1,46,1,1,1,4,0.243446190488541,-0.723151703107945
"527",5,33,1,2,47,2,2,1,4,0.576527617699607,-0.19688304811446
"528",5,24,1,1,48,3,1,1,2,0.788623682320221,0.138228733986109
"529",5,30,1,2,49,2,2,1,4,0.602124765413162,-0.156439554727044
"530",5,37,1,1,50,1,1,1,5,0.276231423708257,-0.671351034620794
"531",5,31,1,2,51,2,2,1,3,0.745451670606446,0.0700169554783454
"532",5,32,1,2,52,3,2,1,2,0.873351830472918,0.27209920806737
"533",5,24,1,1,53,3,2,0,1,1.33765652533451,1.00570062594869
"534",5,37,1,2,54,3,2,1,3,0.941288282416913,0.379438802138882
"535",5,19,1,2,55,1,2,1,4,0.510607751715549,-0.301036436369273
"536",5,38,1,2,56,2,1,0,2,0.89485223999122,0.306069855106288
"537",5,33,1,2,57,3,2,1,2,1.08778281149666,0.610900158084882
"538",5,24,1,2,58,3,1,0,2,1.05012319100503,0.551397957708107
"539",5,30,1,1,59,3,1,1,3,0.639553204221574,-0.0973026214097533
"540",5,37,1,2,60,1,2,1,4,0.500051104916561,-0.317715938311673
"541",5,31,1,1,61,1,1,1,4,0.517701137838306,-0.289828886295317
"542",5,32,1,2,62,2,2,1,3,0.560922187842661,-0.221539627288435
"543",5,24,1,2,63,1,2,1,5,0.381695899554554,-0.504717162783645
"544",5,37,1,1,64,2,1,1,4,0.75657475747406,0.087591432729175
"545",5,19,1,2,65,1,2,1,4,0.372026061578258,-0.519995506786193
"546",5,38,1,2,66,1,2,1,5,0.38586464893245,-0.498130538766569
"547",5,33,1,1,67,2,1,1,4,0.540831546895048,-0.253282839985663
"548",5,24,1,2,68,3,1,0,1,1.23558030507569,0.844420197939756
"549",5,30,1,1,69,3,1,1,3,0.846245034408336,0.229270470285332
"550",5,37,1,1,70,3,2,0,2,0.606703586388162,-0.149205017586544
"551",5,31,1,1,71,3,1,1,3,0.957752078036014,0.405451599217062
"552",5,32,1,2,72,2,1,0,2,0.777976324799986,0.121405909104138
"553",5,24,1,1,73,1,1,1,5,0.447149211916497,-0.401300929251775
"554",5,37,1,1,74,3,2,0,2,1.52817269543202,1.30671617470275
"555",5,19,1,1,75,3,1,1,2,0.57799849231002,-0.194559066230008
"556",5,38,1,1,76,1,1,1,4,0.300855775459977,-0.632444558853076
"557",5,33,1,2,77,3,2,1,2,0.724017539384578,0.0361510281477941
"558",5,24,1,1,78,1,1,1,5,0.329470688910858,-0.587232995600684
"559",5,30,1,2,79,1,1,0,4,0.594172509966116,-0.169004118333377
"560",5,37,1,1,80,2,2,0,3,0.703511634149873,0.0037516978769595
"561",5,31,1,2,81,1,2,1,5,0.432630249805049,-0.424240889387863
"562",5,32,1,1,82,3,2,0,1,1.21218983819761,0.807463260272378
"563",5,24,1,1,83,2,2,0,2,0.746308299861437,0.0713704297012309
"564",5,37,1,2,84,3,1,0,1,0.983889764422634,0.446749143707921
"565",5,19,1,2,85,2,2,1,3,0.689711364268613,-0.0180527285354306
"566",5,38,1,1,86,1,1,1,5,0.43898337688891,-0.414202948595362
"567",5,33,1,1,87,2,2,0,3,0.562076273174443,-0.21971617246422
"568",5,24,1,2,88,3,2,1,3,0.580519259336781,-0.190576254327726
"569",5,30,1,1,89,2,1,1,4,0.401209720603638,-0.473885325526092
"570",5,37,1,1,90,2,1,1,3,0.748258499462617,0.0744517450710944
"571",5,31,1,1,91,2,2,0,2,0.698514866876269,-0.00414319441533428
"572",5,32,1,1,92,2,2,0,3,0.798811058665075,0.154324788610978
"573",5,24,1,1,93,3,1,1,3,0.973068612901538,0.429651724304591
"574",5,37,1,2,94,3,2,1,3,0.697694769085012,-0.0054389489255201
"575",5,19,1,2,95,1,2,1,4,0.353199763777235,-0.549741057311809
"576",5,38,1,2,96,3,1,0,1,1.12956988410326,0.676923732803311
"577",5,33,1,1,97,1,1,1,4,0.527892091900163,-0.273727178877583
"578",5,24,1,1,98,1,1,1,4,0.398260059693893,-0.478545789763488
"579",5,30,1,1,99,1,2,0,3,0.512697042672339,-0.297735356657545
"580",5,37,1,1,100,3,1,1,2,0.681973834143873,-0.0302780261325203
"581",5,31,1,1,101,1,1,1,4,0.534463264927475,-0.26334472549443
"582",5,32,1,1,102,2,2,0,3,1.00733659732623,0.483795139695611
"583",5,24,1,2,103,1,2,1,4,0.272320733319638,-0.677529925434812
"584",5,37,1,2,104,1,2,1,4,0.504845030133099,-0.310141536469543
"585",5,19,1,2,105,1,2,1,5,0.376931037296066,-0.512245645152055
"586",5,38,1,1,106,3,1,1,3,0.811993908949612,0.175153692060548
"587",5,33,1,1,107,2,1,1,4,0.737391652303238,0.0572821265592758
"588",5,24,1,1,108,3,2,0,2,1.39649278484908,1.0986619159817
"589",5,30,1,1,109,1,1,1,5,0.299298995612781,-0.634904271011646
"590",5,37,1,2,110,1,2,1,5,0.479075175922228,-0.35085790612272
"591",5,31,1,2,111,3,2,1,3,0.720929756702798,0.0312723315105813
"592",5,32,1,1,112,2,1,1,4,0.526957129481977,-0.275204419498317
"593",5,24,1,2,113,2,2,1,4,0.515699251626578,-0.292991866509847
"594",5,37,1,2,114,1,1,0,4,0.454829321701694,-0.389166355791163
"595",5,19,1,2,115,1,2,1,4,0.306307756026748,-0.623830429557578
"596",5,38,1,1,116,2,2,0,2,0.818298772420395,0.185115376344384
"597",5,33,1,1,117,2,1,1,3,0.601256261074197,-0.157811791582609
"598",5,24,1,1,118,2,2,0,2,0.486916883373757,-0.338468008349304
"599",5,30,1,2,119,2,1,0,3,0.835124463630216,0.211699968455901
"600",5,37,1,2,120,3,1,0,2,1.01694029240889,0.498968977926209
"601",5,31,1,1,121,2,2,0,3,0.521906726134632,-0.283184056787122
"602",5,32,1,2,122,1,2,1,5,0.441098396791266,-0.410861217149639
"603",5,24,1,2,123,2,1,0,2,0.968293429978257,0.422106935285807
"604",5,37,1,2,124,1,1,0,4,0.652613922366401,-0.0766666867409258
"605",5,19,1,2,125,1,2,1,4,0.593855482368004,-0.169505021938394
"606",5,38,1,1,126,2,1,1,4,0.369518319616391,-0.523957739085942
"607",5,33,1,1,127,3,1,1,3,0.734552121475569,0.0527956678515586
"608",5,24,1,1,128,3,1,1,3,1.06563168395482,0.57590137656878
"609",5,30,1,1,129,3,2,0,2,0.97091526694006,0.426249437685455
"610",5,37,1,1,130,3,2,0,1,0.553907388894931,-0.23262300962585
"611",5,31,1,2,131,2,2,1,3,0.589687277741711,-0.176090785247937
"612",5,32,1,2,132,2,1,0,2,0.662948899893924,-0.0603374222474407
"613",5,24,1,2,133,2,2,1,3,0.707166320356499,0.00952610208342775
"614",5,37,1,2,134,1,2,1,4,0.487696609222044,-0.33723604150901
"615",5,19,1,2,135,3,2,1,2,0.682759464516478,-0.029036730143804
"616",5,38,1,2,136,3,1,0,2,1.33275836589485,0.997961534034017
"617",5,33,1,1,137,2,1,1,4,0.585808058583846,-0.182219951517363
"618",5,24,1,2,138,3,2,1,2,0.658259748843853,-0.0677462809065519
"619",5,30,1,1,139,3,1,1,2,0.66981835000772,-0.0494836910676424
"620",5,37,1,1,140,1,1,1,5,0.508511175431446,-0.304349026898155
"621",5,31,1,1,141,2,2,0,2,0.827154504058315,0.199107432332298
"622",5,32,1,1,142,3,1,1,3,0.767746457223606,0.105242718333458
"623",5,24,1,1,143,3,2,0,2,0.868487347149308,0.264413324416067
"624",5,37,1,1,144,2,2,0,2,0.700041474579912,-0.00173115424357873
"625",5,19,1,2,145,2,1,0,3,0.960442359994863,0.409702244712044
"626",5,38,1,1,146,2,1,1,3,0.655560655052104,-0.072010849097515
"627",5,33,1,2,147,1,2,1,5,0.47867850161803,-0.351484651523352
"628",5,24,1,1,148,2,2,0,3,0.625221561332575,-0.119946617174371
"629",5,30,1,1,149,2,1,1,3,0.699242681852156,-0.00299324675343304
"630",5,37,1,2,150,3,1,0,1,0.976368131562776,0.434864963789347
"631",5,31,1,1,151,2,1,1,3,0.684723350955352,-0.0259337895703845
"632",5,32,1,2,152,1,1,0,4,0.407921839799676,-0.463280177196352
"633",5,24,1,2,153,2,2,1,4,0.578276458102528,-0.194119880277846
"634",5,37,1,2,154,2,2,1,4,0.513437952251278,-0.296564719522821
"635",5,19,1,2,155,3,1,0,1,0.904733862307668,0.321682818366276
"636",5,38,1,2,156,2,1,0,3,0.563329454264778,-0.217736146341491
"637",5,33,1,1,157,2,2,0,3,0.661244931894339,-0.0630296916867836
"638",5,24,1,1,158,1,2,0,3,0.505205688381232,-0.309571696437493
"639",5,30,1,1,159,1,1,1,5,0.520140994638072,-0.285973912551687
"640",5,37,1,1,160,1,1,1,4,0.543037475796815,-0.249797472320872
"641",5,31,1,2,161,3,1,0,1,0.940839912199281,0.378730377195025
"642",5,32,1,2,162,3,1,0,1,1.02974122268356,0.519194447760184
"643",5,24,1,2,163,1,2,1,5,0.23825760171526,-0.731349673369728
"644",5,37,1,1,164,3,1,1,3,0.827297877190229,0.199333961880722
"645",5,19,1,1,165,3,2,0,2,1.22891361045038,0.833886820431761
"646",5,38,1,1,166,2,2,0,2,1.00718503839718,0.48355567658771
"647",5,33,1,1,167,2,2,0,2,1.02378981212802,0.509791219082427
"648",5,24,1,2,168,1,2,1,4,0.444351488679223,-0.405721331966667
"649",5,30,1,2,169,3,1,0,1,0.995848477549638,0.465643910448588
"650",5,37,1,2,170,1,2,1,5,0.418921946458027,-0.445900008676158
"651",5,31,1,2,171,2,2,1,3,0.76184866860444,0.0959242123151746
"652",5,32,1,1,172,1,1,1,4,0.265484396879018,-0.688331337010991
"653",5,24,1,2,173,1,2,1,5,0.141660642044619,-0.883972869649342
"654",5,37,1,1,174,2,2,0,3,0.573520960540417,-0.20163356642598
"655",5,19,1,1,175,1,1,1,4,0.3158980345438,-0.608677789500635
"656",5,38,1,1,176,3,1,1,3,1.10823798321468,0.643219329399347
"657",5,33,1,1,177,3,1,1,3,0.756490603601633,0.0874584696107404
"658",5,24,1,1,178,1,1,1,5,0.487774562005156,-0.337112876111694
"659",5,30,1,1,179,2,2,0,3,0.910173807338226,0.330277931514557
"660",5,37,1,1,180,1,2,0,3,0.63354955089375,-0.106788393667715
"661",5,31,1,1,181,1,1,1,4,0.369661854542688,-0.523730953902393
"662",5,32,1,2,182,2,2,1,3,0.422099894040261,-0.440878851496227
"663",5,24,1,2,183,2,1,0,2,0.944555314537308,0.384600712889107
"664",5,37,1,1,184,2,1,1,4,0.529559020059364,-0.271093432386044
"665",5,19,1,1,185,2,2,0,2,0.877170778620036,0.278133146139816
"666",5,38,1,2,186,2,2,1,3,0.788694836838262,0.138341158124614
"667",5,33,1,1,187,3,2,0,1,1.77029231422012,1.68926517238795
"668",5,24,1,1,188,1,1,1,5,0.419341713493393,-0.445236776760279
"669",5,30,1,2,189,3,2,1,3,0.815444919968383,0.180606289470205
"670",5,37,1,2,190,2,2,1,4,0.607051516673495,-0.148655287735718
"671",5,31,1,2,191,3,2,1,2,0.814224536180334,0.178678083085088
"672",5,32,1,1,192,3,2,0,1,-0.0519645231242893,-1.18990063061622
"673",5,24,1,2,193,2,1,0,3,0.565179926265813,-0.214812400579856
"674",5,37,1,2,194,1,1,0,4,0.464570573810851,-0.373775177458696
"675",5,19,1,1,195,3,1,1,3,0.674229853909647,-0.042513514902597
"676",5,38,1,1,196,1,1,1,5,0.472382643329509,-0.361432107619215
"677",5,33,1,1,197,2,2,0,2,0.622261732296996,-0.124623147050586
"678",5,24,1,2,198,1,2,1,4,0.550489284421345,-0.238023614694114
"679",5,30,1,2,199,3,1,0,1,1.49279923686823,1.25082611017197
"680",5,37,1,2,200,1,1,0,3,0.42324183113988,-0.439074590878829
"681",5,31,1,2,201,1,2,1,4,0.38839427632173,-0.494133727491507
"682",5,32,1,2,202,1,2,1,5,0.259142222502092,-0.698351972526535
"683",5,24,1,1,203,1,1,1,5,0.401143142159168,-0.473990519468354
"684",5,37,1,1,204,1,2,0,3,0.419530445378847,-0.444938580381261
"685",5,19,1,2,205,3,1,0,2,0.286115426728246,-0.655734309849212
"686",5,38,1,1,206,3,2,0,1,0.248139773273486,-0.715735842307732
"687",5,33,1,2,207,3,1,0,2,0.282635505595719,-0.661232585238604
"688",5,24,1,2,208,3,2,1,3,0.797062318524358,0.151561779188645
"689",5,30,1,2,209,2,2,1,3,0.478064738455978,-0.352454397319395
"690",5,37,1,1,210,1,1,1,4,0.282437521800447,-0.661545399635134
"691",5,31,1,1,211,2,2,0,3,0.531641299364223,-0.267803431084367
"692",5,32,1,2,212,1,2,1,5,0.307192980553586,-0.622431774805174
"693",5,24,1,2,213,2,1,0,3,0.699573367032444,-0.00247076416857839
"694",5,37,1,2,214,1,1,0,4,0.65098251385063,-0.079244312195844
"695",5,19,1,1,215,2,1,1,3,0.545848986102501,-0.245355286037889
"696",5,38,1,1,216,3,1,1,3,0.698598203022506,-0.00401152330428067
"697",5,33,1,1,217,2,1,1,3,0.555773276235561,-0.229674907627653
"698",5,24,1,1,218,3,1,1,2,0.76033888701009,0.093538757396102
"699",5,30,1,1,219,2,1,1,4,0.686453420437564,-0.0232002797884887
"700",5,37,1,1,220,1,1,1,4,0.429302339761391,-0.429498987256842
"701",5,31,1,2,221,1,2,1,5,0.39078977738633,-0.490348835809439
"702",5,32,1,1,222,2,2,0,2,0.814479551403532,0.17908100713774
"703",5,24,1,1,223,2,1,1,4,0.856626289301528,0.245672853016574
"704",5,37,1,2,224,3,1,0,1,1.17557624486907,0.749613782813283
"705",5,19,1,1,225,3,2,0,1,1.01981747608428,0.503514928133328
"706",5,38,1,1,226,3,2,0,1,1.75349836780281,1.6627307370486
"707",5,33,1,2,227,1,2,1,5,0.408446295787234,-0.462451536736011
"708",5,24,1,1,228,2,1,1,3,0.447918897061203,-0.40008482672314
"709",5,30,1,2,229,1,2,1,5,0.409035615916775,-0.461520410931335
"710",5,37,1,1,230,3,1,1,2,1.05467312875007,0.558586859345268
"711",5,31,1,2,231,1,2,1,4,0.235079048253511,-0.736371787839292
"712",5,32,1,1,232,1,1,1,5,0.44345489114016,-0.407137956078388
"713",5,24,1,2,233,1,2,1,5,0.389522444814802,-0.492351221272452
"714",5,37,1,1,234,3,2,0,1,1.06097792154508,0.56854843196139
"715",5,19,1,1,235,3,2,0,2,0.906995771785513,0.325256635341271
"716",5,38,1,1,236,3,2,0,1,1.21468133373556,0.811399823222348
"717",5,33,1,2,237,1,2,1,5,0.467844256749701,-0.368602758415312
"718",5,24,1,2,238,3,1,0,2,1.21573903903914,0.813070997602006
"719",5,30,1,2,239,2,2,1,4,0.477062168116997,-0.354038458454984
"720",5,37,1,2,240,3,2,1,2,0.68009078213779,-0.0332532483021322
"721",4,23,2,1,1,1,1,1,5,0.493059492341796,0.493726688691947
"722",4,33,2,2,2,2,2,1,3,0.508186495220846,0.517627353240846
"723",4,32,2,1,3,3,2,0,2,1.09907422160386,1.45122996092601
"724",4,19,2,2,4,2,2,1,4,0.641546990021829,0.728336935026399
"725",4,23,2,2,5,1,2,1,5,0.400291167808732,0.347152735929707
"726",4,36,2,1,6,2,2,0,2,0.78613241756159,0.956781910539221
"727",4,22,2,2,7,1,1,0,3,0.603933555524593,0.668907708520767
"728",4,39,2,2,8,3,2,1,3,0.785700173341339,0.956098964671225
"729",4,24,2,2,9,1,2,1,5,0.518701588664621,0.53424120088201
"730",4,18,2,2,10,1,2,1,4,0.483270925811658,0.478260753574329
"731",4,23,2,1,11,2,1,1,3,0.502232076550323,0.508219371741419
"732",4,33,2,1,12,1,1,1,5,0.450338531020307,0.426227569803995
"733",4,32,2,2,13,1,2,1,4,0.359020147283582,0.28194452349997
"734",4,19,2,2,14,3,1,0,2,1.19019516953236,1.59520105865304
"735",4,23,2,2,15,2,2,1,4,0.41890378592393,0.376560672551718
"736",4,36,2,2,16,3,1,0,1,0.40217651654556,0.350131586933894
"737",4,22,2,2,17,3,2,1,2,0.516735701791263,0.531135099622105
"738",4,39,2,2,18,2,2,1,3,0.605880598077586,0.671984035754496
"739",4,24,2,1,19,2,2,0,2,0.612726290975285,0.682800230532859
"740",4,18,2,1,20,2,2,0,2,0.731863290613291,0.871036689960909
"741",4,23,2,2,21,1,2,1,5,0.357266768919558,0.279174185684811
"742",4,33,2,2,22,2,2,1,4,0.689941719568779,0.80480060771058
"743",4,32,2,1,23,3,1,1,2,0.679002627078985,0.787516841576706
"744",4,19,2,1,24,1,1,1,4,0.308161245582246,0.201587458811858
"745",4,23,2,1,25,3,1,1,3,0.939725964724026,1.19945971505587
"746",4,36,2,2,26,3,1,0,1,1.06892862375964,1.40359991633214
"747",4,22,2,1,27,1,1,1,5,0.50812087801479,0.517523678055278
"748",4,39,2,1,28,3,2,0,2,1.03893272255093,1.35620639242238
"749",4,24,2,1,29,3,1,1,2,1.03496571441792,1.34993851957222
"750",4,18,2,1,30,2,2,0,2,0.510535554006608,0.521338866122351
"751",4,23,2,1,31,2,2,0,3,0.609053735414593,0.676997592746967
"752",4,33,2,2,32,2,1,0,2,0.907089848814579,1.14789465191894
"753",4,32,2,1,33,1,1,1,4,0.434343178888927,0.400954913436414
"754",4,19,2,2,34,2,2,1,4,0.73650864739854,0.878376353681602
"755",4,23,2,1,35,3,1,1,2,0.619684261014196,0.693793823194339
"756",4,36,2,1,36,1,1,1,4,0.384352093136771,0.321968997948007
"757",4,22,2,2,37,1,2,1,4,0.406550540985545,0.357042545549071
"758",4,39,2,2,38,3,1,0,1,1.257440299831,1.70144836452488
"759",4,24,2,1,39,1,1,1,5,0.377676502223165,0.31142156430451
"760",4,18,2,1,40,3,1,1,2,1.16874897815793,1.56131607628144
"761",4,23,2,2,41,3,1,0,1,0.703646653378025,0.826454403129189
"762",4,33,2,2,42,3,2,1,2,0.861390804517252,1.07569016192917
"763",4,32,2,2,43,2,2,1,4,0.4185329734219,0.375974788798512
"764",4,19,2,1,44,3,2,0,1,1.28813364557597,1.74994385080194
"765",4,23,2,1,45,1,1,1,4,0.455189357964039,0.433891876375091
"766",4,36,2,1,46,1,2,0,3,0.547913448000562,0.580395938632798
"767",4,22,2,1,47,2,2,0,3,0.528336240452268,0.549463950706492
"768",4,39,2,1,48,3,1,1,2,0.643372427036263,0.731221125509205
"769",4,24,2,1,49,1,1,1,4,0.418109215522329,0.375305251317189
"770",4,18,2,2,50,2,1,0,3,0.65615891661251,0.751423779039676
"771",4,23,2,1,51,3,2,0,1,1.09691663077072,1.44782096740965
"772",4,33,2,1,52,1,1,1,4,0.468090256828403,0.454275296580787
"773",4,32,2,2,53,1,2,1,4,0.328566681128091,0.233828046974294
"774",4,19,2,1,54,1,1,1,4,0.437113708278437,0.405332349871841
"775",4,23,2,2,55,2,2,1,3,0.447605335198972,0.421909120406285
"776",4,36,2,2,56,2,1,0,3,0.778194950945166,0.944240713285273
"777",4,22,2,2,57,3,1,0,2,0.830127399032492,1.02629398126325
"778",4,39,2,2,58,2,1,0,3,0.85260925265047,1.06181530997965
"779",4,24,2,1,59,2,2,0,3,0.960342209634626,1.23203338201462
"780",4,18,2,2,60,1,2,1,5,0.464468044280097,0.448552200754462
"781",4,23,2,2,61,1,2,1,4,0.416255146370529,0.372375822057345
"782",4,33,2,1,62,3,2,0,2,1.28105690985566,1.73876260836385
"783",4,32,2,2,63,3,2,1,3,0.722821908872166,0.856751306809932
"784",4,19,2,2,64,3,1,0,1,0.735291423560101,0.876453140016869
"785",4,23,2,2,65,1,2,1,4,0.44539641329608,0.418419023799715
"786",4,36,2,1,66,3,2,0,2,1.49065403622773,2.06992606803172
"787",4,22,2,1,67,2,2,0,3,0.764230100880609,0.922176250183271
"788",4,39,2,2,68,3,1,0,1,0.86766375902215,1.08560143004691
"789",4,24,2,1,69,1,1,1,5,0.429500980126736,0.393304239392153
"790",4,18,2,2,70,1,2,1,5,0.426484532949475,0.38853825285208
"791",4,23,2,1,71,3,1,1,2,0.894954516368553,1.12872082665422
"792",4,33,2,1,72,2,1,1,3,0.63655690121233,0.72045259470739
"793",4,32,2,2,73,1,2,1,5,0.297083894226456,0.18408524366971
"794",4,19,2,2,74,2,2,1,3,0.546218983241007,0.577718684312701
"795",4,23,2,2,75,3,2,1,3,0.819553247571662,1.00958682195514
"796",4,36,2,2,76,2,1,0,2,0.788943807953898,0.961223907359069
"797",4,22,2,2,77,3,2,1,3,0.703037688927713,0.825492239297696
"798",4,39,2,1,78,2,1,1,4,0.52959835376312,0.55145808973764
"799",4,24,2,2,79,2,2,1,4,0.607846741046853,0.675090541645937
"800",4,18,2,1,80,2,2,0,3,0.781378016103843,0.949269956235982
"801",4,23,2,2,81,3,2,1,2,0.724598655137244,0.859558565908755
"802",4,33,2,1,82,1,2,0,4,0.63103301945531,0.711724861531299
"803",4,32,2,2,83,3,1,0,1,0.865360702847624,1.08196260129116
"804",4,19,2,2,84,2,2,1,4,0.482495276582385,0.477035227792079
"805",4,23,2,2,85,3,2,1,3,1.12069305814603,1.48538772266264
"806",4,36,2,2,86,3,2,1,3,0.652938694292451,0.746335827773983
"807",4,22,2,1,87,1,1,1,5,0.484042217157347,0.479479393900517
"808",4,39,2,1,88,3,2,0,1,0.908912358221723,1.15077421678223
"809",4,24,2,1,89,1,2,0,3,0.705728163059789,0.829743188426376
"810",4,18,2,1,90,2,2,0,2,0.710951708658909,0.837996390472987
"811",4,23,2,2,91,3,1,0,1,0.932880809545341,1.18864436987355
"812",4,33,2,2,92,1,1,0,3,0.585276848155333,0.639430110877335
"813",4,32,2,1,93,2,2,0,2,0.714668769708262,0.843869346930963
"814",4,19,2,2,94,1,2,1,5,0.403236711096532,0.35180669432443
"815",4,23,2,1,95,1,2,0,4,0.570331696743496,0.615816771646634
"816",4,36,2,1,96,3,2,0,1,0.844578118777999,1.04912611846115
"817",4,22,2,2,97,2,2,1,4,0.565102758592696,0.607555049368369
"818",4,39,2,2,98,3,2,1,2,0.874843086470974,1.09694476741605
"819",4,24,2,1,99,3,1,1,2,0.548772813965618,0.581753736857586
"820",4,18,2,1,100,2,1,1,4,0.699597702664625,0.820057061002016
"821",4,23,2,1,101,3,1,1,3,0.86718609042508,1.08484671366354
"822",4,33,2,1,102,1,1,1,5,0.294682939629946,0.180291735407224
"823",4,32,2,1,103,1,1,1,5,0.345670266193498,0.260851711377637
"824",4,19,2,2,104,2,2,1,3,0.541712691398525,0.57059874320158
"825",4,23,2,2,105,1,2,1,4,0.376750108826039,0.309957862737051
"826",4,36,2,2,106,3,1,0,1,1.17092429971094,1.5647530843352
"827",4,22,2,1,107,3,1,1,3,1.14757411676463,1.52785979528003
"828",4,39,2,2,108,1,2,1,5,0.385196545186964,0.323303232187312
"829",4,24,2,1,109,1,1,1,4,0.28686220620728,0.167934976599412
"830",4,18,2,2,110,3,1,0,2,1.55963690048573,2.17891899355937
"831",4,23,2,2,111,2,2,1,3,0.653820757000878,0.747729486853296
"832",4,33,2,2,112,2,2,1,4,0.638170023353393,0.723001327690271
"833",4,32,2,1,113,3,1,1,2,1.05364191418261,1.37944691520044
"834",4,19,2,2,114,1,2,1,5,0.387238811868593,0.326530013544287
"835",4,23,2,2,115,3,2,1,3,0.617048883193952,0.689629926238354
"836",4,36,2,1,116,3,1,1,3,0.559543533429837,0.598771473611052
"837",4,22,2,2,117,3,2,1,3,0.983766266199238,1.26904339138671
"838",4,39,2,2,118,3,2,1,2,0.860155211800376,1.0737379254365
"839",4,24,2,2,119,3,1,0,1,1.50589808549094,2.09401166586759
"840",4,18,2,1,120,1,1,1,4,0.458069088675148,0.438441850898644
"841",4,23,2,1,121,1,1,1,5,0.239333730284652,0.0928399846416591
"842",4,33,2,1,122,1,1,1,5,0.397297963946282,0.342423473827035
"843",4,32,2,2,123,2,2,1,4,0.79768253909286,0.975031102558629
"844",4,19,2,2,124,2,2,1,3,0.610136321663396,0.678708079020076
"845",4,23,2,1,125,1,1,1,4,0.307409273798329,0.20039934339327
"846",4,36,2,1,126,1,1,1,4,0.384507844502957,0.322215085106582
"847",4,22,2,1,127,1,1,1,5,0.370614430122024,0.300263490384708
"848",4,39,2,1,128,1,1,1,4,0.394364080818131,0.337787938484557
"849",4,24,2,1,129,1,2,0,4,0.604766476292415,0.670223723333925
"850",4,18,2,1,130,2,1,1,4,0.59038912774789,0.647507512633576
"851",4,23,2,2,131,2,2,1,4,0.85223308966151,1.06122097245709
"852",4,33,2,2,132,1,2,1,5,0.390213910945422,0.331230670085677
"853",4,32,2,2,133,3,1,0,1,1.29815228478199,1.76577330074745
"854",4,19,2,2,134,2,1,0,2,0.53057493107361,0.553001081888213
"855",4,23,2,1,135,2,2,0,2,0.874125817027124,1.09581148169477
"856",4,36,2,1,136,2,1,1,3,0.386792482711055,0.325824813475377
"857",4,22,2,1,137,2,2,0,2,0.623032602634279,0.699084202954071
"858",4,39,2,1,138,2,1,1,3,0.758708099140172,0.913451487433381
"859",4,24,2,2,139,3,2,1,3,1.14952962836823,1.53094950361372
"860",4,18,2,1,140,2,1,1,4,0.590062935863335,0.646992129455978
"861",4,23,2,1,141,1,1,1,5,0.495252592491944,0.497191786929181
"862",4,33,2,1,142,2,2,0,3,0.715584478553918,0.845316166907099
"863",4,32,2,2,143,1,2,1,5,0.369429974078904,0.298392049836578
"864",4,19,2,1,144,3,2,0,2,1.39813959645861,1.92375325319651
"865",4,23,2,1,145,2,1,1,3,0.447783291567479,0.422190291468526
"866",4,36,2,2,146,2,1,0,3,0.650233602403229,0.742061782589012
"867",4,22,2,2,147,2,2,1,4,0.475199493307558,0.465507890217852
"868",4,39,2,1,148,2,1,1,4,0.76675577319161,0.926166812434653
"869",4,24,2,1,149,3,2,0,1,0.523577937100125,0.541945831410107
"870",4,18,2,1,150,1,2,0,3,0.541970467561438,0.571006029538982
"871",4,23,2,1,151,1,1,1,4,0.460824221490738,0.442794960747276
"872",4,33,2,2,152,1,2,1,4,0.213849077507494,0.0525742332537506
"873",4,32,2,2,153,2,1,0,3,0.831593535854761,1.02861047744243
"874",4,19,2,1,154,1,1,1,4,0.349045668366253,0.266184846810589
"875",4,23,2,1,155,3,2,0,1,1.3614341032861,1.86575857398395
"876",4,36,2,1,156,3,2,0,1,1.10250397389565,1.45664896954704
"877",4,22,2,2,157,1,2,1,5,0.415918627297235,0.371844121921542
"878",4,39,2,1,158,1,1,1,5,0.304437367326916,0.195703731168437
"879",4,24,2,1,159,1,2,0,4,0.550279133423089,0.58413372160039
"880",4,18,2,1,160,3,1,1,3,0.854822184929961,1.06531174298125
"881",4,23,2,2,161,3,1,0,2,0.952624102216871,1.21983877229456
"882",4,33,2,1,162,3,1,1,3,0.557981880620452,0.596304062172224
"883",4,32,2,2,163,2,2,1,3,0.717222128923915,0.847903654491696
"884",4,19,2,1,164,3,1,1,3,0.754836707422732,0.907334688519827
"885",4,23,2,1,165,2,1,1,3,0.498871923634617,0.502910330134604
"886",4,36,2,1,166,2,2,0,2,0.647271346276361,0.73738141790856
"887",4,22,2,1,167,1,2,0,4,0.59609684253768,0.656525702001444
"888",4,39,2,2,168,3,1,0,2,1.38230221290322,1.89873018717899
"889",4,24,2,1,169,1,2,0,4,0.347842578316282,0.264283964531635
"890",4,18,2,2,170,2,2,1,3,0.650394741828384,0.742316382880757
"891",4,23,2,2,171,2,2,1,4,0.485367687439109,0.481573636945702
"892",4,33,2,1,172,2,1,1,3,0.429744712048388,0.393689335828362
"893",4,32,2,1,173,1,1,1,4,0.375100614317169,0.307351661413037
"894",4,19,2,2,174,3,1,0,2,0.843628255241617,1.04762533407366
"895",4,23,2,2,175,2,2,1,3,0.567650765860671,0.61158090085177
"896",4,36,2,2,176,2,2,1,4,0.654943341927571,0.749503171037472
"897",4,22,2,2,177,3,1,0,1,1.00286537899472,1.29921998960356
"898",4,39,2,2,178,2,2,1,3,0.574906914413448,0.623045615565158
"899",4,24,2,1,179,2,2,0,2,0.907675004352652,1.1488191976691
"900",4,18,2,1,180,3,2,0,1,1.4883739070058,2.06632346386108
"901",4,23,2,2,181,2,1,0,3,0.883512018150736,1.11064167947007
"902",4,33,2,1,182,1,1,1,4,0.515641589940911,0.529406402898549
"903",4,32,2,1,183,1,1,1,4,0.28469303352535,0.164507683761963
"904",4,19,2,2,184,2,1,0,2,0.923966244228594,1.17455935667309
"905",4,23,2,1,185,1,1,1,4,0.366075842570725,0.293092522053655
"906",4,36,2,1,186,2,1,1,4,0.703228540750736,0.825793785178073
"907",4,22,2,2,187,1,2,1,4,0.443548097954318,0.415498685559732
"908",4,39,2,1,188,3,2,0,2,0.829880278542415,1.02590353088893
"909",4,24,2,2,189,2,1,0,2,0.799775082861504,0.978337321713086
"910",4,18,2,2,190,1,2,1,4,0.312969362565482,0.209184283645371
"911",4,23,2,1,191,3,1,1,2,0.994920620855312,1.2866672717433
"912",4,33,2,1,192,2,1,1,3,0.504846443673416,0.512350071795907
"913",4,32,2,2,193,2,1,0,3,0.698053277710992,0.817616869575277
"914",4,19,2,1,194,1,1,1,4,0.450413252384449,0.426345629559338
"915",4,23,2,2,195,2,1,0,2,0.310345168315838,0.205038056730934
"916",4,36,2,2,196,3,2,1,2,0.916612036141817,1.16293970789598
"917",4,22,2,1,197,3,2,0,2,1.00235323206018,1.298410797447
"918",4,39,2,2,198,2,2,1,4,0.432925960737887,0.398715708757771
"919",4,24,2,2,199,1,1,0,3,0.619433697011807,0.693397932070564
"920",4,18,2,2,200,1,2,1,5,0.321810165369894,0.223152752076341
"921",4,23,2,1,201,1,1,1,4,0.578628948279867,0.628926429074099
"922",4,33,2,1,202,3,1,1,2,0.775739986774015,0.940361869894853
"923",4,32,2,2,203,3,1,0,2,1.3300089858608,1.81610688845197
"924",4,19,2,1,204,1,1,1,4,0.38786463887778,0.327518820218802
"925",4,23,2,2,205,3,1,0,1,0.509437590212385,0.519604083327478
"926",4,36,2,2,206,3,2,1,2,0.463694476174856,0.447329963148182
"927",4,22,2,2,207,1,2,1,5,0.420133826690357,0.378504136962674
"928",4,39,2,2,208,3,2,1,2,1.2343202304516,1.66491865490544
"929",4,24,2,1,209,1,1,1,4,0.439416398190795,0.408970599933365
"930",4,18,2,1,210,3,2,0,1,1.35075300227871,1.84888243439228
"931",4,23,2,2,211,3,1,0,2,0.793405861664403,0.968273952221667
"932",4,33,2,2,212,1,2,1,4,0.570481720520781,0.616053809214744
"933",4,32,2,1,213,2,1,1,4,0.481935190560069,0.476150291876819
"934",4,19,2,1,214,2,2,0,3,0.629674273988714,0.709578043694078
"935",4,23,2,2,215,1,2,1,4,0.465489363943663,0.450165885822898
"936",4,36,2,2,216,1,2,1,5,0.432093872610027,0.397401009515752
"937",4,22,2,1,217,3,1,1,2,0.572176251450721,0.61873116808405
"938",4,39,2,2,218,3,1,0,1,0.823789831016542,1.01628062379805
"939",4,24,2,2,219,1,2,1,5,0.571843884147531,0.618206027745008
"940",4,18,2,2,220,2,2,1,4,0.793845683425315,0.968968870603907
"941",4,23,2,1,221,1,1,1,5,0.428958756304172,0.392447525752501
"942",4,33,2,2,222,2,1,0,2,0.721860054653853,0.855231577144997
"943",4,32,2,1,223,3,1,1,2,0.829366249708231,1.02509136533091
"944",4,19,2,2,224,3,2,1,2,0.784356253331482,0.953975571055651
"945",4,23,2,2,225,2,2,1,4,0.463574099544235,0.447139768071801
"946",4,36,2,1,226,2,2,0,2,0.717838118421432,0.848876917897772
"947",4,22,2,1,227,1,1,1,5,0.403255124031344,0.351835786761433
"948",4,39,2,1,228,1,1,1,5,0.332265875385501,0.239672773901001
"949",4,24,2,2,229,3,1,0,1,0.97784019499481,1.25968019888371
"950",4,18,2,2,230,2,2,1,4,0.536221710973099,0.561922994129406
"951",4,23,2,2,231,1,1,0,4,0.59797009856196,0.659485446519807
"952",4,33,2,1,232,3,1,1,2,0.536455273248092,0.562292022523895
"953",4,32,2,1,233,1,1,1,5,0.441928159530741,0.412939182850481
"954",4,19,2,1,234,3,2,0,1,1.12184352326999,1.4872054575585
"955",4,23,2,1,235,3,2,0,1,0.760702645197494,0.916602870203949
"956",4,36,2,2,236,2,1,0,2,0.808364942285382,0.991909299602812
"957",4,22,2,2,237,2,2,1,3,0.624703279889963,0.701723873018051
"958",4,39,2,1,238,2,2,0,2,0.676383215680137,0.783378171566525
"959",4,24,2,2,239,2,1,0,2,0.845335145131511,1.0503222200997
"960",4,18,2,2,240,3,2,1,3,1.09082847278444,1.43820167779133
"961",3,32,1,2,1,1,2,1,4,0.342558966151848,0.0492878698663313
"962",3,26,1,2,2,2,1,0,2,1.03855331857995,1.14895894670273
"963",3,23,1,2,3,3,2,1,2,0.733121448622747,0.666376592170352
"964",3,28,1,1,4,3,1,1,3,0.857857171963613,0.863459035048921
"965",3,36,1,1,5,3,2,0,2,1.35506722910056,1.64905092532529
"966",3,30,1,1,6,3,2,0,1,1.13761797054414,1.30548109680615
"967",3,34,1,2,7,2,2,1,4,0.520482237580037,0.330406638722871
"968",3,25,1,2,8,2,2,1,3,0.779047567180796,0.73893985949207
"969",3,36,1,1,9,1,1,1,4,0.488848012361237,0.280424562877167
"970",3,36,1,2,10,2,1,0,3,0.527954196284212,0.342212333475468
"971",3,32,1,2,11,1,2,1,5,0.287084887475486,-0.0383611744423201
"972",3,26,1,2,12,1,2,1,5,0.518676098970211,0.327552939719345
"973",3,23,1,2,13,3,1,0,2,0.872160098013974,0.88605765820849
"974",3,28,1,1,14,1,1,1,4,0.301707956624345,-0.0152567251871232
"975",3,36,1,1,15,3,1,1,2,1.09507085507465,1.23825665436436
"976",3,30,1,2,16,2,2,1,3,0.445587858262692,0.212073519401465
"977",3,34,1,1,17,3,2,0,2,1.44942523819206,1.79813657968986
"978",3,25,1,1,18,2,2,0,2,0.696058063784727,0.607816444126281
"979",3,36,1,1,19,3,1,1,2,1.062568526486,1.18690297519429
"980",3,36,1,2,20,3,2,1,2,0.696600831997187,0.608674017901967
"981",3,32,1,1,21,3,2,0,1,0.815638037695072,0.796752802904626
"982",3,26,1,2,22,1,2,1,4,0.486975704460307,0.277466316393697
"983",3,23,1,1,23,1,1,1,4,0.469068891945899,0.249173552620933
"984",3,28,1,2,24,2,2,1,4,0.708913062135858,0.628127341521068
"985",3,36,1,2,25,1,2,1,4,0.5644399352517,0.399859801044098
"986",3,30,1,2,26,1,2,1,4,0.259410134491047,-0.0820872841577331
"987",3,34,1,2,27,2,1,0,3,0.682398249245773,0.586233937154734
"988",3,25,1,1,28,3,1,1,2,0.929027743693385,0.975908538381961
"989",3,36,1,1,29,3,2,0,2,1.25695572462372,1.49403474825189
"990",3,36,1,1,30,2,2,0,2,0.454359761456062,0.22593312644699
"991",3,32,1,2,31,1,2,1,4,0.467781703276702,0.247139794523601
"992",3,26,1,1,32,2,1,1,3,0.469972511441298,0.250601271423663
"993",3,23,1,2,33,2,1,0,2,0.684119628518303,0.58895371640533
"994",3,28,1,2,34,1,1,0,4,0.704346620465226,0.620912363681468
"995",3,36,1,1,35,3,1,1,3,1.04903070508362,1.16551321737853
"996",3,30,1,1,36,2,2,0,3,0.792837389866524,0.76072777933552
"997",3,34,1,2,37,1,1,0,4,0.631451028445914,0.505737328290957
"998",3,25,1,2,38,1,2,1,4,0.534991508505425,0.353331286784983
"999",3,36,1,2,39,2,1,0,3,0.667250836135581,0.56230102444063
"1000",3,36,1,1,40,3,1,1,3,0.617608935491446,0.483866821422897
"1001",3,32,1,2,41,2,2,1,4,0.547688973590983,0.373393281620165
"1002",3,26,1,1,42,2,2,0,3,0.84032924915304,0.835764917008215
"1003",3,23,1,2,43,3,2,1,2,0.591173426622665,0.442098717410223
"1004",3,28,1,2,44,3,1,0,1,1.36716374293745,1.66816341718759
"1005",3,36,1,2,45,2,2,1,3,0.745375539172682,0.685738055239249
"1006",3,30,1,2,46,3,2,1,2,0.688851490681365,0.596430058622969
"1007",3,34,1,2,47,1,2,1,5,0.426863379506846,0.182488842967228
"1008",3,25,1,1,48,1,1,1,5,0.476407732386773,0.260768920517513
"1009",3,36,1,1,49,2,2,0,2,0.704162074221743,0.620620780616765
"1010",3,36,1,1,50,1,1,1,4,0.38160634071562,0.110982721677092
"1011",3,32,1,1,51,1,1,1,4,0.503442391707304,0.303483682243952
"1012",3,26,1,1,52,1,2,0,3,0.50969350039678,0.313360433973324
"1013",3,23,1,2,53,3,2,1,3,1.09607225663796,1.23983886883438
"1014",3,28,1,1,54,1,1,1,5,0.389225645810161,0.123021223726466
"1015",3,36,1,1,55,1,1,1,5,0.391669994443768,0.126883294567565
"1016",3,30,1,2,56,3,2,1,3,0.82868349774869,0.817364629789343
"1017",3,34,1,2,57,1,2,1,4,0.275047066123672,-0.0573809321781866
"1018",3,25,1,1,58,2,1,1,4,0.42178633769301,0.174467116901368
"1019",3,36,1,1,59,3,1,1,3,0.629291145886046,0.502324713846365
"1020",3,36,1,2,60,3,2,1,3,0.475110028944023,0.258718549077968
"1021",3,32,1,1,61,3,2,0,1,2.06703076429072,2.77395331092575
"1022",3,26,1,2,62,1,2,1,5,0.462287180896891,0.238458449163499
"1023",3,23,1,2,63,3,2,1,3,1.03295355777394,1.14011132462923
"1024",3,28,1,1,64,1,1,1,4,0.417878752807232,0.168293132781838
"1025",3,36,1,1,65,2,2,0,3,0.503758534086851,0.303983187203636
"1026",3,30,1,2,66,2,1,0,2,0.738549334528011,0.67495265190067
"1027",3,34,1,1,67,3,1,1,3,0.806815277556054,0.782812841884977
"1028",3,25,1,2,68,2,2,1,3,0.624556504287791,0.494843980121122
"1029",3,36,1,2,69,3,2,1,3,0.886127473145335,0.908126110916041
"1030",3,36,1,2,70,1,1,0,3,0.509261812448659,0.312678367015293
"1031",3,32,1,1,71,3,1,1,2,0.53135017860079,0.34757798553566
"1032",3,26,1,1,72,2,1,1,3,0.751989628415194,0.696188316242418
"1033",3,23,1,1,73,3,2,0,1,0.566894104785652,0.403737388907743
"1034",3,28,1,2,74,2,2,1,4,0.595778776767359,0.449375170638839
"1035",3,36,1,1,75,3,1,1,2,0.429223324844826,0.186217556601237
"1036",3,30,1,1,76,2,1,1,3,0.570911690300744,0.410085174021587
"1037",3,34,1,1,77,2,1,1,4,0.291541508178325,-0.0313197137318346
"1038",3,25,1,1,78,2,1,1,4,0.486230347968484,0.276288653136616
"1039",3,36,1,2,79,2,1,0,3,0.670931763040104,0.568116888949776
"1040",3,36,1,1,80,1,2,0,4,0.69658440541639,0.608648063904308
"1041",3,32,1,1,81,1,2,0,3,0.483632243354106,0.272183647845899
"1042",3,26,1,2,82,1,1,0,3,0.506751213359824,0.308711620454934
"1043",3,23,1,2,83,3,2,1,2,0.79998467770865,0.772020494126079
"1044",3,28,1,2,84,1,2,1,4,0.340115795791694,0.0454276606972879
"1045",3,36,1,1,85,2,1,1,3,0.735090451839152,0.669487617252272
"1046",3,30,1,1,86,3,2,0,2,1.27186497709173,1.51759136715135
"1047",3,34,1,2,87,2,2,1,3,0.595226681993616,0.448502860896326
"1048",3,25,1,2,88,2,2,1,4,0.620625786989515,0.488633446789845
"1049",3,36,1,2,89,2,1,0,2,0.782869533575696,0.744978566396011
"1050",3,36,1,1,90,3,2,0,2,1.38501331684497,1.69636574396146
"1051",3,32,1,2,91,2,1,0,2,0.711379471535729,0.632024268372864
"1052",3,26,1,2,92,1,1,0,3,0.586294063219064,0.434389323232532
"1053",3,23,1,2,93,3,1,0,1,0.669278942583654,0.565505432628585
"1054",3,28,1,1,94,2,2,0,3,0.785767447390571,0.749557270223514
"1055",3,36,1,1,95,1,1,1,5,0.634815608373277,0.51105336457619
"1056",3,30,1,2,96,3,1,0,1,1.31194744984607,1.58092167410321
"1057",3,34,1,1,97,1,1,1,5,0.304998533924686,-0.0100576130525844
"1058",3,25,1,2,98,2,1,0,2,0.851621501629479,0.853606675920988
"1059",3,36,1,1,99,2,1,1,3,0.737460352862493,0.673232060869151
"1060",3,36,1,1,100,2,1,1,3,0.545598924750196,0.370091004451722
"1061",3,32,1,2,101,1,2,1,5,0.395204738584743,0.132468190310305
"1062",3,26,1,1,102,3,2,0,1,0.928177811766037,0.974565645936751
"1063",3,23,1,2,103,3,2,1,3,1.07851948451194,1.21210548887528
"1064",3,28,1,2,104,1,2,1,5,0.516962063389389,0.324844763501647
"1065",3,36,1,2,105,3,2,1,2,0.923673975875154,0.967449585229155
"1066",3,30,1,1,106,1,2,0,4,0.359073778051616,0.0753812726679658
"1067",3,34,1,1,107,2,2,0,3,0.7079244332782,0.626565307925968
"1068",3,25,1,2,108,3,1,0,2,0.669579024961309,0.56597956278528
"1069",3,36,1,1,109,1,1,1,4,0.4652730382328,0.243176103754236
"1070",3,36,1,1,110,3,1,1,2,0.781482053396421,0.742786347712757
"1071",3,32,1,2,111,2,1,0,2,0.445025574994135,0.211185111837145
"1072",3,26,1,2,112,2,1,0,3,0.846577708522646,0.845637482812193
"1073",3,23,1,2,113,3,1,0,2,0.418926658384644,0.16994882359415
"1074",3,28,1,1,114,3,1,1,3,1.02094526056836,1.12113821504442
"1075",3,36,1,2,115,1,2,1,4,0.423079528755201,0.17651035877963
"1076",3,30,1,1,116,1,2,0,3,0.619435322336823,0.486752512638592
"1077",3,34,1,1,117,2,2,0,2,0.621638476167667,0.490233495691325
"1078",3,25,1,2,118,2,2,1,4,0.596424437911184,0.450395315246082
"1079",3,36,1,1,119,3,2,0,1,1.80288703887146,2.35660622476331
"1080",3,36,1,1,120,3,2,0,1,1.56355427018191,1.97846045023382
"1081",3,32,1,1,121,1,1,1,4,0.482878314204285,0.270992439789182
"1082",3,26,1,1,122,2,1,1,3,0.48102843775194,0.268069634994478
"1083",3,23,1,2,123,3,1,0,2,0.473729585851522,0.256537448991816
"1084",3,28,1,1,124,3,2,0,1,1.07577184107908,1.20776421225137
"1085",3,36,1,1,125,1,1,1,4,0.409572742544109,0.155169636566105
"1086",3,30,1,2,126,2,2,1,4,0.447938313641145,0.215787238899421
"1087",3,34,1,1,127,1,1,1,5,0.440991468049238,0.204811222864209
"1088",3,25,1,1,128,1,1,1,5,0.531731092114965,0.348179828888057
"1089",3,36,1,1,129,2,1,1,3,0.558292854947462,0.390147414163403
"1090",3,36,1,1,130,2,1,1,4,0.552024435032093,0.380243310697119
"1091",3,32,1,2,131,1,1,0,4,0.454664184938217,0.226414115548795
"1092",3,26,1,1,132,2,1,1,3,0.732621742436412,0.665587056395943
"1093",3,23,1,2,133,2,2,1,3,0.458669296735032,0.232742192187763
"1094",3,28,1,1,134,3,1,1,2,1.00507042376977,1.09605597290264
"1095",3,36,1,2,135,2,2,1,4,0.562588532895639,0.396934585321521
"1096",3,30,1,2,136,3,2,1,3,1.08595175489465,1.22384847607996
"1097",3,34,1,2,137,1,1,0,4,0.477509383024489,0.262509528525104
"1098",3,25,1,1,138,2,1,1,3,0.78031135947639,0.740936651319108
"1099",3,36,1,2,139,3,2,1,2,0.882901778603819,0.903029513540446
"1100",3,36,1,1,140,1,1,1,5,0.334824269913553,0.0370670498098257
"1101",3,32,1,1,141,3,2,0,1,0.585796697013968,0.433603484628481
"1102",3,26,1,2,142,1,1,0,3,0.507533285909425,0.309947295083304
"1103",3,23,1,2,143,3,1,0,2,0.772078638840884,0.727928952715008
"1104",3,28,1,1,144,1,1,1,5,0.43610554034965,0.197091457098859
"1105",3,36,1,2,145,1,1,0,4,0.368729246007923,0.0906369120389297
"1106",3,30,1,2,146,1,2,1,4,0.366884729395447,0.0877225757912175
"1107",3,34,1,1,147,3,1,1,2,0.563188632471559,0.397882742651475
"1108",3,25,1,2,148,3,1,0,1,1.17551292104403,1.36535511859598
"1109",3,36,1,2,149,2,1,0,2,0.665993286127068,0.56031409542718
"1110",3,36,1,1,150,2,2,0,3,0.663540402150435,0.556438538744099
"1111",3,32,1,2,151,1,1,0,3,0.53945252337654,0.360379690281346
"1112",3,26,1,1,152,2,1,1,3,0.528427529433157,0.3429601998508
"1113",3,23,1,1,153,3,1,1,3,0.891470313838309,0.916567799210941
"1114",3,28,1,2,154,3,1,0,1,0.53455020468223,0.352634026744336
"1115",3,36,1,2,155,2,1,0,3,0.710109323541244,0.630017434541577
"1116",3,30,1,2,156,2,2,1,3,0.863817625901718,0.872876552271126
"1117",3,34,1,1,157,2,2,0,2,0.687867203507273,0.594874884887904
"1118",3,25,1,1,158,1,2,0,3,0.486437191550637,0.276615465996418
"1119",3,36,1,2,159,2,1,0,3,0.85655877132114,0.861407562033814
"1120",3,36,1,2,160,3,1,0,1,0.71769976025106,0.642010324543086
"1121",3,32,1,2,161,2,2,1,4,0.311531622600321,0.000264667054919066
"1122",3,26,1,1,162,2,1,1,4,0.709245144564774,0.628652031758754
"1123",3,23,1,1,163,2,1,1,3,0.683069401392471,0.587294357546516
"1124",3,28,1,1,164,1,1,1,5,0.365277205193478,0.0851826875521077
"1125",3,36,1,1,165,2,2,0,3,0.725291621779225,0.654005465757588
"1126",3,30,1,2,166,1,2,1,5,0.317891229729444,0.010312846318933
"1127",3,34,1,2,167,3,2,1,3,0.93275773660219,0.981801927177872
"1128",3,25,1,1,168,1,1,1,5,0.428393731157924,0.184906798575931
"1129",3,36,1,2,169,2,1,0,3,0.264781522511148,-0.0736004910859735
"1130",3,36,1,1,170,3,1,1,2,0.80667875647458,0.782597138576249
"1131",3,32,1,2,171,1,2,1,5,0.292346693119089,-0.0300475215254269
"1132",3,26,1,2,172,3,2,1,3,0.879211311993433,0.897198576296037
"1133",3,23,1,1,173,3,1,1,3,0.718285123160695,0.64293519794031
"1134",3,28,1,2,174,1,2,1,4,0.34827055128465,0.0583121743761592
"1135",3,36,1,1,175,1,2,0,3,0.588298808707156,0.437556821103718
"1136",3,30,1,2,176,2,1,0,2,0.670101385002213,0.566804891649909
"1137",3,34,1,2,177,2,2,1,3,0.550588725061943,0.377974888944282
"1138",3,25,1,2,178,1,1,0,4,0.55824557412623,0.390072710465855
"1139",3,36,1,1,179,1,2,0,4,0.395548877974817,0.133011930546622
"1140",3,36,1,1,180,3,2,0,2,0.973914325057052,1.04682933693655
"1141",3,32,1,1,181,3,2,0,1,0.859460526993499,0.86599233599614
"1142",3,26,1,2,182,3,2,1,2,0.580559851279638,0.42532926836824
"1143",3,23,1,1,183,3,1,1,2,0.5398783245284,0.361052456101283
"1144",3,28,1,2,184,3,2,1,2,0.552873142978811,0.381584269252933
"1145",3,36,1,1,185,2,2,0,2,0.700456550779443,0.614766053577933
"1146",3,30,1,2,186,2,2,1,4,0.444630136176748,0.210560318505674
"1147",3,34,1,2,187,1,2,1,5,0.454247826205219,0.225756268750658
"1148",3,25,1,1,188,3,1,1,3,0.827839705921283,0.816031438702039
"1149",3,36,1,2,189,3,2,1,2,0.700882232435515,0.615438630594526
"1150",3,36,1,2,190,1,1,0,4,0.455961362172573,0.228463655579078
"1151",3,32,1,2,191,2,2,1,4,0.517319360778407,0.325409293376294
"1152",3,26,1,1,192,2,1,1,3,0.592035558135331,0.443460885200234
"1153",3,23,1,2,193,3,1,0,1,1.13696743784268,1.30445325513785
"1154",3,28,1,1,194,2,2,0,3,0.516909706936376,0.324762040305885
"1155",3,36,1,1,195,1,1,1,5,0.357879090940351,0.0734936670321667
"1156",3,30,1,1,196,1,2,0,4,0.62642039015215,0.497788919786809
"1157",3,34,1,2,197,3,2,1,3,0.90485939312383,0.937722544482063
"1158",3,25,1,1,198,1,1,1,5,0.540119156440242,0.361432970521995
"1159",3,36,1,2,199,1,2,1,4,0.245005984503773,-0.104845841137627
"1160",3,36,1,1,200,1,1,1,4,0.276808287725847,-0.0545982020467493
"1161",3,32,1,2,201,2,2,1,4,0.597808234180325,0.452581713351325
"1162",3,26,1,2,202,1,2,1,4,0.321316013809068,0.0157240051647392
"1163",3,23,1,1,203,1,1,1,5,0.331948041409665,0.0325226087736833
"1164",3,28,1,1,204,1,2,0,4,0.503664568817103,0.303834722077435
"1165",3,36,1,1,205,1,1,1,5,0.442090880390911,0.206548294364052
"1166",3,30,1,1,206,2,1,1,4,0.682010567481121,0.585621399966584
"1167",3,34,1,1,207,1,2,0,4,0.506119865230355,0.307714090410374
"1168",3,25,1,2,208,2,1,0,2,0.666073141308604,0.560440266614006
"1169",3,36,1,1,209,3,2,0,1,1.08875213518865,1.22827307694447
"1170",3,36,1,1,210,2,2,0,3,0.507778775788525,0.310335169092281
"1171",3,32,1,1,211,3,2,0,1,0.590424513483696,0.440915434650652
"1172",3,26,1,1,212,2,1,1,4,0.646313894307305,0.529220656351954
"1173",3,23,1,1,213,2,1,1,3,0.627504726314497,0.499502170923317
"1174",3,28,1,2,214,1,2,1,4,0.388560812475813,0.121970787058196
"1175",3,36,1,2,215,2,1,0,2,0.403563567965667,0.145675140732166
"1176",3,30,1,2,216,2,1,0,3,0.682343183742098,0.586146933658927
"1177",3,34,1,1,217,1,1,1,5,0.289815964104586,-0.0340460733683418
"1178",3,25,1,2,218,1,1,0,4,0.615076163986245,0.479865042444679
"1179",3,36,1,2,219,3,2,1,2,1.12051067772154,1.27845157414645
"1180",3,36,1,1,220,1,2,0,3,0.353773023075873,0.067006079806292
"1181",3,32,1,1,221,3,2,0,1,1.19154525548747,1.39068620701661
"1182",3,26,1,2,222,3,2,1,3,0.759110760593931,0.707439705084823
"1183",3,23,1,2,223,3,1,0,1,0.380497862398197,0.109231325935563
"1184",3,28,1,2,224,1,2,1,5,0.461205820647775,0.236749899969896
"1185",3,36,1,2,225,3,1,0,2,0.430794058322908,0.188699315496607
"1186",3,30,1,1,226,3,1,1,2,0.755532423155396,0.701785931931938
"1187",3,34,1,1,227,2,1,1,4,0.497405794795563,0.293945859123401
"1188",3,25,1,2,228,3,2,1,2,0.965800959618994,1.03401021954442
"1189",3,36,1,2,229,1,1,0,3,0.617064007596749,0.483005835349276
"1190",3,36,1,1,230,2,1,1,4,0.67076951578368,0.567860538284626
"1191",3,32,1,1,231,1,1,1,4,0.302947643190785,-0.0132980204121473
"1192",3,26,1,2,232,3,1,0,1,0.735140895249913,0.669567317841274
"1193",3,23,1,1,233,1,1,1,5,0.364981330194427,0.0847152050536063
"1194",3,28,1,1,234,2,2,0,3,0.6299139508236,0.503308745647699
"1195",3,36,1,2,235,3,1,0,1,0.938431072629766,0.990765798101442
"1196",3,30,1,2,236,1,1,0,3,0.732848390096784,0.66594515969933
"1197",3,34,1,2,237,1,2,1,5,0.302639527116442,-0.0137848438096101
"1198",3,25,1,2,238,2,1,0,3,0.602106107788471,0.459372353652196
"1199",3,36,1,1,239,3,2,0,2,1.35313332443208,1.6459953559491
"1200",3,36,1,1,240,3,2,0,2,0.848766869291996,0.849096356827765
"1201",2,29,2,2,1,1,2,1,4,0.307825927612126,1.16274020029757
"1202",2,30,2,1,2,1,2,0,3,0.638524137129286,1.68524337133468
"1203",2,23,2,2,3,3,2,1,3,1.07345366951871,2.37243203250996
"1204",2,31,2,2,4,2,2,1,3,0.537210743716399,1.52516820974232
"1205",2,24,2,1,5,1,2,0,3,0.645352464967526,1.6960321293191
"1206",2,19,2,1,6,3,1,1,3,1.30700477109985,2.74144277300817
"1207",2,18,2,2,7,3,2,1,3,0.572668639902578,1.58119168571648
"1208",2,30,2,1,8,3,2,0,1,0.228672568487545,1.03767789288073
"1209",2,36,2,2,9,2,2,1,4,0.777981382513584,1.90558581904187
"1210",2,24,2,2,10,2,2,1,4,0.514455884995571,1.48921553296341
"1211",2,29,2,2,11,2,2,1,4,0.531258212599121,1.51576321057702
"1212",2,30,2,2,12,1,2,1,5,0.360424666863812,1.24584620831523
"1213",2,23,2,1,13,1,2,0,3,0.525798049800293,1.50713615335487
"1214",2,31,2,1,14,2,1,1,3,0.615512285831575,1.6488846462843
"1215",2,24,2,1,15,2,1,1,4,0.406023050930838,1.31789165514113
"1216",2,19,2,2,16,1,2,1,5,0.436885038776161,1.36665359593674
"1217",2,18,2,1,17,3,1,1,3,0.522673988933901,1.50220013718597
"1218",2,30,2,2,18,1,2,1,5,0.32972485705909,1.19734050882377
"1219",2,36,2,2,19,1,2,1,5,0.368929790996315,1.25928430444459
"1220",2,24,2,2,20,2,2,1,4,0.813888926193426,1.96231973805602
"1221",2,29,2,2,21,3,1,0,1,0.91157682288672,2.11666661483143
"1222",2,30,2,2,22,2,2,1,4,0.683550483740515,1.75638499898042
"1223",2,23,2,2,23,2,2,1,3,0.68513453728084,1.75888780357414
"1224",2,31,2,1,24,3,1,1,2,1.44148296837781,2.95391832470735
"1225",2,24,2,2,25,3,2,1,3,0.680704671661052,1.75188861589487
"1226",2,19,2,2,26,3,1,0,2,1.14451401283544,2.48470737495041
"1227",2,18,2,2,27,1,1,0,3,0.495237989018769,1.45885125732006
"1228",2,30,2,2,28,3,2,1,3,0.95557201307114,2.18617901532281
"1229",2,36,2,2,29,3,2,1,3,0.564586089827822,1.56842125659837
"1230",2,24,2,1,30,3,1,1,3,0.843348160423081,2.00886532813888
"1231",2,29,2,2,31,1,2,1,5,0.370826243500393,1.26228069940103
"1232",2,30,2,2,32,1,2,1,5,0.45481200750584,1.39497820652964
"1233",2,23,2,1,33,1,1,1,5,0.553608851713855,1.5510772203783
"1234",2,31,2,2,34,3,2,1,2,0.689124575233709,1.76519206353967
"1235",2,24,2,1,35,1,2,0,4,0.638007330680735,1.68442681714597
"1236",2,19,2,2,36,3,1,0,2,1.55474729107777,3.13287595457329
"1237",2,18,2,2,37,2,2,1,3,0.614461797137802,1.64722487414814
"1238",2,30,2,1,38,1,1,1,5,0.505708994283195,1.47539544563786
"1239",2,36,2,2,39,2,2,1,3,0.568729281740675,1.57496749982068
"1240",2,24,2,2,40,3,1,0,2,1.28249562000125,2.70271831427238
"1241",2,29,2,2,41,1,2,1,4,0.314371230729743,1.1730817792234
"1242",2,30,2,1,42,1,2,0,3,0.455275579016058,1.39571064951578
"1243",2,23,2,2,43,1,1,0,3,0.325485692952192,1.19064262953487
"1244",2,31,2,1,44,3,2,0,2,0.393484765607332,1.29808116432999
"1245",2,24,2,1,45,1,1,1,4,0.439793207211534,1.37124850206463
"1246",2,19,2,1,46,2,2,0,3,0.456440543717022,1.3975512937433
"1247",2,18,2,1,47,3,1,1,3,0.526277844615532,1.50789422916295
"1248",2,30,2,1,48,1,1,1,4,0.415505401021585,1.33287376828451
"1249",2,36,2,1,49,1,1,1,4,0.329274452908705,1.19662887026616
"1250",2,24,2,2,50,2,2,1,3,0.596614926296987,1.61902681821965
"1251",2,29,2,1,51,2,2,0,2,0.717797939144096,1.81049597851808
"1252",2,30,2,1,52,1,1,1,5,0.458422853901484,1.40068334383475
"1253",2,23,2,1,53,1,1,1,5,0.525080566713531,1.50600253007779
"1254",2,31,2,1,54,3,2,0,1,0.670950586110419,1.73647716072487
"1255",2,24,2,2,55,2,2,1,3,0.62906684780995,1.67030085421013
"1256",2,19,2,2,56,3,1,0,2,0.825981060604639,1.98142531042574
"1257",2,18,2,2,57,1,1,0,4,0.377579340082498,1.27295059200076
"1258",2,30,2,1,58,1,1,1,5,0.499774989321276,1.46601971779803
"1259",2,36,2,1,59,2,2,0,2,0.693461587934904,1.77204454360756
"1260",2,24,2,1,60,2,1,1,4,0.739335128812696,1.84452473819447
"1261",2,29,2,1,61,1,2,0,3,0.404456359725126,1.31541628303611
"1262",2,30,2,1,62,2,1,1,3,0.747215687587336,1.8569760210584
"1263",2,23,2,1,63,3,1,1,2,0.604882263974048,1.63208921174941
"1264",2,31,2,1,64,3,2,0,2,1.46969704814762,2.99849657074365
"1265",2,24,2,1,65,2,2,0,3,0.805387342448435,1.94888723573894
"1266",2,19,2,1,66,1,1,1,5,0.52577863930292,1.50710548476902
"1267",2,18,2,1,67,2,2,0,3,0.773596653117871,1.89865794659665
"1268",2,30,2,1,68,1,1,1,5,0.471104276075072,1.42071999086902
"1269",2,36,2,2,69,2,2,1,3,0.574535252161228,1.58414093308515
"1270",2,24,2,2,70,3,1,0,2,1.0374478171774,2.31554278581069
"1271",2,29,2,2,71,2,1,0,3,0.770083302785991,1.89310685307227
"1272",2,30,2,1,72,3,1,1,2,1.02969958706948,2.30330058224019
"1273",2,23,2,2,73,2,2,1,4,0.521496008371874,1.50033892789797
"1274",2,31,2,1,74,1,1,1,5,0.443140616186309,1.37653740824478
"1275",2,24,2,1,75,2,2,0,3,0.850429181977906,2.0200533421955
"1276",2,19,2,1,76,3,1,1,2,0.909315736463144,2.11309409828218
"1277",2,18,2,2,77,2,2,1,3,0.743923089473106,1.85177371603792
"1278",2,30,2,2,78,2,1,0,3,0.482768515908632,1.43914948980605
"1279",2,36,2,2,79,2,2,1,4,0.73102512641281,1.83139493440265
"1280",2,24,2,2,80,3,2,1,3,0.870870058617699,2.05234992728637
"1281",2,29,2,1,81,3,2,0,1,0.280628302645692,1.1197679528506
"1282",2,30,2,2,82,2,1,0,3,0.678301238096266,1.74809119086251
"1283",2,23,2,1,83,2,1,1,4,0.650628977813042,1.70436901961502
"1284",2,31,2,1,84,1,1,1,5,0.443267662449697,1.37673814134093
"1285",2,24,2,2,85,2,1,0,3,0.665838779831391,1.72840050680401
"1286",2,19,2,1,86,1,1,1,5,0.367716457353922,1.25736723728961
"1287",2,18,2,2,87,1,2,1,5,0.351973118219382,1.23249276145703
"1288",2,30,2,2,88,1,2,1,5,0.366204943612109,1.25497904557754
"1289",2,36,2,1,89,1,2,0,4,0.669406182995299,1.73403700380298
"1290",2,24,2,2,90,2,1,0,3,0.499237075779494,1.46516981440201
"1291",2,29,2,2,91,1,2,1,4,0.331355409767223,1.19991678210262
"1292",2,30,2,2,92,3,1,0,1,0.975498512162797,2.21766288388763
"1293",2,23,2,2,93,3,2,1,2,0.906493583713619,2.10863509693793
"1294",2,31,2,2,94,2,1,0,2,0.750132989912898,1.86158535873279
"1295",2,24,2,2,95,3,2,1,2,0.980222168892825,2.22512626152107
"1296",2,19,2,2,96,2,1,0,3,0.433845443557366,1.36185103549105
"1297",2,18,2,1,97,3,1,1,3,0.928212438753839,2.14295088790148
"1298",2,30,2,2,98,2,2,1,4,0.507746648396596,1.47861493913703
"1299",2,36,2,1,99,1,1,1,5,0.44724253295836,1.38301843674462
"1300",2,24,2,2,100,1,1,0,4,0.683320578530383,1.75602174874841
"1301",2,29,2,2,101,2,2,1,3,0.639403070795113,1.68663208652669
"1302",2,30,2,2,102,2,2,1,3,0.505998867950109,1.47585344603158
"1303",2,23,2,2,103,1,2,1,5,0.46243806315807,1.40702737446016
"1304",2,31,2,2,104,3,1,0,1,0.731904510472913,1.83278436121761
"1305",2,24,2,2,105,3,2,1,3,0.76728520063583,1.88868585167502
"1306",2,19,2,2,106,3,1,0,1,0.983329610943787,2.23003601996159
"1307",2,18,2,2,107,2,2,1,4,0.423222181233247,1.34506628101894
"1308",2,30,2,1,108,3,1,1,3,0.741859741696189,1.84851362655039
"1309",2,36,2,1,109,3,2,0,2,1.37257087812312,2.84503722210493
"1310",2,24,2,2,110,2,1,0,3,0.60056307561953,1.62526489414927
"1311",2,29,2,1,111,1,2,0,3,0.550019242161704,1.5454056372859
"1312",2,30,2,1,112,3,1,1,2,0.647649110983665,1.6996608300246
"1313",2,23,2,2,113,2,1,0,2,0.69023599358618,1.76694810453657
"1314",2,31,2,1,114,1,1,1,4,0.375088792091569,1.26901552617509
"1315",2,24,2,1,115,1,2,0,3,0.606273265570163,1.63428699427127
"1316",2,19,2,1,116,2,2,0,2,0.464332904578189,1.41002122390395
"1317",2,18,2,1,117,2,1,1,4,0.702070339526233,1.78564637112186
"1318",2,30,2,2,118,3,1,0,2,0.394619060902603,1.29987335089652
"1319",2,36,2,1,119,3,2,0,1,0.741263884100549,1.84757217154928
"1320",2,24,2,2,120,2,2,1,4,0.534454098299786,1.52081270998407
"1321",2,29,2,2,121,2,2,1,3,0.48783826460731,1.44715969274996
"1322",2,30,2,1,122,3,1,1,3,0.608897695942477,1.63843359425952
"1323",2,23,2,1,123,1,1,1,5,0.421250080869539,1.34195036244428
"1324",2,31,2,2,124,3,1,0,2,0.653612832641144,1.70908351024342
"1325",2,24,2,2,125,2,2,1,4,0.769311914932148,1.8918880602632
"1326",2,19,2,2,126,1,2,1,4,0.409965796370864,1.32412119293637
"1327",2,18,2,1,127,1,1,1,5,0.307171929223267,1.16170688284317
"1328",2,30,2,2,128,2,2,1,3,0.747486173187407,1.85740338830651
"1329",2,36,2,1,129,2,2,0,3,0.64887007223542,1.70158994880237
"1330",2,24,2,2,130,2,2,1,3,0.61289321609718,1.64474651610395
"1331",2,29,2,1,131,2,2,0,3,0.542975560685735,1.53427662055387
"1332",2,30,2,2,132,1,1,0,3,0.614394728643297,1.64711890592682
"1333",2,23,2,1,133,3,2,0,1,1.67823198340622,3.32798176845224
"1334",2,31,2,1,134,2,2,0,2,0.815962888090597,1.96559659785355
"1335",2,24,2,1,135,2,1,1,3,0.746928066747567,1.85652158013157
"1336",2,19,2,1,136,3,1,1,3,0.831350172085234,1.98990850656508
"1337",2,18,2,1,137,2,1,1,3,0.584023909244825,1.59913301127723
"1338",2,30,2,1,138,1,1,1,4,0.486099078741565,1.44441177908208
"1339",2,36,2,1,139,3,1,1,2,0.868004995480365,2.04782312752939
"1340",2,24,2,2,140,3,1,0,2,0.524149378365875,1.50453125248849
"1341",2,29,2,2,141,3,1,0,1,1.06381442764358,2.35720203034727
"1342",2,30,2,1,142,1,1,1,5,0.488305771797793,1.44789835411092
"1343",2,23,2,2,143,3,1,0,2,1.28499148249662,2.70666177701507
"1344",2,31,2,1,144,1,1,1,5,0.45512818658519,1.39547776947501
"1345",2,24,2,1,145,2,1,1,3,0.720152972309226,1.81421693091899
"1346",2,19,2,1,146,2,1,1,3,0.687452357555225,1.76254995960767
"1347",2,18,2,2,147,1,2,1,4,0.248599353246836,1.06916221280041
"1348",2,30,2,1,148,3,1,1,3,0.70670310539959,1.79296614120176
"1349",2,36,2,2,149,3,2,1,3,0.956093608318841,2.18700313581418
"1350",2,24,2,2,150,2,2,1,4,0.382501005674026,1.28072682363537
"1351",2,29,2,2,151,2,1,0,2,0.675596512705127,1.74381772474451
"1352",2,30,2,2,152,3,1,0,1,0.591033484787438,1.61020814063456
"1353",2,23,2,2,153,3,1,0,2,1.7064104380919,3.37250372685562
"1354",2,31,2,2,154,3,1,0,1,1.0523186094332,2.33903863757487
"1355",2,24,2,2,155,2,2,1,4,0.441566292317846,1.37404997653261
"1356",2,19,2,1,156,3,1,1,3,0.731427952614895,1.83203139980194
"1357",2,18,2,1,157,3,1,1,2,1.22110425309543,2.60571995456119
"1358",2,30,2,2,158,1,2,1,5,0.35982647716495,1.24490106859103
"1359",2,36,2,1,159,3,2,0,2,1.14793837296173,2.49011786394994
"1360",2,24,2,1,160,2,1,1,3,0.598058483409569,1.62130763845753
"1361",2,29,2,2,161,3,1,0,2,0.632321076825544,1.67544253605477
"1362",2,30,2,2,162,2,2,1,3,0.507069816741937,1.47754554512267
"1363",2,23,2,2,163,2,2,1,3,0.493510409613952,1.45612168186045
"1364",2,31,2,1,164,2,2,0,2,0.864926949586852,2.04295981501764
"1365",2,24,2,1,165,3,2,0,2,1.17020239990169,2.52529502651508
"1366",2,19,2,2,166,1,2,1,4,0.46438837693434,1.41010887022667
"1367",2,18,2,1,167,2,1,1,3,0.662263893980079,1.72275218715893
"1368",2,30,2,1,168,1,1,1,5,0.501959797551918,1.46947171480244
"1369",2,36,2,2,169,3,1,0,1,1.17731698992747,2.53653607875582
"1370",2,24,2,2,170,3,2,1,2,0.899399366872338,2.0974262343287
"1371",2,29,2,2,171,3,2,1,3,0.934874791567773,2.15347740534749
"1372",2,30,2,1,172,2,2,0,3,0.723091634372032,1.81886001697822
"1373",2,23,2,2,173,2,2,1,4,0.635783859548135,1.68091373275646
"1374",2,31,2,2,174,1,2,1,5,0.286038260826545,1.12831568677635
"1375",2,24,2,1,175,1,1,1,5,0.525848342585995,1.50721561595628
"1376",2,19,2,2,176,1,2,1,5,0.365227011250395,1.25343391244603
"1377",2,18,2,2,177,3,2,1,3,1.00429388019101,2.2631595653722
"1378",2,30,2,2,178,3,1,0,1,0.958511371754967,2.19082320204326
"1379",2,36,2,2,179,3,2,1,2,0.893167003590354,2.08757910034317
"1380",2,24,2,1,180,1,1,1,4,0.396371616914351,1.30264238939508
"1381",2,29,2,2,181,1,2,1,5,0.348416139819614,1.2268727355854
"1382",2,30,2,1,182,2,2,0,3,0.694060228732695,1.77299039606807
"1383",2,23,2,1,183,3,2,0,1,1.49161791763756,3.03313154453775
"1384",2,31,2,2,184,2,1,0,3,0.657302251553164,1.71491279212441
"1385",2,24,2,1,185,2,1,1,4,0.872613723305313,2.0551049174928
"1386",2,19,2,2,186,1,2,1,4,0.623143780779115,1.66094240830141
"1387",2,18,2,1,187,1,1,1,4,0.357578075640367,1.24134859418219
"1388",2,30,2,1,188,1,1,1,4,0.46030743359445,1.40366097974964
"1389",2,36,2,1,189,1,2,0,4,0.50322188330232,1.47146581028807
"1390",2,24,2,2,190,1,2,1,5,0.404645641419018,1.31571534811246
"1391",2,29,2,1,191,1,1,1,4,0.395433157470664,1.30115962347406
"1392",2,30,2,1,192,1,1,1,4,0.441516353959975,1.37397107392717
"1393",2,23,2,1,193,2,1,1,3,0.508684840981365,1.48009728342097
"1394",2,31,2,2,194,2,2,1,3,0.687446393719485,1.7625405367472
"1395",2,24,2,1,195,1,1,1,4,0.32631095062184,1.19194653665292
"1396",2,19,2,1,196,2,1,1,4,0.703035787228118,1.78717177849084
"1397",2,18,2,2,197,2,1,0,2,0.467446126193439,1.41494011405604
"1398",2,30,2,2,198,3,1,0,1,1.12953448992096,2.46103972874553
"1399",2,36,2,2,199,3,2,1,2,0.996808153038961,2.25133211647197
"1400",2,24,2,2,200,2,2,1,4,0.651895912466213,1.70637077636703
"1401",2,29,2,1,201,1,1,1,4,0.401587401592338,1.3108833291863
"1402",2,30,2,1,202,3,1,1,3,0.760331732573609,1.87769937213671
"1403",2,23,2,1,203,3,2,0,2,1.03709433599631,2.31498428554459
"1404",2,31,2,1,204,1,1,1,4,0.40891988037293,1.32246864565964
"1405",2,24,2,1,205,1,2,0,3,0.479477184668388,1.43394918644646
"1406",2,19,2,2,206,3,1,0,1,1.03996562519115,2.31952092247242
"1407",2,18,2,2,207,1,2,1,5,0.566750574902414,1.57184114301622
"1408",2,30,2,1,208,1,2,0,3,0.811390313324064,1.95837192972243
"1409",2,36,2,1,209,3,2,0,2,1.02529412679057,2.29633995499951
"1410",2,24,2,2,210,2,1,0,3,0.561359383827133,1.56332306111728
"1411",2,29,2,1,211,1,2,0,4,0.598538297698157,1.6220657450335
"1412",2,30,2,2,212,2,2,1,3,0.539849490241403,1.52933742925183
"1413",2,23,2,1,213,2,2,0,2,0.590558803867898,1.60945814478169
"1414",2,31,2,2,214,3,1,0,2,0.707407615838119,1.79407926769464
"1415",2,24,2,2,215,2,1,0,3,0.717871201857977,1.81061173360601
"1416",2,19,2,2,216,1,2,1,5,0.300828114146642,1.1516836550221
"1417",2,18,2,1,217,3,2,0,1,0.890334596633183,2.08310389735084
"1418",2,30,2,1,218,2,2,0,3,0.436088317907247,1.36539477696386
"1419",2,36,2,1,219,3,2,0,2,0.706986064410092,1.79341321643835
"1420",2,24,2,1,220,1,2,0,4,0.610887683842392,1.64157777514139
"1421",2,29,2,1,221,3,1,1,2,0.485718549424359,1.4438105427609
"1422",2,30,2,1,222,2,1,1,3,0.714920727502609,1.80594998412453
"1423",2,23,2,2,223,1,1,0,4,0.441312352661949,1.37364875187629
"1424",2,31,2,1,224,3,2,0,1,0.673858935964375,1.74107235349412
"1425",2,24,2,1,225,3,1,1,2,0.676198479329817,1.74476883201152
"1426",2,19,2,2,226,2,2,1,4,0.61306734051867,1.64502163268991
"1427",2,18,2,1,227,1,1,1,5,0.481972725737098,1.43789214133502
"1428",2,30,2,1,228,1,2,0,4,0.696942112431985,1.77754377231295
"1429",2,36,2,1,229,3,2,0,2,1.21761798182272,2.6002116459503
"1430",2,24,2,2,230,1,2,1,4,0.351249420010153,1.23134931828645
"1431",2,29,2,1,231,1,2,0,4,0.595221923094598,1.61682587315987
"1432",2,30,2,1,232,2,2,0,2,0.673661039478626,1.74075967704664
"1433",2,23,2,2,233,3,1,0,2,0.851352446325734,2.02151209986507
"1434",2,31,2,2,234,3,1,0,1,1.08627434149572,2.39268869423365
"1435",2,24,2,1,235,3,1,1,3,0.73848890737531,1.8431877083234
"1436",2,19,2,1,236,2,1,1,4,0.363545231402675,1.25077670028664
"1437",2,18,2,2,237,3,1,0,2,1.34782685543658,2.8059416662602
"1438",2,30,2,2,238,1,2,1,4,0.366133758492454,1.25486657308849
"1439",2,36,2,1,239,1,1,1,5,0.357674784920111,1.24150139484418
"1440",2,24,2,1,240,1,1,1,4,0.432387966101586,1.35954822111092
"1441",1,21,1,2,1,1,2,1,4,0.511131044948446,1.13176006886526
"1442",1,27,1,1,2,3,2,0,1,1.2946032491484,2.36964615150119
"1443",1,22,1,2,3,1,2,1,4,0.46478565980636,1.05853436034077
"1444",1,24,1,1,4,1,1,1,5,0.465723909610536,1.06001679503137
"1445",1,28,1,2,5,3,1,0,2,1.4165335582955,2.56229603995361
"1446",1,18,1,1,6,3,1,1,2,0.69954031622141,1.42944671747655
"1447",1,30,1,1,7,2,1,1,3,0.474521534368628,1.07391704214915
"1448",1,20,1,2,8,3,1,0,1,0.933837888663129,1.79963688193446
"1449",1,24,1,2,9,2,1,0,3,0.880597084917368,1.71551641201616
"1450",1,30,1,1,10,1,1,1,5,0.445316226361087,1.02777265549724
"1451",1,21,1,2,11,1,2,1,5,0.473364523929757,1.07208896565574
"1452",1,27,1,2,12,2,2,1,4,0.597416961011793,1.26809181624535
"1453",1,22,1,2,13,3,1,0,2,1.44317421457198,2.60438827687044
"1454",1,24,1,2,14,3,1,0,1,1.76789090940301,3.11744065470347
"1455",1,28,1,2,15,2,1,0,2,0.760606527231361,1.52593133087227
"1456",1,18,1,1,16,1,1,1,4,0.342921473771935,0.865988946406378
"1457",1,30,1,1,17,3,1,1,3,1.16097412086524,2.15851212881381
"1458",1,20,1,1,18,3,2,0,1,1.21525600450439,2.24427750496366
"1459",1,24,1,2,19,3,2,1,2,0.994591073015597,1.89562691321136
"1460",1,30,1,1,20,2,1,1,4,0.57409475605304,1.23124273241052
"1461",1,21,1,1,21,2,1,1,3,0.458944619657573,1.04930551690569
"1462",1,27,1,1,22,1,2,0,4,0.644897548186476,1.34311114398135
"1463",1,22,1,1,23,1,1,1,4,0.514799298060145,1.13755590878175
"1464",1,24,1,2,24,3,1,0,2,0.964153634621129,1.8475357605481
"1465",1,28,1,2,25,2,2,1,4,0.589583468212377,1.25571489762228
"1466",1,18,1,2,26,3,1,0,2,1.12237943239978,2.09753252103838
"1467",1,30,1,2,27,2,2,1,3,0.623481667266047,1.30927405212707
"1468",1,20,1,1,28,2,2,0,2,0.978783621803776,1.87065114029669
"1469",1,24,1,1,29,2,1,1,4,0.543836206566741,1.18343422422217
"1470",1,30,1,2,30,3,1,0,1,0.716421687177578,1.45611928358729
"1471",1,21,1,1,31,2,1,1,4,0.612397021979969,1.29176031257507
"1472",1,27,1,1,32,1,1,1,5,0.354857976017558,0.884848619954461
"1473",1,22,1,1,33,3,1,1,3,0.869872811099416,1.6985720593838
"1474",1,24,1,1,34,3,2,0,2,0.728019629951335,1.47444403316983
"1475",1,28,1,1,35,3,2,0,1,1.4877927438297,2.67488555309765
"1476",1,18,1,1,36,1,1,1,5,0.327780721103251,0.842066557189856
"1477",1,30,1,2,37,3,2,1,2,0.634072837193129,1.32600810061186
"1478",1,20,1,2,38,3,2,1,3,0.550976015116222,1.19471512173035
"1479",1,24,1,1,39,2,2,0,3,0.586019548938069,1.25008390516887
"1480",1,30,1,1,40,1,2,0,4,0.483119659141653,1.08750207929053
"1481",1,21,1,2,41,1,1,0,4,0.478721846385571,1.08055353513592
"1482",1,27,1,1,42,1,1,1,4,0.379350924223148,0.923547478119294
"1483",1,22,1,2,43,1,2,1,5,0.497028960388875,1.10947877526114
"1484",1,24,1,1,44,1,1,1,4,0.460780925136986,1.05220687956316
"1485",1,28,1,2,45,1,2,1,4,0.423278132660969,0.992952467451051
"1486",1,18,1,2,46,1,2,1,4,0.395022854518108,0.94830912798533
"1487",1,30,1,2,47,1,1,0,4,0.469305521353502,1.06567574158525
"1488",1,20,1,2,48,1,2,1,4,0.468867690659062,1.06498396908804
"1489",1,24,1,2,49,3,2,1,3,0.996693957283393,1.89894947035448
"1490",1,30,1,2,50,2,1,0,3,0.680875983408453,1.39995707163208
"1491",1,21,1,1,51,1,1,1,5,0.351114082526812,0.878933268239083
"1492",1,27,1,2,52,2,2,1,4,0.658244396673651,1.36419916459109
"1493",1,22,1,1,53,2,1,1,3,0.62657213443398,1.31415699025241
"1494",1,24,1,2,54,3,2,1,2,0.893763330182194,1.73631907953459
"1495",1,28,1,2,55,2,1,0,3,0.563316907817656,1.21421373219862
"1496",1,18,1,2,56,2,2,1,4,0.773690895686286,1.54660463303105
"1497",1,30,1,1,57,2,2,0,3,0.579887759549574,1.24039567793505
"1498",1,20,1,2,58,1,2,1,4,0.427030709052703,0.998881538149991
"1499",1,24,1,2,59,3,2,1,2,0.868004541318908,1.6956201931306
"1500",1,30,1,2,60,1,2,1,5,0.366662477053639,0.90349973159147
"1501",1,21,1,2,61,1,1,0,4,0.577671160566949,1.2368934515425
"1502",1,27,1,2,62,2,1,0,3,0.638592491473913,1.3331491543755
"1503",1,22,1,2,63,2,2,1,4,0.474322869632312,1.07360315186577
"1504",1,24,1,2,64,2,2,1,4,0.645795469320829,1.34452985937363
"1505",1,28,1,2,65,1,1,0,3,0.56790219429595,1.22145848483432
"1506",1,18,1,1,66,2,2,0,2,0.846019267824825,1.66088346100994
"1507",1,30,1,1,67,1,1,1,5,0.459476358385241,1.0501456640954
"1508",1,20,1,2,68,2,2,1,3,0.85883700131707,1.68113547992769
"1509",1,24,1,2,69,3,1,0,2,0.730583566092207,1.47849505227241
"1510",1,30,1,2,70,3,2,1,2,0.430287948091,1.0040279758305
"1511",1,21,1,1,71,3,2,0,2,0.604662713667169,1.27954010544085
"1512",1,27,1,1,72,3,2,0,2,1.58304402895484,2.82538258359536
"1513",1,22,1,2,73,2,1,0,3,0.68872858811325,1.41236418706566
"1514",1,24,1,2,74,1,2,1,5,0.425292512437614,0.99613518749815
"1515",1,28,1,2,75,3,2,1,3,0.618314498721885,1.3011099258273
"1516",1,18,1,2,76,2,1,0,2,0.874250932216962,1.70548949074952
"1517",1,30,1,2,77,2,2,1,4,0.750145761380622,1.5094033208281
"1518",1,20,1,2,78,1,2,1,4,0.343600084382965,0.867061151171805
"1519",1,24,1,2,79,1,2,1,5,0.379390400142429,0.923609850071757
"1520",1,30,1,1,80,1,2,0,3,0.364594872859748,0.900232916965122
"1521",1,21,1,1,81,1,1,1,4,0.459988705512096,1.05095517255583
"1522",1,27,1,2,82,2,2,1,4,0.530955862554663,1.16308328068309
"1523",1,22,1,2,83,1,2,1,5,0.437711613479164,1.0157573671438
"1524",1,24,1,2,84,3,2,1,3,0.758712211329201,1.52293831174686
"1525",1,28,1,1,85,1,1,1,4,0.321291735315582,0.83181395964534
"1526",1,18,1,2,86,2,1,0,2,0.708412750454164,1.4434651635643
"1527",1,30,1,1,87,3,1,1,3,1.20071034954907,2.22129537013426
"1528",1,20,1,2,88,2,2,1,3,0.90345923729137,1.75163861276708
"1529",1,24,1,2,89,2,1,0,2,0.859662602162165,1.68243992926294
"1530",1,30,1,1,90,2,1,1,3,0.396535227897093,0.950698677924128
"1531",1,21,1,1,91,2,1,1,4,0.522181277832133,1.14921943682149
"1532",1,27,1,2,92,1,1,0,4,0.603304059191692,1.27739343136959
"1533",1,22,1,1,93,3,2,0,1,0.830072040362344,1.63568684161922
"1534",1,24,1,1,94,3,2,0,2,1.18709334693784,2.1997805060085
"1535",1,28,1,1,95,1,1,1,4,0.50941955799934,1.12905591948568
"1536",1,18,1,2,96,1,2,1,4,0.477707360798221,1.07895064790791
"1537",1,30,1,2,97,1,2,1,5,0.474141166051955,1.07331606020881
"1538",1,20,1,1,98,2,1,1,3,0.368594829072786,0.906552847781721
"1539",1,24,1,1,99,3,1,1,2,0.762257484555621,1.5285398434446
"1540",1,30,1,2,100,3,1,0,1,0.993247592521547,1.89350421403076
"1541",1,21,1,1,101,2,1,1,3,0.491363073000845,1.10052667318805
"1542",1,27,1,1,102,1,1,1,5,0.347535053823806,0.873278402888334
"1543",1,22,1,2,103,3,2,1,3,0.941422540284413,1.81162063149609
"1544",1,24,1,2,104,1,2,1,5,0.481386472613986,1.08476364457682
"1545",1,28,1,1,105,2,2,0,3,0.353971276761928,0.883447635130566
"1546",1,18,1,2,106,2,1,0,2,0.815947040036428,1.61336934110428
"1547",1,30,1,1,107,2,1,1,3,0.825681296062062,1.62874946562478
"1548",1,20,1,2,108,2,2,1,4,0.505285122619931,1.12252351158621
"1549",1,24,1,2,109,3,2,1,3,0.697269932253011,1.42585951080648
"1550",1,30,1,1,110,2,1,1,4,0.61045203441459,1.28868723222177
"1551",1,21,1,1,111,3,2,0,2,1.34499585016767,2.44926646111164
"1552",1,27,1,1,112,3,2,0,1,0.815928240076352,1.61333963716736
"1553",1,22,1,2,113,1,2,1,5,0.344434545605719,0.868379599903756
"1554",1,24,1,1,114,3,2,0,1,1.04238248680444,1.97113734699774
"1555",1,28,1,1,115,3,1,1,2,0.819202933593275,1.6185136529241
"1556",1,18,1,2,116,1,2,1,4,0.327165980178145,0.841095266528189
"1557",1,30,1,2,117,2,2,1,3,0.57596226689233,1.2341933995366
"1558",1,20,1,1,118,3,2,0,1,1.57783560232018,2.8171532695126
"1559",1,24,1,1,119,3,2,0,1,0.88015315221562,1.7148149983474
"1560",1,30,1,2,120,1,2,1,4,0.365711113097599,0.901996576540927
"1561",1,21,1,1,121,2,2,0,2,0.583443225487888,1.24601331411758
"1562",1,27,1,2,122,1,2,1,4,0.499664084699248,1.11364227167153
"1563",1,22,1,2,123,2,1,0,3,0.775604071346679,1.54962745057447
"1564",1,24,1,2,124,1,2,1,4,0.523026308878101,1.15055458587412
"1565",1,28,1,2,125,3,1,0,1,0.986664487899319,1.88310290872764
"1566",1,18,1,1,126,2,2,0,3,0.703073984960076,1.43502991408364
"1567",1,30,1,1,127,3,2,0,2,0.84252365087319,1.65536038622636
"1568",1,20,1,2,128,2,2,1,4,0.461611756331357,1.05351959285026
"1569",1,24,1,2,129,3,2,1,2,0.62522562145086,1.31202949973908
"1570",1,30,1,2,130,3,2,1,3,0.719908029871008,1.46162770504291
"1571",1,21,1,2,131,1,2,1,4,0.500854431402427,1.11552301946255
"1572",1,27,1,2,132,3,1,0,2,0.749402300672071,1.50822865290859
"1573",1,22,1,2,133,3,2,1,3,0.711331758823504,1.44807719678786
"1574",1,24,1,1,134,3,1,1,2,0.735641975139235,1.48648733856671
"1575",1,28,1,2,135,3,1,0,2,0.596705765407635,1.26696812719078
"1576",1,18,1,1,136,3,1,1,3,1.02352127802138,1.9413366371205
"1577",1,30,1,2,137,1,2,1,4,0.530913474897889,1.16301630818538
"1578",1,20,1,2,138,3,2,1,2,0.776301102868618,1.55072876037914
"1579",1,24,1,1,139,1,2,0,4,0.693378332224076,1.41971078276076
"1580",1,30,1,1,140,1,1,1,4,0.461769984693436,1.05376959366235
"1581",1,21,1,1,141,3,2,0,2,0.705337579340268,1.43860639320434
"1582",1,27,1,1,142,1,2,0,3,0.547138409987077,1.1886517056263
"1583",1,22,1,1,143,2,1,1,3,0.385709864814352,0.933594604253396
"1584",1,24,1,1,144,2,2,0,2,0.488116771516539,1.09539751684285
"1585",1,28,1,1,145,1,1,1,4,0.472762864182277,1.07113834325472
"1586",1,18,1,1,146,1,1,1,4,0.294184679496449,0.78898481145111
"1587",1,30,1,1,147,2,1,1,4,0.557029949710978,1.20428033839007
"1588",1,20,1,2,148,3,2,1,3,0.519678270225653,1.14526468480325
"1589",1,24,1,2,149,3,2,1,2,0.683203463612692,1.40363449035477
"1590",1,30,1,2,150,1,2,1,4,0.393187585023974,0.945409402184599
"1591",1,21,1,1,151,1,1,1,4,0.527362686669648,1.15740606278476
"1592",1,27,1,2,152,1,2,1,4,0.311476496192469,0.816305881830821
"1593",1,22,1,1,153,3,2,0,2,1.25934940779481,2.31394508216252
"1594",1,24,1,1,154,1,1,1,5,0.386593110456272,0.93499013236763
"1595",1,28,1,2,155,3,2,1,3,0.854466171439643,1.67422956872136
"1596",1,18,1,1,156,1,1,1,4,0.541348982521919,1.17950441023135
"1597",1,30,1,2,157,2,1,0,3,0.832500873223576,1.63952439753997
"1598",1,20,1,1,158,1,1,1,4,0.519131929269692,1.14440146609283
"1599",1,24,1,2,159,2,2,1,3,0.53545459929517,1.17019128473309
"1600",1,30,1,1,160,2,1,1,4,0.388339573998029,0.937749544763606
"1601",1,21,1,2,161,1,2,1,4,0.444793951280989,1.02694746087068
"1602",1,27,1,2,162,3,1,0,1,1.37090070489327,2.49019613157808
"1603",1,22,1,1,163,1,1,1,5,0.376714280899597,0.919381581668083
"1604",1,24,1,2,164,2,1,0,2,0.394473986627452,0.947441916718095
"1605",1,28,1,2,165,1,1,0,4,0.508124934349025,1.12701041411818
