"","subj_no","age","group","stim","trial","difficulty","resp","corr","conf","RT_day1","RT_day2"
"1",8,25,2,2,1,1,2,1,5,0.447355194779502,0.508551355580414
"2",8,29,2,1,2,2,1,1,3,0.501894175351073,0.594722944883496
"3",8,36,2,1,3,3,1,1,2,0.647452861696636,0.824705669309485
"4",8,24,2,2,4,1,2,1,5,0.379689013232585,0.401638788736284
"5",8,26,2,1,5,2,1,1,4,0.440398841701087,0.497560317716517
"6",8,24,2,1,6,3,2,0,1,0.507858144242385,0.604146015731769
"7",8,18,2,2,7,2,2,1,4,0.586282917925728,0.72805715815145
"8",8,29,2,2,8,2,2,1,4,0.59791173191676,0.746430684257281
"9",8,26,2,1,9,3,2,0,1,0.925466239206447,1.26396680577499
"10",8,40,2,1,10,3,2,0,1,1.90348341894872,2.80923394976777
"11",8,25,2,1,11,2,2,0,2,0.440279385266187,0.497371576549375
"12",8,29,2,2,12,1,1,0,3,0.606427428726431,0.759885485216561
"13",8,36,2,2,13,2,1,0,2,0.940016981057062,1.28695697789896
"14",8,24,2,1,14,3,2,0,1,1.15845609091502,1.63209077147454
"15",8,26,2,2,15,2,1,0,3,0.728771160439023,0.953188581322456
"16",8,24,2,2,16,2,2,1,4,0.505526127079105,0.600461428613785
"17",8,18,2,2,17,1,2,1,4,0.609194504873378,0.764257465528738
"18",8,29,2,2,18,1,2,1,5,0.389464256162636,0.417083672565765
"19",8,26,2,1,19,3,1,1,3,0.634386775805567,0.804061253601596
"20",8,40,2,2,20,1,2,1,5,0.343922586603336,0.345127834662071
"21",8,25,2,1,21,2,1,1,3,0.531271404261042,0.641138966561246
"22",8,29,2,1,22,2,1,1,3,0.515391163812925,0.616048186653221
"23",8,36,2,2,23,3,2,1,2,0.501261315554868,0.593723026405492
"24",8,24,2,2,24,2,2,1,4,0.585983792493868,0.727584539969112
"25",8,26,2,1,25,3,2,0,1,0.591302884358714,0.735988705115569
"26",8,24,2,1,26,2,2,0,2,0.697668585656101,0.904046513165439
"27",8,18,2,1,27,2,2,0,2,1.01819048161914,1.41047110878704
"28",8,29,2,2,28,3,2,1,2,0.914271410659162,1.24627897667028
"29",8,26,2,1,29,3,2,0,1,0.404019724221067,0.440081312098086
"30",8,40,2,2,30,1,2,1,5,0.356099707289722,0.364367685346561
"31",8,25,2,1,31,2,1,1,4,0.392575217700998,0.421998991796376
"32",8,29,2,2,32,2,2,1,3,0.663137368569141,0.849487190168043
"33",8,36,2,2,33,2,2,1,3,0.625780471045837,0.790463292081223
"34",8,24,2,2,34,1,2,1,4,0.370000890378865,0.386331554627406
"35",8,26,2,1,35,3,1,1,2,0.560253732991497,0.686931045955364
"36",8,24,2,1,36,2,2,0,3,0.778216558124218,1.03131230966506
"37",8,18,2,2,37,3,2,1,3,0.618315022314984,0.778667883086475
"38",8,29,2,1,38,1,1,1,4,0.420333110416713,0.465856462287206
"39",8,26,2,1,39,3,2,0,1,1.37346336545174,1.97180226524255
"40",8,40,2,1,40,1,1,1,4,0.467367553689032,0.54017088265747
"41",8,25,2,1,41,1,1,1,5,0.375926858541547,0.395694584324445
"42",8,29,2,2,42,2,1,0,2,0.931230260225897,1.27307395898572
"43",8,36,2,1,43,2,1,1,3,0.645828099792656,0.822138545501196
"44",8,24,2,2,44,3,2,1,3,0.83556495791918,1.1219227813411
"45",8,26,2,1,45,3,2,0,2,1.23330952003239,1.75035918947998
"46",8,24,2,2,46,2,2,1,4,0.793621487007659,1.0556520973009
"47",8,18,2,1,47,1,1,1,5,0.538220212945384,0.652118084282507
"48",8,29,2,1,48,2,1,1,4,0.652948935351025,0.83338946568342
"49",8,26,2,1,49,2,2,0,3,0.577754105596341,0.714581634671019
"50",8,40,2,1,50,2,1,1,3,0.662617792328292,0.848666259707501
"51",8,25,2,2,51,1,2,1,5,0.537981488509203,0.651740899673341
"52",8,29,2,2,52,1,2,1,5,0.417672991010284,0.461653473625048
"53",8,36,2,1,53,3,2,0,2,1.72443428044018,2.52633631092429
"54",8,24,2,2,54,1,2,1,5,0.341813683850917,0.341795768313249
"55",8,26,2,2,55,2,1,0,3,0.561714867482602,0.689239638451311
"56",8,24,2,1,56,2,1,1,3,0.613266042360486,0.770690494758368
"57",8,18,2,1,57,3,2,0,1,0.940270815884429,1.2873580369262
"58",8,29,2,1,58,2,1,1,3,0.626635398847689,0.791814078008149
"59",8,26,2,2,59,1,1,0,3,0.438802112489629,0.495037485562414
"60",8,40,2,1,60,2,1,1,3,0.475939806738888,0.553715042476243
"61",8,25,2,2,61,2,1,0,2,0.745232839267564,0.979198033871551
"62",8,29,2,2,62,2,2,1,3,0.477791066070191,0.556640032219702
"63",8,36,2,1,63,3,1,1,3,1.14362683625875,1.60866054911762
"64",8,24,2,1,64,3,1,1,3,0.502394023750084,0.595512705353933
"65",8,26,2,2,65,2,1,0,3,0.668902154524443,0.85859555197742
"66",8,24,2,1,66,3,1,1,2,0.813767838472413,1.08748333261521
"67",8,18,2,2,67,2,2,1,3,0.490908454812801,0.577365506433025
"68",8,29,2,2,68,1,1,0,3,0.544736154736409,0.662413272312326
"69",8,26,2,1,69,3,1,1,2,0.677158445124841,0.871640491126049
"70",8,40,2,1,70,2,1,1,4,0.709374420607403,0.922541732388496
"71",8,25,2,2,71,3,1,0,2,1.3301435073135,1.90335688938413
"72",8,29,2,1,72,1,1,1,4,0.506180139815885,0.601494768737898
"73",8,36,2,1,73,3,2,0,2,1.97960907189574,2.92951248142407
"74",8,24,2,2,74,3,2,1,3,0.825169436477175,1.10549785746274
"75",8,26,2,2,75,1,2,1,4,0.588609329923316,0.73173288910764
"76",8,24,2,1,76,3,1,1,2,0.709057722076699,0.922041348709984
"77",8,18,2,1,77,3,2,0,2,1.22170140714539,1.73201837111852
"78",8,29,2,2,78,3,1,0,1,0.907762354232288,1.23599466751581
"79",8,26,2,1,79,3,2,0,1,0.282113766633115,0.247469899109121
"80",8,40,2,2,80,1,2,1,4,0.468504582113313,0.541967387567835
"81",8,25,2,2,81,3,2,1,3,0.834278921942316,1.11989084449766
"82",8,29,2,2,82,1,1,0,4,0.461626227542265,0.531099587345579
"83",8,36,2,2,83,3,1,0,1,1.29242293962277,1.84375839243277
"84",8,24,2,2,84,1,1,0,3,0.509122407319641,0.606143551393832
"85",8,26,2,1,85,3,1,1,3,0.893970410229266,1.21420339599104
"86",8,24,2,2,86,2,2,1,3,0.616920604521232,0.776464702972346
"87",8,18,2,2,87,2,2,1,3,0.503102296855253,0.5966317768601
"88",8,29,2,2,88,3,1,0,2,0.458857111277517,0.526724383647277
"89",8,26,2,1,89,2,2,0,2,0.49311288016718,0.580848498492944
"90",8,40,2,1,90,3,2,0,2,0.500256954113519,0.59213613532816
"91",8,25,2,1,91,1,1,1,5,0.401089082858463,0.435450898745172
"92",8,29,2,1,92,1,1,1,5,0.43565686757108,0.490067998591106
"93",8,36,2,2,93,1,2,1,5,0.355273785584596,0.363062729052461
"94",8,24,2,1,94,3,2,0,1,1.01424639867563,1.4042394577363
"95",8,26,2,1,95,2,1,1,4,0.59414771269608,0.740483533888606
"96",8,24,2,1,96,1,1,1,4,0.459464116397264,0.527683451736478
"97",8,18,2,2,97,3,2,1,2,0.82701209743223,1.10840926177172
"98",8,29,2,2,98,1,2,1,4,0.4328353025597,0.485609925873125
"99",8,26,2,2,99,1,2,1,5,0.442978319583477,0.501635892770694
"100",8,40,2,1,100,1,1,1,5,0.400902101677776,0.435155468479686
"101",8,25,2,2,101,2,2,1,4,0.597817572440092,0.746281912284145
"102",8,29,2,2,102,2,2,1,4,0.53294080474654,0.643776619328333
"103",8,36,2,2,103,2,2,1,4,0.529446958373694,0.638256342059237
"104",8,24,2,2,104,3,1,0,2,1.5132675889515,2.19269293837217
"105",8,26,2,2,105,1,2,1,4,0.365147543180565,0.378663266054093
"106",8,24,2,2,106,3,1,0,1,1.35330739389971,1.93995583019034
"107",8,18,2,1,107,3,1,1,2,1.16115892065534,1.63636124246424
"108",8,29,2,1,108,1,1,1,5,0.256090698852642,0.206353452015975
"109",8,26,2,1,109,2,2,0,2,0.756362607780273,0.996783068121632
"110",8,40,2,1,110,1,1,1,4,0.412619210013442,0.453668499650039
"111",8,25,2,2,111,3,2,1,3,0.971267672761889,1.33633307079258
"112",8,29,2,1,112,1,1,1,4,0.46836413482391,0.541745480850578
"113",8,36,2,2,113,2,2,1,3,0.359288041558526,0.369405253491271
"114",8,24,2,1,114,2,2,0,3,0.555571497294243,0.679533113553703
"115",8,26,2,1,115,2,1,1,4,0.543177639934075,0.659950818924639
"116",8,24,2,2,116,2,2,1,4,0.638066180369477,0.809874712812574
"117",8,18,2,1,117,1,2,0,3,0.497506037598912,0.58778968723508
"118",8,29,2,1,118,3,1,1,2,0.87991562039797,1.19199682805759
"119",8,26,2,2,119,3,2,1,2,0.874181782921385,1.18293736484459
"120",8,40,2,1,120,1,1,1,5,0.31570163790316,0.300538735715793
"121",8,25,2,1,121,1,1,1,4,0.394022411448637,0.424285557917647
"122",8,29,2,2,122,3,1,0,2,1.17392461834834,1.65653104481917
"123",8,36,2,2,123,1,2,1,5,0.523534560382486,0.628914753233127
"124",8,24,2,2,124,2,2,1,4,0.86091730371759,1.16197948770259
"125",8,26,2,1,125,1,1,1,5,0.411068815572306,0.451218876433044
"126",8,24,2,1,126,3,2,0,1,0.887802504376871,1.20445810474426
"127",8,18,2,2,127,3,2,1,3,1.02433981807411,1.4201870603859
"128",8,29,2,2,128,1,2,1,5,0.475778060765422,0.553459483838167
"129",8,26,2,2,129,1,2,1,4,0.347368094439281,0.350571737042863
"130",8,40,2,2,130,1,2,1,4,0.287065759343853,0.255294047592088
"131",8,25,2,2,131,3,2,1,2,0.895962084965728,1.21735024207465
"132",8,29,2,2,132,1,2,1,4,0.354112656052486,0.361228144391727
"133",8,36,2,2,133,2,2,1,4,0.70030157364186,0.908206634182938
"134",8,24,2,2,134,2,2,1,3,0.605933624120547,0.759105273939264
"135",8,26,2,2,135,2,2,1,4,0.302651889480622,0.279920133208183
"136",8,24,2,2,136,1,2,1,4,0.34781450732564,0.351277069403311
"137",8,18,2,2,137,1,2,1,4,0.514399829560869,0.614481878534973
"138",8,29,2,1,138,1,1,1,5,0.344054852683698,0.345336815069042
"139",8,26,2,1,139,1,1,1,4,0.430323792696465,0.481641740289214
"140",8,40,2,2,140,1,2,1,4,0.24585815505533,0.190186032816221
"141",8,25,2,2,141,3,2,1,3,1.02230704438542,1.41697527795777
"142",8,29,2,1,142,2,1,1,3,0.503081495025328,0.596598909968819
"143",8,36,2,2,143,1,2,1,4,0.426939213641537,0.476294105382428
"144",8,24,2,1,144,1,2,0,3,0.550970083133601,0.67226287917989
"145",8,26,2,2,145,2,1,0,2,0.778759023486518,1.0321694049375
"146",8,24,2,1,146,3,1,1,2,0.948321740069682,1.3000784971389
"147",8,18,2,1,147,2,1,1,3,0.631777080961858,0.799937935748536
"148",8,29,2,2,148,1,1,0,4,0.569959569417338,0.702266267508194
"149",8,26,2,2,149,1,2,1,5,0.357874567308009,0.367171964175455
"150",8,40,2,1,150,3,2,0,2,0.652871271783723,0.833266757247083
"151",8,25,2,1,151,3,1,1,2,0.887189943111652,1.20349025794521
"152",8,29,2,1,152,1,1,1,5,0.378930293629456,0.40044001176334
"153",8,36,2,2,153,1,2,1,4,0.358849520361469,0.368712389999922
"154",8,24,2,1,154,1,1,1,5,0.280694341849357,0.245227207950783
"155",8,26,2,1,155,3,1,1,2,0.403951765400643,0.439973937161816
"156",8,24,2,1,156,2,1,1,4,0.552467883964853,0.674629404493267
"157",8,18,2,1,157,1,1,1,4,0.503838043382249,0.597794256372753
"158",8,29,2,1,158,2,1,1,4,0.600187445909798,0.750026312366281
"159",8,26,2,2,159,2,1,0,3,0.747928385422762,0.983456996796764
"160",8,40,2,2,160,1,1,0,4,0.751403105753448,0.988947054919248
"161",8,25,2,2,161,2,1,0,3,0.588318368857612,0.731273170623828
"162",8,29,2,1,162,1,1,1,4,0.351857134361,0.35766442011918
"163",8,36,2,2,163,2,1,0,3,0.826553722772596,1.1076850298095
"164",8,24,2,1,164,3,2,0,2,0.703875453200761,0.913853363886002
"165",8,26,2,2,165,1,2,1,4,0.458629480525408,0.526364727058944
"166",8,24,2,2,166,3,1,0,2,0.960480332525888,1.3192890732197
"167",8,18,2,1,167,3,2,0,1,1.28472746649312,1.83159954488792
"168",8,29,2,1,168,2,2,0,3,1.03623817707491,1.43898646760716
"169",8,26,2,1,169,2,1,1,4,0.593149032163002,0.738905618646343
"170",8,40,2,1,170,1,2,0,4,0.390339307746261,0.418466254067892
"171",8,25,2,2,171,3,2,1,3,1.04545730994697,1.45355269754502
"172",8,29,2,1,172,1,1,1,4,0.464869867524482,0.536224538517481
"173",8,36,2,2,173,2,1,0,3,0.703857723416131,0.913825350826287
"174",8,24,2,2,174,2,2,1,3,0.593533706651842,0.73951340433871
"175",8,26,2,1,175,1,2,0,4,0.623774967129582,0.78729459589354
"176",8,24,2,2,176,3,2,1,3,0.737379619705466,0.966789946963437
"177",8,18,2,1,177,3,1,1,3,0.901190757952735,1.22561154539412
"178",8,29,2,1,178,2,2,0,3,0.796517349116661,1.06022755943312
"179",8,26,2,1,179,1,1,1,5,0.360764788799683,0.371738514132299
"180",8,40,2,1,180,2,1,1,4,0.646336100387512,0.822941186441069
"181",8,25,2,1,181,2,2,0,3,0.76626481341667,1.01242855302714
"182",8,29,2,2,182,3,2,1,3,0.452443419502724,0.516590750643104
"183",8,36,2,1,183,3,2,0,1,0.829503378246545,1.11234548545834
"184",8,24,2,1,184,2,1,1,3,0.726423660073513,0.94947953074495
"185",8,26,2,1,185,1,1,1,5,0.380291936211686,0.402591407043265
"186",8,24,2,1,186,2,1,1,3,0.536559477647242,0.649494122511442
"187",8,18,2,1,187,2,2,0,3,0.741078838657062,0.972634712906958
"188",8,29,2,2,188,2,2,1,4,0.698992269052947,0.906137932932457
"189",8,26,2,2,189,3,1,0,2,1.09209211696707,1.52723569263677
"190",8,40,2,1,190,1,1,1,5,0.373334204823981,0.39159819145069
"191",8,25,2,2,191,3,2,1,3,0.910860539305415,1.24088979993136
"192",8,29,2,1,192,2,2,0,3,0.584202660013638,0.724770350650347
"193",8,36,2,1,193,2,2,0,3,0.815872487021943,1.09080867732347
"194",8,24,2,2,194,3,1,0,1,0.922270863242305,1.25891811175164
"195",8,26,2,2,195,3,2,1,3,0.89945450214336,1.22286826121531
"196",8,24,2,1,196,1,2,0,3,0.583738659076814,0.724037229170167
"197",8,18,2,2,197,1,2,1,4,0.457734033136205,0.524949920184003
"198",8,29,2,2,198,2,2,1,4,0.241765441474859,0.183719545359078
"199",8,26,2,2,199,1,2,1,5,0.253145003344356,0.201699253112882
"200",8,40,2,1,200,3,1,1,2,0.95894313498766,1.3168603011093
"201",8,25,2,1,201,1,1,1,5,0.262651284205141,0.216719176872922
"202",8,29,2,1,202,1,2,0,4,0.584684035312062,0.725530923621858
"203",8,36,2,1,203,3,2,0,1,0.749017606611517,0.985177966274997
"204",8,24,2,2,204,3,1,0,1,0.908956853968664,1.23788197709929
"205",8,26,2,1,205,3,2,0,1,1.39303355243112,2.00272316066997
"206",8,24,2,1,206,2,1,1,3,0.434174862026252,0.487726429830278
"207",8,18,2,2,207,1,2,1,4,0.4264980020802,0.475596991115516
"208",8,29,2,1,208,3,2,0,1,0.90947100472802,1.23869433529907
"209",8,26,2,2,209,3,2,1,3,0.889718272686289,1.20748501867314
"210",8,40,2,1,210,1,1,1,4,0.496054449349722,0.58549617780136
"211",8,25,2,2,211,1,2,1,5,0.489153105423598,0.574592054398085
"212",8,29,2,2,212,1,2,1,5,0.44367119947944,0.502730643006315
"213",8,36,2,2,213,2,2,1,4,0.646847203008385,0.823748728582049
"214",8,24,2,1,214,1,1,1,5,0.310344862165222,0.29207503004985
"215",8,26,2,1,215,1,1,1,5,0.350085749160311,0.354865631502091
"216",8,24,2,2,216,2,2,1,4,0.688788572894213,0.890016093001656
"217",8,18,2,2,217,3,1,0,1,0.831883791819577,1.11610653890373
"218",8,29,2,2,218,1,2,1,4,0.370232265475411,0.38669712727995
"219",8,26,2,2,219,1,2,1,5,0.44597139465753,0.506364951387697
"220",8,40,2,1,220,3,1,1,2,0.754884870583915,0.994448243351385
"221",8,25,2,1,221,3,2,0,1,0.830134013725719,1.11334188951544
"222",8,29,2,2,222,3,2,1,3,0.792882722055749,1.05448484867688
"223",8,36,2,2,223,2,1,0,2,0.782709486272879,1.03841113613995
"224",8,24,2,1,224,3,2,0,2,0.804243582173378,1.07243500766274
"225",8,26,2,2,225,3,2,1,2,0.648750525323384,0.826755977839747
"226",8,24,2,2,226,3,1,0,2,1.02080584395785,1.4146033812822
"227",8,18,2,2,227,3,1,0,1,1.08794619077527,1.52068512925373
"228",8,29,2,2,228,3,2,1,2,0.883074155591711,1.1969873136637
"229",8,26,2,1,229,1,1,1,4,0.267201373863107,0.223908318532508
"230",8,40,2,2,230,1,2,1,4,0.517153923700359,0.618833347275368
"231",8,25,2,1,231,3,2,0,1,0.455068172775007,0.520737860813312
"232",8,29,2,2,232,3,1,0,2,1.28697939764584,1.83515759610922
"233",8,36,2,2,233,2,1,0,3,0.519746987257192,0.622930387695164
"234",8,24,2,2,234,3,2,1,3,1.17362731134724,1.65606129975744
"235",8,26,2,2,235,2,1,0,2,0.748763001107284,0.984775689578309
"236",8,24,2,2,236,2,2,1,4,0.474182219402259,0.550938054484369
"237",8,18,2,1,237,2,1,1,3,0.606255362385484,0.759613620397865
"238",8,29,2,1,238,1,1,1,5,0.398876476460736,0.431954980636763
"239",8,26,2,1,239,2,2,0,3,0.618727004670933,0.779318815208873
"240",8,40,2,1,240,2,1,1,3,0.699108663874083,0.90632183674985
"241",7,25,1,2,1,1,1,0,3,0.674650458103023,0.583990281955446
"242",7,21,1,2,2,2,1,0,3,0.916274799446267,0.965756741277771
"243",7,22,1,1,3,3,2,0,2,0.0624557059715228,-0.383277426412324
"244",7,38,1,2,4,3,2,1,2,0.689730641844946,0.607816972267684
"245",7,22,1,1,5,2,1,1,3,0.464209125582957,0.251492976573741
"246",7,20,1,1,6,1,1,1,5,0.284664030004402,-0.0321882744403752
"247",7,30,1,1,7,3,1,1,2,0.855944494282443,0.870434859118929
"248",7,23,1,1,8,1,2,0,3,0.623112658175899,0.50256055807059
"249",7,34,1,1,9,3,2,0,1,1.14308313534451,1.324113911997
"250",7,38,1,1,10,2,2,0,3,0.86749416466,0.888683338315469
"251",7,25,1,1,11,2,2,0,2,0.784130290381065,0.756968416954752
"252",7,21,1,2,12,1,2,1,5,0.261133739594462,-0.0693661332880811
"253",7,22,1,2,13,2,2,1,3,0.439994888125023,0.213234481390207
"254",7,38,1,1,14,2,1,1,4,0.399728115725416,0.149612980998826
"255",7,22,1,2,15,1,2,1,5,0.396950046806984,0.145223632107705
"256",7,20,1,2,16,3,2,1,2,0.554418679354026,0.394024071532031
"257",7,30,1,1,17,1,1,1,4,0.424498106377637,0.188749566229335
"258",7,23,1,2,18,1,2,1,5,0.32034541763552,0.0241883180167907
"259",7,34,1,2,19,1,2,1,4,0.333367760246219,0.044763619341696
"260",7,38,1,1,20,1,1,1,5,0.481830844069339,0.279335291782225
"261",7,25,1,1,21,2,1,1,3,0.771287089795918,0.73667616003022
"262",7,21,1,1,22,3,2,0,1,0.761564456725552,0.721314399779041
"263",7,22,1,2,23,3,2,1,2,0.653426120457971,0.550455828476265
"264",7,38,1,2,24,3,1,0,2,0.995083498678059,1.090274486064
"265",7,22,1,2,25,3,2,1,2,0.818692823341687,0.811577219032536
"266",7,20,1,2,26,2,1,0,3,0.946919376458828,1.01417517295762
"267",7,30,1,1,27,1,2,0,4,0.448100321256458,0.226041065737874
"268",7,23,1,2,28,2,1,0,2,0.611252780776858,0.483821951780105
"269",7,34,1,1,29,1,1,1,5,0.327166064690082,0.0349649403629994
"270",7,38,1,2,30,3,1,0,2,0.243958212888956,-0.0965034654827795
"271",7,25,1,2,31,1,2,1,4,0.378579470468459,0.116198121492836
"272",7,21,1,1,32,1,1,1,4,0.390083328825271,0.134374217696598
"273",7,22,1,2,33,2,2,1,3,0.556220715301603,0.396871288329202
"274",7,38,1,2,34,3,1,0,2,1.35495043382481,1.65886424359586
"275",7,22,1,1,35,2,1,1,3,0.420013607935369,0.181664058690553
"276",7,20,1,2,36,1,1,0,4,0.559307967802981,0.40174914728138
"277",7,30,1,1,37,2,2,0,2,0.79898868351116,0.780444678100302
"278",7,23,1,2,38,1,1,0,4,0.665733269855283,0.569901124524017
"279",7,34,1,2,39,1,1,0,4,0.464949646187919,0.252662999129582
"280",7,38,1,2,40,1,2,1,4,0.301217628090768,-0.0060335894639173
"281",7,25,1,2,41,3,2,1,3,0.481867424188238,0.279393088370086
"282",7,21,1,1,42,3,1,1,3,0.631571680126034,0.515925812751804
"283",7,22,1,2,43,1,1,0,3,0.581588000297861,0.43695159862329
"284",7,38,1,2,44,1,1,0,4,0.6781934354922,0.589588186230346
"285",7,22,1,2,45,1,2,1,5,0.466136158759821,0.254537688993187
"286",7,20,1,1,46,2,1,1,3,0.680896128570058,0.593858441293362
"287",7,30,1,2,47,3,2,1,3,1.13031920384238,1.30394690022363
"288",7,23,1,2,48,3,1,0,1,0.331632073766928,0.0420212347044155
"289",7,34,1,2,49,3,1,0,2,0.802556986214027,0.786082596370832
"290",7,38,1,1,50,2,1,1,4,0.732660904280798,0.675646786916331
"291",7,25,1,2,51,2,2,1,3,0.569815442830982,0.418350957825622
"292",7,21,1,2,52,1,2,1,4,0.447117046895566,0.224487492247665
"293",7,22,1,1,53,2,2,0,3,0.766982496920935,0.729874903287747
"294",7,38,1,2,54,3,2,1,2,0.635359375758455,0.521910371851029
"295",7,22,1,2,55,1,1,0,3,0.5222231689731,0.343155165130167
"296",7,20,1,1,56,1,1,1,4,0.405552329986564,0.15881523953144
"297",7,30,1,2,57,1,2,1,5,0.362950215378816,0.0915038984511998
"298",7,23,1,2,58,2,1,0,3,0.600840597358612,0.467370701979276
"299",7,34,1,2,59,2,2,1,3,0.669780585134789,0.576295882665637
"300",7,38,1,1,60,2,2,0,2,0.650495944117157,0.545826149857778
"301",7,25,1,2,61,2,2,1,3,0.47065187066312,0.2616725138004
"302",7,21,1,1,62,1,2,0,3,0.602755315886537,0.470395957253397
"303",7,22,1,2,63,2,1,0,2,0.644218599078207,0.535907944696236
"304",7,38,1,1,64,3,1,1,3,0.724633118956832,0.662962886104465
"305",7,22,1,1,65,2,2,0,2,0.726527818921799,0.665956512049112
"306",7,20,1,1,66,1,1,1,4,0.487249548960601,0.28789684551042
"307",7,30,1,1,67,3,1,1,2,0.441027905685045,0.21486664913504
"308",7,23,1,2,68,3,2,1,2,0.728108957129379,0.668454710417089
"309",7,34,1,1,69,1,1,1,5,0.338055373199081,0.0521700478072185
"310",7,38,1,2,70,1,2,1,5,0.413247615307163,0.170973790337988
"311",7,25,1,1,71,1,1,1,5,0.310339913637503,0.00837962169992412
"312",7,21,1,1,72,3,2,0,1,1.17430250186025,1.37344051109186
"313",7,22,1,2,73,1,2,1,4,0.536911185675625,0.366362231520157
"314",7,38,1,2,74,2,2,1,3,0.578497278461932,0.432068258122523
"315",7,22,1,2,75,2,2,1,3,0.571440921123179,0.420919213527293
"316",7,20,1,1,76,1,1,1,4,0.43119413492136,0.199329291328419
"317",7,30,1,2,77,2,1,0,2,0.656133979858573,0.554734246329214
"318",7,23,1,1,78,1,1,1,4,0.334798425430192,0.0470240703323738
"319",7,34,1,2,79,3,2,1,2,0.776770976406359,0.745340700874716
"320",7,38,1,1,80,2,1,1,3,0.751048551153987,0.704699268975969
"321",7,25,1,1,81,2,2,0,3,0.474077967869436,0.267085747386378
"322",7,21,1,2,82,1,2,1,4,0.242436821229565,-0.0989072643046179
"323",7,22,1,1,83,1,1,1,5,0.533781239265837,0.361416916192693
"324",7,38,1,2,84,1,2,1,5,0.325067415906203,0.0316490752844698
"325",7,22,1,1,85,1,1,1,5,0.316063226797277,0.0174224564923672
"326",7,20,1,2,86,2,1,0,2,1.04530508646229,1.16962459476309
"327",7,30,1,2,87,2,2,1,4,0.4382726225257,0.210513301743276
"328",7,23,1,1,88,3,1,1,2,0.572627658837634,0.422794259116131
"329",7,34,1,2,89,3,2,1,3,0.681595673025845,0.594963721533506
"330",7,38,1,1,90,1,1,1,5,0.354415418799224,0.0780189198554431
"331",7,25,1,2,91,2,1,0,2,0.812400831537665,0.801635871982181
"332",7,21,1,1,92,3,1,1,3,0.686359427792364,0.602490454064605
"333",7,22,1,2,93,3,1,0,2,0.15170333985423,-0.242266164877647
"334",7,38,1,1,94,1,2,0,4,0.575504864012776,0.427340243292856
"335",7,22,1,2,95,1,2,1,5,0.289951030107781,-0.0238348142770363
"336",7,20,1,2,96,3,2,1,3,0.833300312935575,0.834657052590878
"337",7,30,1,2,97,2,2,1,3,0.439216167791632,0.212004103263449
"338",7,23,1,1,98,3,1,1,3,0.742685288965402,0.691485314718004
"339",7,34,1,2,99,2,1,0,3,0.732121887935091,0.674795141090114
"340",7,38,1,2,100,1,2,1,4,0.345714503398856,0.0642714735228628
"341",7,25,1,1,101,1,2,0,3,0.305866668374236,0.00131189418396249
"342",7,21,1,1,102,3,1,1,3,0.628992525535681,0.511850748499045
"343",7,22,1,1,103,3,1,1,2,1.160340144804,1.351379986943
"344",7,38,1,1,104,2,1,1,4,0.577618402370791,0.43067963389852
"345",7,22,1,2,105,3,1,0,1,0.825178938947426,0.821825281689602
"346",7,20,1,2,106,3,2,1,3,0.881115966030917,0.910205784481518
"347",7,30,1,1,107,3,2,0,1,1.1576975838784,1.34720474068054
"348",7,23,1,1,108,1,1,1,5,0.213289473179679,-0.144960074223437
"349",7,34,1,1,109,2,2,0,2,0.804785811677614,0.7896041406033
"350",7,38,1,1,110,3,1,1,2,0.814613937065962,0.805132578716889
"351",7,25,1,1,111,1,1,1,4,0.507021624897344,0.319136725490473
"352",7,21,1,2,112,2,2,1,3,0.719321259817653,0.654570148664561
"353",7,22,1,2,113,3,2,1,2,0.644755431008049,0.536756139145387
"354",7,38,1,1,114,2,2,0,3,0.31536716050409,0.0163226717491322
"355",7,22,1,1,115,1,1,1,4,0.299399410170708,-0.00890637377761133
"356",7,20,1,1,116,2,1,1,4,0.7346051131986,0.678718637006457
"357",7,30,1,1,117,3,2,0,2,0.612609622122194,0.485965761105736
"358",7,23,1,2,118,2,2,1,3,0.735338664340817,0.679877647811161
"359",7,34,1,1,119,2,1,1,3,0.839752251022365,0.844851114768006
"360",7,38,1,1,120,3,1,1,2,0.8560930270758,0.870669540932434
"361",7,25,1,1,121,3,2,0,2,1.33874226884531,1.63325534292825
"362",7,21,1,1,122,1,2,0,3,0.651064628292485,0.546724670854796
"363",7,22,1,1,123,2,1,1,4,0.388180027359731,0.131367001381045
"364",7,38,1,2,124,3,1,0,1,1.15764177067523,1.34711655581953
"365",7,22,1,1,125,2,1,1,4,0.629401029627519,0.512496184964149
"366",7,20,1,2,126,1,2,1,5,0.477276504407721,0.27213943511687
"367",7,30,1,1,127,1,2,0,3,0.546351936927193,0.381278618497635
"368",7,23,1,1,128,2,1,1,3,0.364785447897512,0.0944035658307388
"369",7,34,1,1,129,1,1,1,4,0.454245692988195,0.235750753074018
"370",7,38,1,2,130,2,2,1,3,0.374936684750078,0.110442520057793
"371",7,25,1,2,131,2,2,1,4,0.739834532501929,0.686981119505717
"372",7,21,1,2,132,1,2,1,5,0.380024009707388,0.118480493490342
"373",7,22,1,2,133,3,1,0,1,1.38214467825374,1.70183114979358
"374",7,38,1,2,134,3,1,0,1,1.07047526756401,1.20939348090381
"375",7,22,1,1,135,3,1,1,3,0.512800764313409,0.328267765767857
"376",7,20,1,2,136,2,2,1,4,0.696111386875759,0.617898549416369
"377",7,30,1,1,137,1,1,1,5,0.48968271412239,0.291741246466046
"378",7,23,1,1,138,3,2,0,2,0.987144930095319,1.07773154770327
"379",7,34,1,2,139,3,2,1,2,1.20573078853536,1.42309720403854
"380",7,38,1,1,140,2,2,0,2,0.826040031199273,0.82318580744752
"381",7,25,1,1,141,2,2,0,2,0.748471891108322,0.700628146103819
"382",7,21,1,1,142,3,1,1,2,0.923124806547839,0.976579752498256
"383",7,22,1,2,143,2,1,0,2,0.731387101104778,0.673634177898219
"384",7,38,1,1,144,2,2,0,3,0.83001738672561,0.829470029179133
"385",7,22,1,2,145,2,1,0,2,0.917892124785743,0.968312115314144
"386",7,20,1,1,146,1,1,1,5,0.342805812726156,0.0596757422599966
"387",7,30,1,2,147,3,2,1,2,0.553106343996507,0.391950581667151
"388",7,23,1,2,148,1,2,1,4,0.397798761396958,0.146564601159863
"389",7,34,1,1,149,1,1,1,4,0.467532372394586,0.256743706536115
"390",7,38,1,1,150,1,1,1,5,0.458992494007152,0.24325069868397
"391",7,25,1,1,151,2,2,0,2,0.775673436526688,0.743606587864837
"392",7,21,1,1,152,3,1,1,3,0.777694705932389,0.746800193525845
"393",7,22,1,2,153,2,2,1,3,0.672721930905124,0.580943208982766
"394",7,38,1,2,154,1,2,1,4,0.585794896980498,0.443598495381856
"395",7,22,1,1,155,1,1,1,4,0.310507343858544,0.00864416144916869
"396",7,20,1,1,156,2,2,0,3,0.936188199598686,0.997219913518594
"397",7,30,1,2,157,3,2,1,3,0.551684646815696,0.38970430012147
"398",7,23,1,1,158,2,1,1,3,0.44122143251311,0.215172421523383
"399",7,34,1,2,159,3,2,1,2,0.819517765144173,0.812880627080463
"400",7,38,1,2,160,2,2,1,4,0.523331346602372,0.344906085784417
"401",7,25,1,2,161,3,1,0,2,0.900733816982342,0.94120198898477
"402",7,21,1,1,162,1,1,1,5,0.448456487461028,0.226603808341093
"403",7,22,1,2,163,3,1,0,2,0.80409465496503,0.788512112997418
"404",7,38,1,1,164,1,1,1,4,0.613234288962199,0.486952734712944
"405",7,22,1,2,165,1,2,1,5,0.29764857284194,-0.0116726967570648
"406",7,20,1,1,166,3,2,0,2,1.43366848873477,1.7832387703536
"407",7,30,1,2,167,2,2,1,4,0.576150143780315,0.428359785325567
"408",7,23,1,1,168,3,2,0,1,0.874867983117073,0.900333971477644
"409",7,34,1,1,169,3,2,0,1,1.44163760654005,1.79582997648594
"410",7,38,1,1,170,3,1,1,3,0.908617638291351,0.953658426653005
"411",7,25,1,1,171,1,1,1,5,0.361852744541636,0.0897698945284544
"412",7,21,1,2,172,3,1,0,2,0.424506636540621,0.188763043886852
"413",7,22,1,1,173,2,2,0,3,0.746972245551078,0.698258706123373
"414",7,38,1,2,174,3,1,0,1,0.790907927688731,0.767677083900865
"415",7,22,1,2,175,2,1,0,3,0.847881365329221,0.857695115372839
"416",7,20,1,2,176,2,1,0,2,0.496602464660703,0.30267445231658
"417",7,30,1,2,177,2,1,0,2,0.773872839237303,0.740761644147609
"418",7,23,1,2,178,2,2,1,3,0.561585492595319,0.405347636453274
"419",7,34,1,2,179,2,2,1,4,0.501607077064995,0.310581739915362
"420",7,38,1,1,180,1,1,1,4,0.196522587229628,-0.171451754024518
"421",7,25,1,1,181,3,2,0,2,0.292915676546289,-0.0191506729041929
"422",7,21,1,2,182,1,2,1,5,0.319391525878821,0.022681169041207
"423",7,22,1,1,183,2,1,1,4,0.674367438532311,0.583543111033721
"424",7,38,1,2,184,2,1,0,2,0.936611659043285,0.99788897944106
"425",7,22,1,1,185,1,1,1,4,0.391467539030302,0.136561269820547
"426",7,20,1,2,186,3,1,0,1,1.16006773691083,1.35094958247179
"427",7,30,1,2,187,2,1,0,2,0.654837927010579,0.552686482829385
"428",7,23,1,2,188,1,2,1,4,0.512468749391711,0.327743182191573
"429",7,34,1,1,189,3,2,0,1,0.473272280600756,0.265812761501865
"430",7,38,1,1,190,1,2,0,4,0.606211854036751,0.475857287530736
"431",7,25,1,2,191,2,1,0,3,0.590642534514672,0.451257762685851
"432",7,21,1,2,192,3,2,1,2,0.930677812196044,0.98851350142242
"433",7,22,1,1,193,2,1,1,3,0.682786574822486,0.596845346372197
"434",7,38,1,1,194,3,2,0,1,0.226503703503033,-0.124081590312538
"435",7,22,1,2,195,1,2,1,5,0.365526363755487,0.0955742128863399
"436",7,20,1,1,196,1,1,1,4,0.371480475153065,0.104981708894513
"437",7,30,1,2,197,3,2,1,2,1.12775052231653,1.29988838341279
"438",7,23,1,1,198,2,2,0,2,0.747477862117827,0.699057580298836
"439",7,34,1,2,199,2,2,1,3,0.614723751071252,0.489306084845248
"440",7,38,1,1,200,3,1,1,3,0.725905101322914,0.664972618242875
"441",7,25,1,2,201,3,1,0,1,0.633660479885451,0.519226116371683
"442",7,21,1,1,202,3,1,1,3,0.89629703019587,0.934191865862144
"443",7,22,1,2,203,3,2,1,3,0.748963155813985,0.701404344338766
"444",7,38,1,2,204,1,2,1,4,0.531483923845755,0.357787157828963
"445",7,22,1,1,205,1,2,0,4,0.597655789379961,0.462338705373009
"446",7,20,1,1,206,1,1,1,4,0.488658201554566,0.290122516608884
"447",7,30,1,1,207,2,2,0,3,0.636942200393932,0.524411234775082
"448",7,23,1,1,208,3,1,1,3,0.919457969538909,0.970786150024146
"449",7,34,1,2,209,1,2,1,5,0.516661407787501,0.334367582456921
"450",7,38,1,2,210,2,1,0,2,0.687427969135949,0.604178749387469
"451",7,25,1,1,211,1,1,1,5,0.438656561961984,0.211119926052604
"452",7,21,1,1,212,3,1,1,3,0.968708035275454,1.04860125388789
"453",7,22,1,2,213,3,2,1,3,0.854068094148,0.867470146906509
"454",7,38,1,1,214,1,1,1,5,0.240353673714328,-0.102198637378692
"455",7,22,1,2,215,3,2,1,2,0.792811898323255,0.770685357503412
"456",7,20,1,2,216,1,2,1,5,0.380879146255859,0.119831609236926
"457",7,30,1,1,217,2,2,0,2,0.528734860477335,0.353443637706858
"458",7,23,1,1,218,3,1,1,3,0.890035331775893,0.924298382358581
"459",7,34,1,1,219,2,2,0,3,0.766936624375546,0.729802424666033
"460",7,38,1,1,220,1,2,0,3,0.524197975138216,0.346275358871051
"461",7,25,1,2,221,3,1,0,1,1.110918590716,1.27329393148394
"462",7,21,1,1,222,3,1,1,3,0.749207974389297,0.701791157687759
"463",7,22,1,1,223,3,1,1,3,0.980711778659274,1.06756716843432
"464",7,38,1,2,224,2,1,0,2,0.59429059490441,0.457021698101637
"465",7,22,1,1,225,3,2,0,2,1.77343222443418,2.32006547275868
"466",7,20,1,2,226,2,1,0,3,0.556373821493325,0.397113196112123
"467",7,30,1,2,227,2,2,1,3,0.623012189471347,0.502401817517398
"468",7,23,1,1,228,2,1,1,3,0.529006470706386,0.35387278186876
"469",7,34,1,2,229,2,1,0,2,0.610013791861983,0.481864349294603
"470",7,38,1,1,230,2,1,1,3,0.696851548495721,0.619068004775908
"471",7,25,1,2,231,1,2,1,5,0.283877817149879,-0.0334304907505213
"472",7,21,1,1,232,1,1,1,4,0.449122940126095,0.2276568035519
"473",7,22,1,1,233,3,1,1,2,0.476340633596247,0.27066075923474
"474",7,38,1,2,234,3,2,1,3,0.725864474885561,0.664908428471856
"475",7,22,1,2,235,2,2,1,4,0.586347895398427,0.444472232882184
"476",7,20,1,2,236,1,2,1,4,0.22263760367082,-0.130190028047435
"477",7,30,1,1,237,1,1,1,4,0.428478470369383,0.195038541336295
"478",7,23,1,2,238,3,2,1,3,0.623948149865029,0.503880634939416
"479",7,34,1,2,239,1,1,0,3,0.603691098841103,0.471874494321612
"480",7,38,1,1,240,3,2,0,1,1.13581379160399,1.31262834888697
"481",6,33,2,1,1,3,1,1,3,1.03824039679244,2.07812130543727
"482",6,27,2,1,2,1,1,1,5,0.349931701345092,0.990593566630453
"483",6,18,2,2,3,1,2,1,4,0.299125265587015,0.910319398132691
"484",6,37,2,1,4,2,1,1,4,0.776161733023447,1.66403701668225
"485",6,31,2,2,5,1,2,1,5,0.290418058261035,0.896562010557643
"486",6,21,2,2,6,2,1,0,2,0.6504007374516,1.46533464367874
"487",6,38,2,1,7,2,2,0,2,0.627808517082233,1.42963893549514
"488",6,35,2,2,8,2,1,0,3,0.766796372384394,1.64923974687255
"489",6,38,2,1,9,3,2,0,2,0.995625823377756,2.01079027944206
"490",6,34,2,2,10,2,1,0,2,0.621866409004176,1.42025040473181
"491",6,33,2,2,11,2,2,1,3,0.549378812924114,1.30572000292531
"492",6,27,2,2,12,3,2,1,2,0.997157027098263,2.01320958132046
"493",6,18,2,2,13,2,2,1,3,0.461695967552611,1.16718110723833
"494",6,37,2,1,14,2,1,1,4,0.584360107268247,1.36099044798904
"495",6,31,2,2,15,3,1,0,1,0.618288381579448,1.41459712140074
"496",6,21,2,1,16,1,1,1,4,0.231353660564811,0.80324026219761
"497",6,38,2,1,17,2,2,0,3,0.458945828838854,1.1628358880706
"498",6,35,2,1,18,3,2,0,2,1.44946236398301,2.72785201359837
"499",6,38,2,2,19,3,1,0,1,0.657187823116472,1.47605823902923
"500",6,34,2,2,20,1,2,1,5,0.4815217878756,1.19850590334866
"501",6,33,2,1,21,2,2,0,2,0.638837135420905,1.44706415247024
"502",6,27,2,2,22,1,2,1,5,0.41239216485885,1.08928109898219
"503",6,18,2,1,23,2,2,0,3,0.832181525553572,1.75254828887985
"504",6,37,2,1,24,2,2,0,2,1.00923526992783,2.03229320499117
"505",6,31,2,2,25,2,2,1,3,0.582797450187622,1.35852144980165
"506",6,21,2,1,26,2,2,0,3,0.666012481759335,1.49000119968496
"507",6,38,2,2,27,3,1,0,2,0.633155392625956,1.43808699885422
"508",6,35,2,1,28,2,1,1,4,0.69198254080852,1.53103389298267
"509",6,38,2,2,29,2,2,1,4,0.480062623800568,1.19620042411011
"510",6,34,2,1,30,3,1,1,3,0.93484498034414,1.91475654744895
"511",6,33,2,2,31,3,2,1,3,0.990357638829902,2.00246654785645
"512",6,27,2,2,32,1,2,1,5,0.353269091816329,0.995866643575007
"513",6,18,2,1,33,3,1,1,3,0.736678127187188,1.60165291946096
"514",6,37,2,2,34,3,2,1,3,1.1228518563864,2.21180741159572
"515",6,31,2,2,35,1,2,1,4,0.539191112810538,1.28962343674586
"516",6,21,2,2,36,1,2,1,4,0.253242186257427,0.837824132791942
"517",6,38,2,2,37,2,1,0,2,0.630695893949033,1.43420099094468
"518",6,35,2,1,38,3,1,1,2,0.937247040574658,1.91855180261317
"519",6,38,2,2,39,3,2,1,2,0.889576788119703,1.84323280373434
"520",6,34,2,2,40,1,2,1,4,0.501043844418538,1.2293507526865
"521",6,33,2,1,41,3,1,1,2,0.649822579629056,1.46442115431912
"522",6,27,2,2,42,3,2,1,3,1.07881237415338,2.14222502966755
"523",6,18,2,1,43,2,1,1,4,0.911332880671903,1.87760742996681
"524",6,37,2,2,44,2,2,1,4,0.659858816094364,1.4802784079343
"525",6,31,2,1,45,2,2,0,2,0.77499669458995,1.66219625595733
"526",6,21,2,1,46,1,1,1,4,0.393186065291051,1.05893546166507
"527",6,38,2,2,47,3,2,1,3,0.927339781327421,1.90289833300253
"528",6,35,2,2,48,2,2,1,3,0.608425325799533,1.39901349326847
"529",6,38,2,2,49,1,1,0,3,0.538995332602547,1.28931410401723
"530",6,34,2,2,50,2,1,0,2,0.409029664241605,1.08396834800694
"531",6,33,2,2,51,1,2,1,5,0.388983271178758,1.05229504696764
"532",6,27,2,1,52,1,1,1,5,0.444918700838451,1.14067302582996
"533",6,18,2,1,53,3,2,0,2,1.20545085587611,2.34231383078947
"534",6,37,2,2,54,2,1,0,3,0.54526113418241,1.29921407051342
"535",6,31,2,2,55,3,2,1,3,0.450778661252667,1.14993176328442
"536",6,21,2,2,56,3,1,0,1,0.465365164103059,1.17297843778804
"537",6,38,2,2,57,2,2,1,3,0.583187822553,1.35913823813895
"538",6,35,2,1,58,3,2,0,1,0.556139780828632,1.31640233221445
"539",6,38,2,2,59,3,2,1,2,0.469657803139499,1.17976080746562
"540",6,34,2,1,60,1,1,1,4,0.44842055771046,1.14620595968773
"541",6,33,2,2,61,2,2,1,4,0.584656346129393,1.36145850538965
"542",6,27,2,1,62,1,2,0,4,0.709068274247987,1.55802935181703
"543",6,18,2,2,63,2,2,1,3,0.505298028107118,1.23607236291445
"544",6,37,2,1,64,1,1,1,4,0.379060582154364,1.0366171983091
"545",6,31,2,2,65,3,1,0,2,0.800299475355103,1.70217464956627
"546",6,21,2,2,66,1,2,1,4,0.423135206186609,1.10625510428005
"547",6,38,2,2,67,3,1,0,2,0.823807036126807,1.73931659558556
"548",6,35,2,1,68,1,1,1,5,0.467988863705388,1.17712388315972
"549",6,38,2,1,69,2,2,0,3,0.63907970938211,1.44744741932894
"550",6,34,2,2,70,3,1,0,1,1.25693464128644,2.42365821173778
"551",6,33,2,2,71,3,2,1,2,1.15702412410349,2.26579959458872
"552",6,27,2,1,72,3,1,1,3,0.666471712150941,1.4907267837037
"553",6,18,2,2,73,2,2,1,3,0.806674422412019,1.7122470659162
"554",6,37,2,1,74,1,1,1,4,0.505809253081548,1.23688009837405
"555",6,31,2,1,75,1,2,0,3,0.443060768727824,1.13773749309517
"556",6,21,2,2,76,1,2,1,5,0.496552547884305,1.22225450416241
"557",6,38,2,2,77,2,1,0,3,0.668160997384419,1.49339585437259
"558",6,35,2,2,78,2,1,0,3,0.443170779754518,1.13791131051735
"559",6,38,2,2,79,2,2,1,3,0.593440421266239,1.37533734410587
"560",6,34,2,2,80,3,1,0,1,1.31523444684973,2.51577190452778
"561",6,33,2,1,81,1,2,0,4,0.582431502671152,1.35794325272563
"562",6,27,2,1,82,1,2,0,3,0.63744221427708,1.44486017706299
"563",6,18,2,1,83,1,1,1,4,0.485369656688211,1.20458553607258
"564",6,37,2,1,84,3,1,1,2,0.85011707555027,1.78088645787463
"565",6,31,2,1,85,2,2,0,3,0.781171324912079,1.67195217186629
"566",6,21,2,2,86,1,2,1,4,0.445729573240984,1.14195420422596
"567",6,38,2,2,87,1,2,1,5,0.37117800006891,1.02416271861409
"568",6,35,2,2,88,3,1,0,2,0.960856287625555,1.95585441295358
"569",6,38,2,2,89,3,1,0,1,0.292780639073467,0.900294888241286
"570",6,34,2,2,90,3,1,0,2,1.188282266727,2.31518745993387
"571",6,33,2,1,91,3,1,1,2,1.08213849017359,2.14748029297948
"572",6,27,2,1,92,2,2,0,3,0.733543889199399,1.59670082344026
"573",6,18,2,1,93,1,1,1,4,0.350094413818698,0.99085065233875
"574",6,37,2,1,94,3,1,1,3,0.843284367095503,1.7700907785161
"575",6,31,2,2,95,3,1,0,1,0.981898250625864,1.98910071449407
"576",6,21,2,2,96,3,1,0,2,1.09727924361732,2.17140268342057
"577",6,38,2,1,97,1,1,1,4,0.365537056901511,1.0152500284096
"578",6,35,2,1,98,1,1,1,5,0.489617762401573,1.21129754309969
"579",6,38,2,2,99,1,2,1,5,0.359775134475616,1.00614619097668
"580",6,34,2,1,100,1,2,0,3,0.561109296111588,1.32425416636152
"581",6,33,2,1,101,3,1,1,3,0.47221238079325,1.18379704015854
"582",6,27,2,1,102,2,2,0,2,0.672338738345904,1.49999668509174
"583",6,18,2,2,103,3,1,0,2,1.20079600306021,2.33495916334034
"584",6,37,2,2,104,1,2,1,4,0.543315116450589,1.29613936249714
"585",6,31,2,2,105,2,2,1,4,0.577420393553489,1.35002570031972
"586",6,21,2,2,106,2,2,1,4,0.635798677832187,1.44226338948006
"587",6,38,2,1,107,1,1,1,4,0.417069746159717,1.09667167743756
"588",6,35,2,2,108,1,1,0,3,0.561639400455706,1.32509173122522
"589",6,38,2,1,109,2,2,0,2,0.729348259417464,1.5900717283848
"590",6,34,2,2,110,3,1,0,1,0.714177483253376,1.56610190204554
"591",6,33,2,1,111,2,1,1,3,0.44788726548984,1.14536335797915
"592",6,27,2,1,112,2,1,1,4,0.673418164440661,1.50170217832145
"593",6,18,2,1,113,3,2,0,1,1.64934168372303,3.04366133878759
"594",6,37,2,1,114,3,1,1,3,0.392204866285938,1.05738516723699
"595",6,31,2,2,115,3,2,1,3,0.858940794707269,1.79482793414269
"596",6,21,2,2,116,2,1,0,2,0.696438966985921,1.53807504634296
"597",6,38,2,1,117,1,1,1,4,0.293274487513971,0.901075168777282
"598",6,35,2,2,118,3,2,1,3,0.545859006619132,1.30015870896344
"599",6,38,2,1,119,3,2,0,1,1.12127677747221,2.2093187869113
"600",6,34,2,1,120,3,1,1,3,0.425511187682777,1.11000915504399
"601",6,33,2,1,121,2,1,1,3,0.710928132730733,1.56096792821977
"602",6,27,2,1,122,2,1,1,4,0.475165878690085,1.18846356683554
"603",6,18,2,1,123,3,2,0,2,1.48735228163522,2.78771808348885
"604",6,37,2,1,124,1,1,1,4,0.356896118082042,1.00159734507483
"605",6,31,2,2,125,2,1,0,3,0.723386031472775,1.58065140823219
"606",6,21,2,1,126,2,1,1,4,0.418143895224357,1.09836883295969
"607",6,38,2,1,127,1,1,1,5,0.360512865851039,1.00731180654985
"608",6,35,2,1,128,1,1,1,4,0.55933819738095,1.32145583036711
"609",6,38,2,1,129,2,2,0,2,0.684704246692626,1.51953418827956
"610",6,34,2,1,130,1,1,1,4,0.316824604930207,0.938284354294935
"611",6,33,2,1,131,2,1,1,4,0.761261835021647,1.64049517783941
"612",6,27,2,2,132,1,2,1,4,0.386266343777847,1.04800230167421
"613",6,18,2,2,133,1,2,1,4,0.366843375787272,1.0173140122491
"614",6,37,2,2,134,1,2,1,5,0.354114796671236,0.997202857245761
"615",6,31,2,2,135,3,2,1,3,0.498679118741025,1.22561448611603
"616",6,21,2,1,136,2,1,1,4,0.661751995290277,1.48326963106384
"617",6,38,2,1,137,3,2,0,2,0.879192271758916,1.8268252678843
"618",6,35,2,2,138,1,2,1,5,0.422699820887377,1.10556719550726
"619",6,38,2,1,139,1,1,1,5,0.433099859289096,1.12199925618198
"620",6,34,2,1,140,2,2,0,2,0.882790134872455,1.83250989160369
"621",6,33,2,1,141,2,2,0,2,0.869760265231231,1.81192269757055
"622",6,27,2,2,142,2,2,1,4,0.866527472973808,1.80681488580382
"623",6,18,2,2,143,3,1,0,1,0.16058712511662,0.691429136189467
"624",6,37,2,2,144,3,2,1,2,0.678513293068906,1.50975248155408
"625",6,31,2,2,145,2,1,0,3,0.159429622997681,0.689600282841544
"626",6,21,2,1,146,1,1,1,5,0.376815976206802,1.03307072091196
"627",6,38,2,2,147,1,2,1,5,0.350137006869499,0.990917949359017
"628",6,35,2,1,148,3,1,1,3,0.754067211469087,1.62912767262637
"629",6,38,2,2,149,3,1,0,2,0.676671860034727,1.50684301736008
"630",6,34,2,2,150,1,2,1,4,0.432303153247797,1.12074046063673
"631",6,33,2,1,151,1,1,1,5,0.453013793087476,1.15346327158342
"632",6,27,2,1,152,3,2,0,1,0.944019554973171,1.92925237536282
"633",6,18,2,2,153,1,1,0,3,0.423208963921113,1.10637164150057
"634",6,37,2,1,154,2,1,1,4,0.780763784000444,1.67130825722591
"635",6,31,2,2,155,2,1,0,2,0.581324685228717,1.35619448116658
"636",6,21,2,1,156,2,1,1,4,0.507668674795024,1.23981798468135
"637",6,38,2,1,157,1,1,1,5,0.439027595431222,1.13136507928654
"638",6,35,2,2,158,3,2,1,3,0.864302446421781,1.80329934385162
"639",6,38,2,2,159,2,1,0,3,0.8107378615465,1.71866729974868
"640",6,34,2,2,160,2,1,0,2,0.691137311925585,1.52969843134763
"641",6,33,2,2,161,3,2,1,3,0.7996202052556,1.70110140280906
"642",6,27,2,1,162,1,1,1,4,0.417680672509649,1.09763694107045
"643",6,18,2,2,163,3,2,1,3,0.975698257955844,1.97930472607544
"644",6,37,2,2,164,2,1,0,3,0.798244795832979,1.69892825592132
"645",6,31,2,1,165,1,1,1,5,0.329603463741773,0.95847495121721
"646",6,21,2,2,166,3,1,0,2,0.712793678875002,1.56391549112771
"647",6,38,2,1,167,1,1,1,5,0.414349965064145,1.09237442330656
"648",6,35,2,1,168,1,1,1,4,0.312768518418006,0.931875737605657
"649",6,38,2,2,169,3,1,0,1,0.732827019966061,1.59556817005158
"650",6,34,2,1,170,1,2,0,4,0.467298630312516,1.17603331439898
"651",6,33,2,1,171,3,2,0,1,0.67576913295173,1.50541670856894
"652",6,27,2,2,172,2,2,1,3,0.617470284522803,1.41330452805124
"653",6,18,2,1,173,1,1,1,4,0.343008015558071,0.97965414308696
"654",6,37,2,2,174,1,2,1,4,0.391116863916972,1.05566612349402
"655",6,31,2,1,175,2,2,0,2,0.658629316205074,1.47833579810923
"656",6,21,2,1,176,2,1,1,4,0.59524472588983,1.37818814541114
"657",6,38,2,2,177,3,2,1,3,1.05207526809425,2.09998040209413
"658",6,35,2,1,178,2,1,1,3,0.532528754446279,1.27909691053033
"659",6,38,2,1,179,1,2,0,4,0.514637992491172,1.25082950664126
"660",6,34,2,2,180,2,2,1,3,0.746093684418643,1.61652949988666
"661",6,33,2,2,181,2,1,0,3,0.604944374094875,1.39351358957511
"662",6,27,2,2,182,1,2,1,5,0.495908919298338,1.22123757099658
"663",6,18,2,1,183,1,1,1,5,0.327364659752822,0.954937640914666
"664",6,37,2,2,184,1,2,1,5,0.43683630015368,1.12790283274802
"665",6,31,2,1,185,3,2,0,1,1.2187755286342,2.36336681374724
"666",6,21,2,2,186,2,2,1,3,0.403893981707733,1.07585396960343
"667",6,38,2,1,187,2,1,1,4,0.566294647356747,1.33244702132887
"668",6,35,2,1,188,2,1,1,3,0.638443845338112,1.44644275413942
"669",6,38,2,1,189,2,2,0,3,0.711951467508976,1.56258479716939
"670",6,34,2,1,190,2,1,1,4,0.546289590773656,1.30083903192758
"671",6,33,2,1,191,3,1,1,2,0.972125137675919,1.97365919603316
"672",6,27,2,2,192,1,2,1,4,0.460554252624795,1.16537719765238
"673",6,18,2,2,193,3,1,0,1,1.00710841131838,2.02893276838825
"674",6,37,2,2,194,3,2,1,3,0.930263695594861,1.90751811754509
"675",6,31,2,2,195,2,1,0,3,0.658632621297003,1.47834102015447
"676",6,21,2,1,196,3,1,1,3,0.810840047859052,1.71882875412251
"677",6,38,2,2,197,3,2,1,2,0.844188328203684,1.77151903706703
"678",6,35,2,1,198,1,1,1,5,0.416744530722904,1.0961578370474
"679",6,38,2,2,199,2,2,1,3,0.42030142360304,1.10177772779801
"680",6,34,2,1,200,1,1,1,4,0.353316318298955,0.995941261417557
"681",6,33,2,1,201,2,1,1,3,0.506638009972306,1.23818953426145
"682",6,27,2,1,202,2,2,0,2,0.739870449039718,1.60669678798796
"683",6,18,2,1,203,1,1,1,5,0.405176977087846,1.077881102304
"684",6,37,2,1,204,3,2,0,2,1.28473204648538,2.46757811195211
"685",6,31,2,2,205,1,1,0,4,0.446024350459496,1.14241995223121
"686",6,21,2,1,206,3,2,0,2,0.273218897857104,0.869387337119433
"687",6,38,2,2,207,1,2,1,5,0.377755642042531,1.03455539293241
"688",6,35,2,1,208,2,1,1,4,0.594521695088792,1.3770457567455
"689",6,38,2,1,209,3,2,0,1,0.375980841692928,1.03175120838003
"690",6,34,2,2,210,1,2,1,4,0.463082377450251,1.1693716348766
"691",6,33,2,2,211,1,2,1,5,0.40802644008315,1.08238325383659
"692",6,27,2,1,212,3,1,1,2,1.21608199578592,2.35911103184696
"693",6,18,2,2,213,1,2,1,5,0.457668872477503,1.16081829701966
"694",6,37,2,2,214,2,2,1,3,0.844614287964925,1.77219205348979
"695",6,31,2,1,215,3,2,0,1,1.02171116240491,2.05200511510496
"696",6,21,2,1,216,2,1,1,4,0.554455144239287,1.31374060640328
"697",6,38,2,2,217,2,2,1,3,0.482985670376132,1.2008188376995
"698",6,35,2,2,218,3,2,1,2,0.723619326403066,1.58102001422205
"699",6,38,2,2,219,2,2,1,3,0.419324944084236,1.1002348901583
"700",6,34,2,2,220,2,2,1,3,0.555836192249387,1.31592266225924
"701",6,33,2,1,221,1,1,1,5,0.347693813110601,0.987057703219957
"702",6,27,2,1,222,1,1,1,5,0.340544436616311,0.97576168835898
"703",6,18,2,1,223,3,2,0,1,1.46010831993494,2.74467262400242
"704",6,37,2,2,224,3,2,1,3,0.847831542264908,1.77727531528376
"705",6,31,2,1,225,3,2,0,1,1.04821612890547,2.09388296217586
"706",6,21,2,1,226,1,1,1,4,0.448365496174411,1.14611896246078
"707",6,38,2,1,227,1,1,1,4,0.425494362147744,1.10998257069864
"708",6,35,2,2,228,2,1,0,3,0.875061731126681,1.82029901368536
"709",6,38,2,2,229,3,1,0,2,0.842150621754288,1.76829946087698
"710",6,34,2,2,230,3,2,1,3,0.485809799193683,1.20528096123123
"711",6,33,2,1,231,1,2,0,4,0.587274048032101,1.36559447439593
"712",6,27,2,2,232,3,2,1,2,0.661329198949467,1.48260161284537
"713",6,18,2,1,233,3,2,0,2,1.62121830900062,2.99922640672618
"714",6,37,2,2,234,3,1,0,1,0.968122001596814,1.96733424102817
"715",6,31,2,2,235,1,2,1,5,0.280825336069487,0.881405509494998
"716",6,21,2,1,236,1,2,0,4,0.669112226199599,1.49489879590057
"717",6,38,2,2,237,1,2,1,5,0.426998778348062,1.11235954829514
"718",6,35,2,1,238,2,2,0,3,0.51912187917926,1.25791404760844
"719",6,38,2,1,239,3,2,0,1,0.848783072913074,1.77877873370787
"720",6,34,2,1,240,1,1,1,5,0.327115124057836,0.954543374516588
"721",5,31,1,2,1,2,1,0,3,0.453007417594605,-0.392044964280364
"722",5,32,1,2,2,2,2,1,4,0.615512037120161,-0.135287665429986
"723",5,24,1,2,3,2,2,1,4,0.468516044606558,-0.367541333601478
"724",5,37,1,2,4,2,2,1,4,0.716352792584234,0.0240407282032491
"725",5,19,1,2,5,1,2,1,5,0.3031626253707,-0.628799735994134
"726",5,38,1,2,6,1,1,0,4,0.62924232300726,-0.11359381372837
"727",5,33,1,2,7,3,1,0,2,0.683713614819782,-0.0275291726645848
"728",5,24,1,1,8,3,1,1,3,0.880394505735528,0.283226634982294
"729",5,30,1,2,9,2,2,1,3,0.291179663727054,-0.647732815391094
"730",5,37,1,2,10,2,2,1,3,0.75183648500899,0.0801049622343637
"731",5,31,1,2,11,2,2,1,3,0.586922851132247,-0.18045857929089
"732",5,32,1,1,12,1,2,0,3,0.499462199661743,-0.318646408614287
"733",5,24,1,2,13,1,2,1,5,0.272532660256892,-0.67719508087395
"734",5,37,1,2,14,3,2,1,3,0.678454917517359,-0.0358379144024129
"735",5,19,1,1,15,3,1,1,2,0.793432244769265,0.145826262655599
"736",5,38,1,1,16,3,1,1,3,0.665894281908457,-0.0556837186644782
"737",5,33,1,2,17,3,2,1,3,0.914683491375875,0.337403232294043
"738",5,24,1,1,18,3,1,1,2,0.248789931659605,-0.714708592057664
"739",5,30,1,2,19,1,2,1,5,0.534101290565317,-0.263916644986639
"740",5,37,1,2,20,2,1,0,2,0.683320667764236,-0.0281500290123464
"741",5,31,1,2,21,3,2,1,3,1.06252199138265,0.570988062304748
"742",5,32,1,2,22,1,2,1,5,0.488267218480129,-0.336334478881236
"743",5,24,1,2,23,1,2,1,5,0.504203982930992,-0.311154391048873
"744",5,37,1,1,24,1,1,1,5,0.29780285238023,-0.637268177319077
"745",5,19,1,2,25,1,2,1,5,0.246474627136455,-0.718366773204241
"746",5,38,1,1,26,1,2,0,4,0.296127483224334,-0.639915260585392
"747",5,33,1,1,27,3,1,1,3,0.710277257330969,0.0144413825030912
"748",5,24,1,1,28,1,1,1,4,0.402578892662655,-0.471722033672846
"749",5,30,1,1,29,1,2,0,4,0.661649185982652,-0.0623909702272499
"750",5,37,1,2,30,2,2,1,3,0.57060489864789,-0.206240944216173
"751",5,31,1,1,31,3,2,0,1,1.64605947883202,1.49297729247476
"752",5,32,1,2,32,1,2,1,4,0.318330068950833,-0.604835175137523
"753",5,24,1,1,33,3,1,1,3,0.695929166204405,-0.00822860147687965
"754",5,37,1,1,34,2,1,1,4,0.498490852591887,-0.320181136984658
"755",5,19,1,2,35,2,2,1,3,0.507693011442929,-0.305641726000011
"756",5,38,1,1,36,2,2,0,2,0.567345212493142,-0.211391248340675
"757",5,33,1,1,37,3,1,1,2,1.19564791058239,0.78132701464034
"758",5,24,1,2,38,1,1,0,3,0.476580995122917,-0.354798711785631
"759",5,30,1,2,39,1,2,1,5,0.410199788332385,-0.459681018514672
"760",5,37,1,1,40,3,1,1,3,0.902665827002397,0.318415322583947
"761",5,31,1,1,41,2,1,1,3,0.792103871046817,0.143727432174131
"762",5,32,1,2,42,3,1,0,1,0.703607023290633,0.00390241271936087
"763",5,24,1,2,43,2,2,1,3,0.518902938816934,-0.287930040749084
"764",5,37,1,2,44,2,1,0,2,0.602635540643482,-0.155632529863138
"765",5,19,1,2,45,3,1,0,2,0.893482777213326,0.303906103917215
"766",5,38,1,1,46,1,1,1,4,0.243446190488541,-0.723151703107945
"767",5,33,1,2,47,2,2,1,4,0.576527617699607,-0.19688304811446
"768",5,24,1,1,48,3,1,1,2,0.788623682320221,0.138228733986109
"769",5,30,1,2,49,2,2,1,4,0.602124765413162,-0.156439554727044
"770",5,37,1,1,50,1,1,1,5,0.276231423708257,-0.671351034620794
"771",5,31,1,2,51,2,2,1,3,0.745451670606446,0.0700169554783454
"772",5,32,1,2,52,3,2,1,2,0.873351830472918,0.27209920806737
"773",5,24,1,1,53,3,2,0,1,1.33765652533451,1.00570062594869
"774",5,37,1,2,54,3,2,1,3,0.941288282416913,0.379438802138882
"775",5,19,1,2,55,1,2,1,4,0.510607751715549,-0.301036436369273
"776",5,38,1,2,56,2,1,0,2,0.89485223999122,0.306069855106288
"777",5,33,1,2,57,3,2,1,2,1.08778281149666,0.610900158084882
"778",5,24,1,2,58,3,1,0,2,1.05012319100503,0.551397957708107
"779",5,30,1,1,59,3,1,1,3,0.639553204221574,-0.0973026214097533
"780",5,37,1,2,60,1,2,1,4,0.500051104916561,-0.317715938311673
"781",5,31,1,1,61,1,1,1,4,0.517701137838306,-0.289828886295317
"782",5,32,1,2,62,2,2,1,3,0.560922187842661,-0.221539627288435
"783",5,24,1,2,63,1,2,1,5,0.381695899554554,-0.504717162783645
"784",5,37,1,1,64,2,1,1,4,0.75657475747406,0.087591432729175
"785",5,19,1,2,65,1,2,1,4,0.372026061578258,-0.519995506786193
"786",5,38,1,2,66,1,2,1,5,0.38586464893245,-0.498130538766569
"787",5,33,1,1,67,2,1,1,4,0.540831546895048,-0.253282839985663
"788",5,24,1,2,68,3,1,0,1,1.23558030507569,0.844420197939756
"789",5,30,1,1,69,3,1,1,3,0.846245034408336,0.229270470285332
"790",5,37,1,1,70,3,2,0,2,0.606703586388162,-0.149205017586544
"791",5,31,1,1,71,3,1,1,3,0.957752078036014,0.405451599217062
"792",5,32,1,2,72,2,1,0,2,0.777976324799986,0.121405909104138
"793",5,24,1,1,73,1,1,1,5,0.447149211916497,-0.401300929251775
"794",5,37,1,1,74,3,2,0,2,1.52817269543202,1.30671617470275
"795",5,19,1,1,75,3,1,1,2,0.57799849231002,-0.194559066230008
"796",5,38,1,1,76,1,1,1,4,0.300855775459977,-0.632444558853076
"797",5,33,1,2,77,3,2,1,2,0.724017539384578,0.0361510281477941
"798",5,24,1,1,78,1,1,1,5,0.329470688910858,-0.587232995600684
"799",5,30,1,2,79,1,1,0,4,0.594172509966116,-0.169004118333377
"800",5,37,1,1,80,2,2,0,3,0.703511634149873,0.0037516978769595
"801",5,31,1,2,81,1,2,1,5,0.432630249805049,-0.424240889387863
"802",5,32,1,1,82,3,2,0,1,1.21218983819761,0.807463260272378
"803",5,24,1,1,83,2,2,0,2,0.746308299861437,0.0713704297012309
"804",5,37,1,2,84,3,1,0,1,0.983889764422634,0.446749143707921
"805",5,19,1,2,85,2,2,1,3,0.689711364268613,-0.0180527285354306
"806",5,38,1,1,86,1,1,1,5,0.43898337688891,-0.414202948595362
"807",5,33,1,1,87,2,2,0,3,0.562076273174443,-0.21971617246422
"808",5,24,1,2,88,3,2,1,3,0.580519259336781,-0.190576254327726
"809",5,30,1,1,89,2,1,1,4,0.401209720603638,-0.473885325526092
"810",5,37,1,1,90,2,1,1,3,0.748258499462617,0.0744517450710944
"811",5,31,1,1,91,2,2,0,2,0.698514866876269,-0.00414319441533428
"812",5,32,1,1,92,2,2,0,3,0.798811058665075,0.154324788610978
"813",5,24,1,1,93,3,1,1,3,0.973068612901538,0.429651724304591
"814",5,37,1,2,94,3,2,1,3,0.697694769085012,-0.0054389489255201
"815",5,19,1,2,95,1,2,1,4,0.353199763777235,-0.549741057311809
"816",5,38,1,2,96,3,1,0,1,1.12956988410326,0.676923732803311
"817",5,33,1,1,97,1,1,1,4,0.527892091900163,-0.273727178877583
"818",5,24,1,1,98,1,1,1,4,0.398260059693893,-0.478545789763488
"819",5,30,1,1,99,1,2,0,3,0.512697042672339,-0.297735356657545
"820",5,37,1,1,100,3,1,1,2,0.681973834143873,-0.0302780261325203
"821",5,31,1,1,101,1,1,1,4,0.534463264927475,-0.26334472549443
"822",5,32,1,1,102,2,2,0,3,1.00733659732623,0.483795139695611
"823",5,24,1,2,103,1,2,1,4,0.272320733319638,-0.677529925434812
"824",5,37,1,2,104,1,2,1,4,0.504845030133099,-0.310141536469543
"825",5,19,1,2,105,1,2,1,5,0.376931037296066,-0.512245645152055
"826",5,38,1,1,106,3,1,1,3,0.811993908949612,0.175153692060548
"827",5,33,1,1,107,2,1,1,4,0.737391652303238,0.0572821265592758
"828",5,24,1,1,108,3,2,0,2,1.39649278484908,1.0986619159817
"829",5,30,1,1,109,1,1,1,5,0.299298995612781,-0.634904271011646
"830",5,37,1,2,110,1,2,1,5,0.479075175922228,-0.35085790612272
"831",5,31,1,2,111,3,2,1,3,0.720929756702798,0.0312723315105813
"832",5,32,1,1,112,2,1,1,4,0.526957129481977,-0.275204419498317
"833",5,24,1,2,113,2,2,1,4,0.515699251626578,-0.292991866509847
"834",5,37,1,2,114,1,1,0,4,0.454829321701694,-0.389166355791163
"835",5,19,1,2,115,1,2,1,4,0.306307756026748,-0.623830429557578
"836",5,38,1,1,116,2,2,0,2,0.818298772420395,0.185115376344384
"837",5,33,1,1,117,2,1,1,3,0.601256261074197,-0.157811791582609
"838",5,24,1,1,118,2,2,0,2,0.486916883373757,-0.338468008349304
"839",5,30,1,2,119,2,1,0,3,0.835124463630216,0.211699968455901
"840",5,37,1,2,120,3,1,0,2,1.01694029240889,0.498968977926209
"841",5,31,1,1,121,2,2,0,3,0.521906726134632,-0.283184056787122
"842",5,32,1,2,122,1,2,1,5,0.441098396791266,-0.410861217149639
"843",5,24,1,2,123,2,1,0,2,0.968293429978257,0.422106935285807
"844",5,37,1,2,124,1,1,0,4,0.652613922366401,-0.0766666867409258
"845",5,19,1,2,125,1,2,1,4,0.593855482368004,-0.169505021938394
"846",5,38,1,1,126,2,1,1,4,0.369518319616391,-0.523957739085942
"847",5,33,1,1,127,3,1,1,3,0.734552121475569,0.0527956678515586
"848",5,24,1,1,128,3,1,1,3,1.06563168395482,0.57590137656878
"849",5,30,1,1,129,3,2,0,2,0.97091526694006,0.426249437685455
"850",5,37,1,1,130,3,2,0,1,0.553907388894931,-0.23262300962585
"851",5,31,1,2,131,2,2,1,3,0.589687277741711,-0.176090785247937
"852",5,32,1,2,132,2,1,0,2,0.662948899893924,-0.0603374222474407
"853",5,24,1,2,133,2,2,1,3,0.707166320356499,0.00952610208342775
"854",5,37,1,2,134,1,2,1,4,0.487696609222044,-0.33723604150901
"855",5,19,1,2,135,3,2,1,2,0.682759464516478,-0.029036730143804
"856",5,38,1,2,136,3,1,0,2,1.33275836589485,0.997961534034017
"857",5,33,1,1,137,2,1,1,4,0.585808058583846,-0.182219951517363
"858",5,24,1,2,138,3,2,1,2,0.658259748843853,-0.0677462809065519
"859",5,30,1,1,139,3,1,1,2,0.66981835000772,-0.0494836910676424
"860",5,37,1,1,140,1,1,1,5,0.508511175431446,-0.304349026898155
"861",5,31,1,1,141,2,2,0,2,0.827154504058315,0.199107432332298
"862",5,32,1,1,142,3,1,1,3,0.767746457223606,0.105242718333458
"863",5,24,1,1,143,3,2,0,2,0.868487347149308,0.264413324416067
"864",5,37,1,1,144,2,2,0,2,0.700041474579912,-0.00173115424357873
"865",5,19,1,2,145,2,1,0,3,0.960442359994863,0.409702244712044
"866",5,38,1,1,146,2,1,1,3,0.655560655052104,-0.072010849097515
"867",5,33,1,2,147,1,2,1,5,0.47867850161803,-0.351484651523352
"868",5,24,1,1,148,2,2,0,3,0.625221561332575,-0.119946617174371
"869",5,30,1,1,149,2,1,1,3,0.699242681852156,-0.00299324675343304
"870",5,37,1,2,150,3,1,0,1,0.976368131562776,0.434864963789347
"871",5,31,1,1,151,2,1,1,3,0.684723350955352,-0.0259337895703845
"872",5,32,1,2,152,1,1,0,4,0.407921839799676,-0.463280177196352
"873",5,24,1,2,153,2,2,1,4,0.578276458102528,-0.194119880277846
"874",5,37,1,2,154,2,2,1,4,0.513437952251278,-0.296564719522821
"875",5,19,1,2,155,3,1,0,1,0.904733862307668,0.321682818366276
"876",5,38,1,2,156,2,1,0,3,0.563329454264778,-0.217736146341491
"877",5,33,1,1,157,2,2,0,3,0.661244931894339,-0.0630296916867836
"878",5,24,1,1,158,1,2,0,3,0.505205688381232,-0.309571696437493
"879",5,30,1,1,159,1,1,1,5,0.520140994638072,-0.285973912551687
"880",5,37,1,1,160,1,1,1,4,0.543037475796815,-0.249797472320872
"881",5,31,1,2,161,3,1,0,1,0.940839912199281,0.378730377195025
"882",5,32,1,2,162,3,1,0,1,1.02974122268356,0.519194447760184
"883",5,24,1,2,163,1,2,1,5,0.23825760171526,-0.731349673369728
"884",5,37,1,1,164,3,1,1,3,0.827297877190229,0.199333961880722
"885",5,19,1,1,165,3,2,0,2,1.22891361045038,0.833886820431761
"886",5,38,1,1,166,2,2,0,2,1.00718503839718,0.48355567658771
"887",5,33,1,1,167,2,2,0,2,1.02378981212802,0.509791219082427
"888",5,24,1,2,168,1,2,1,4,0.444351488679223,-0.405721331966667
"889",5,30,1,2,169,3,1,0,1,0.995848477549638,0.465643910448588
"890",5,37,1,2,170,1,2,1,5,0.418921946458027,-0.445900008676158
"891",5,31,1,2,171,2,2,1,3,0.76184866860444,0.0959242123151746
"892",5,32,1,1,172,1,1,1,4,0.265484396879018,-0.688331337010991
"893",5,24,1,2,173,1,2,1,5,0.141660642044619,-0.883972869649342
"894",5,37,1,1,174,2,2,0,3,0.573520960540417,-0.20163356642598
"895",5,19,1,1,175,1,1,1,4,0.3158980345438,-0.608677789500635
"896",5,38,1,1,176,3,1,1,3,1.10823798321468,0.643219329399347
"897",5,33,1,1,177,3,1,1,3,0.756490603601633,0.0874584696107404
"898",5,24,1,1,178,1,1,1,5,0.487774562005156,-0.337112876111694
"899",5,30,1,1,179,2,2,0,3,0.910173807338226,0.330277931514557
"900",5,37,1,1,180,1,2,0,3,0.63354955089375,-0.106788393667715
"901",5,31,1,1,181,1,1,1,4,0.369661854542688,-0.523730953902393
"902",5,32,1,2,182,2,2,1,3,0.422099894040261,-0.440878851496227
"903",5,24,1,2,183,2,1,0,2,0.944555314537308,0.384600712889107
"904",5,37,1,1,184,2,1,1,4,0.529559020059364,-0.271093432386044
"905",5,19,1,1,185,2,2,0,2,0.877170778620036,0.278133146139816
"906",5,38,1,2,186,2,2,1,3,0.788694836838262,0.138341158124614
"907",5,33,1,1,187,3,2,0,1,1.77029231422012,1.68926517238795
"908",5,24,1,1,188,1,1,1,5,0.419341713493393,-0.445236776760279
"909",5,30,1,2,189,3,2,1,3,0.815444919968383,0.180606289470205
"910",5,37,1,2,190,2,2,1,4,0.607051516673495,-0.148655287735718
"911",5,31,1,2,191,3,2,1,2,0.814224536180334,0.178678083085088
"912",5,32,1,1,192,3,2,0,1,-0.0519645231242893,-1.18990063061622
"913",5,24,1,2,193,2,1,0,3,0.565179926265813,-0.214812400579856
"914",5,37,1,2,194,1,1,0,4,0.464570573810851,-0.373775177458696
"915",5,19,1,1,195,3,1,1,3,0.674229853909647,-0.042513514902597
"916",5,38,1,1,196,1,1,1,5,0.472382643329509,-0.361432107619215
"917",5,33,1,1,197,2,2,0,2,0.622261732296996,-0.124623147050586
"918",5,24,1,2,198,1,2,1,4,0.550489284421345,-0.238023614694114
"919",5,30,1,2,199,3,1,0,1,1.49279923686823,1.25082611017197
"920",5,37,1,2,200,1,1,0,3,0.42324183113988,-0.439074590878829
"921",5,31,1,2,201,1,2,1,4,0.38839427632173,-0.494133727491507
"922",5,32,1,2,202,1,2,1,5,0.259142222502092,-0.698351972526535
"923",5,24,1,1,203,1,1,1,5,0.401143142159168,-0.473990519468354
"924",5,37,1,1,204,1,2,0,3,0.419530445378847,-0.444938580381261
"925",5,19,1,2,205,3,1,0,2,0.286115426728246,-0.655734309849212
"926",5,38,1,1,206,3,2,0,1,0.248139773273486,-0.715735842307732
"927",5,33,1,2,207,3,1,0,2,0.282635505595719,-0.661232585238604
"928",5,24,1,2,208,3,2,1,3,0.797062318524358,0.151561779188645
"929",5,30,1,2,209,2,2,1,3,0.478064738455978,-0.352454397319395
"930",5,37,1,1,210,1,1,1,4,0.282437521800447,-0.661545399635134
"931",5,31,1,1,211,2,2,0,3,0.531641299364223,-0.267803431084367
"932",5,32,1,2,212,1,2,1,5,0.307192980553586,-0.622431774805174
"933",5,24,1,2,213,2,1,0,3,0.699573367032444,-0.00247076416857839
"934",5,37,1,2,214,1,1,0,4,0.65098251385063,-0.079244312195844
"935",5,19,1,1,215,2,1,1,3,0.545848986102501,-0.245355286037889
"936",5,38,1,1,216,3,1,1,3,0.698598203022506,-0.00401152330428067
"937",5,33,1,1,217,2,1,1,3,0.555773276235561,-0.229674907627653
"938",5,24,1,1,218,3,1,1,2,0.76033888701009,0.093538757396102
"939",5,30,1,1,219,2,1,1,4,0.686453420437564,-0.0232002797884887
"940",5,37,1,1,220,1,1,1,4,0.429302339761391,-0.429498987256842
"941",5,31,1,2,221,1,2,1,5,0.39078977738633,-0.490348835809439
"942",5,32,1,1,222,2,2,0,2,0.814479551403532,0.17908100713774
"943",5,24,1,1,223,2,1,1,4,0.856626289301528,0.245672853016574
"944",5,37,1,2,224,3,1,0,1,1.17557624486907,0.749613782813283
"945",5,19,1,1,225,3,2,0,1,1.01981747608428,0.503514928133328
"946",5,38,1,1,226,3,2,0,1,1.75349836780281,1.6627307370486
"947",5,33,1,2,227,1,2,1,5,0.408446295787234,-0.462451536736011
"948",5,24,1,1,228,2,1,1,3,0.447918897061203,-0.40008482672314
"949",5,30,1,2,229,1,2,1,5,0.409035615916775,-0.461520410931335
"950",5,37,1,1,230,3,1,1,2,1.05467312875007,0.558586859345268
"951",5,31,1,2,231,1,2,1,4,0.235079048253511,-0.736371787839292
"952",5,32,1,1,232,1,1,1,5,0.44345489114016,-0.407137956078388
"953",5,24,1,2,233,1,2,1,5,0.389522444814802,-0.492351221272452
"954",5,37,1,1,234,3,2,0,1,1.06097792154508,0.56854843196139
"955",5,19,1,1,235,3,2,0,2,0.906995771785513,0.325256635341271
"956",5,38,1,1,236,3,2,0,1,1.21468133373556,0.811399823222348
"957",5,33,1,2,237,1,2,1,5,0.467844256749701,-0.368602758415312
"958",5,24,1,2,238,3,1,0,2,1.21573903903914,0.813070997602006
"959",5,30,1,2,239,2,2,1,4,0.477062168116997,-0.354038458454984
"960",5,37,1,2,240,3,2,1,2,0.68009078213779,-0.0332532483021322
"961",4,23,2,1,1,1,1,1,5,0.493059492341796,0.493726688691947
"962",4,33,2,2,2,2,2,1,3,0.508186495220846,0.517627353240846
"963",4,32,2,1,3,3,2,0,2,1.09907422160386,1.45122996092601
"964",4,19,2,2,4,2,2,1,4,0.641546990021829,0.728336935026399
"965",4,23,2,2,5,1,2,1,5,0.400291167808732,0.347152735929707
"966",4,36,2,1,6,2,2,0,2,0.78613241756159,0.956781910539221
"967",4,22,2,2,7,1,1,0,3,0.603933555524593,0.668907708520767
"968",4,39,2,2,8,3,2,1,3,0.785700173341339,0.956098964671225
"969",4,24,2,2,9,1,2,1,5,0.518701588664621,0.53424120088201
"970",4,18,2,2,10,1,2,1,4,0.483270925811658,0.478260753574329
"971",4,23,2,1,11,2,1,1,3,0.502232076550323,0.508219371741419
"972",4,33,2,1,12,1,1,1,5,0.450338531020307,0.426227569803995
"973",4,32,2,2,13,1,2,1,4,0.359020147283582,0.28194452349997
"974",4,19,2,2,14,3,1,0,2,1.19019516953236,1.59520105865304
"975",4,23,2,2,15,2,2,1,4,0.41890378592393,0.376560672551718
"976",4,36,2,2,16,3,1,0,1,0.40217651654556,0.350131586933894
"977",4,22,2,2,17,3,2,1,2,0.516735701791263,0.531135099622105
"978",4,39,2,2,18,2,2,1,3,0.605880598077586,0.671984035754496
"979",4,24,2,1,19,2,2,0,2,0.612726290975285,0.682800230532859
"980",4,18,2,1,20,2,2,0,2,0.731863290613291,0.871036689960909
"981",4,23,2,2,21,1,2,1,5,0.357266768919558,0.279174185684811
"982",4,33,2,2,22,2,2,1,4,0.689941719568779,0.80480060771058
"983",4,32,2,1,23,3,1,1,2,0.679002627078985,0.787516841576706
"984",4,19,2,1,24,1,1,1,4,0.308161245582246,0.201587458811858
"985",4,23,2,1,25,3,1,1,3,0.939725964724026,1.19945971505587
"986",4,36,2,2,26,3,1,0,1,1.06892862375964,1.40359991633214
"987",4,22,2,1,27,1,1,1,5,0.50812087801479,0.517523678055278
"988",4,39,2,1,28,3,2,0,2,1.03893272255093,1.35620639242238
"989",4,24,2,1,29,3,1,1,2,1.03496571441792,1.34993851957222
"990",4,18,2,1,30,2,2,0,2,0.510535554006608,0.521338866122351
"991",4,23,2,1,31,2,2,0,3,0.609053735414593,0.676997592746967
"992",4,33,2,2,32,2,1,0,2,0.907089848814579,1.14789465191894
"993",4,32,2,1,33,1,1,1,4,0.434343178888927,0.400954913436414
"994",4,19,2,2,34,2,2,1,4,0.73650864739854,0.878376353681602
"995",4,23,2,1,35,3,1,1,2,0.619684261014196,0.693793823194339
"996",4,36,2,1,36,1,1,1,4,0.384352093136771,0.321968997948007
"997",4,22,2,2,37,1,2,1,4,0.406550540985545,0.357042545549071
"998",4,39,2,2,38,3,1,0,1,1.257440299831,1.70144836452488
"999",4,24,2,1,39,1,1,1,5,0.377676502223165,0.31142156430451
"1000",4,18,2,1,40,3,1,1,2,1.16874897815793,1.56131607628144
"1001",4,23,2,2,41,3,1,0,1,0.703646653378025,0.826454403129189
"1002",4,33,2,2,42,3,2,1,2,0.861390804517252,1.07569016192917
"1003",4,32,2,2,43,2,2,1,4,0.4185329734219,0.375974788798512
"1004",4,19,2,1,44,3,2,0,1,1.28813364557597,1.74994385080194
"1005",4,23,2,1,45,1,1,1,4,0.455189357964039,0.433891876375091
"1006",4,36,2,1,46,1,2,0,3,0.547913448000562,0.580395938632798
"1007",4,22,2,1,47,2,2,0,3,0.528336240452268,0.549463950706492
"1008",4,39,2,1,48,3,1,1,2,0.643372427036263,0.731221125509205
"1009",4,24,2,1,49,1,1,1,4,0.418109215522329,0.375305251317189
"1010",4,18,2,2,50,2,1,0,3,0.65615891661251,0.751423779039676
"1011",4,23,2,1,51,3,2,0,1,1.09691663077072,1.44782096740965
"1012",4,33,2,1,52,1,1,1,4,0.468090256828403,0.454275296580787
"1013",4,32,2,2,53,1,2,1,4,0.328566681128091,0.233828046974294
"1014",4,19,2,1,54,1,1,1,4,0.437113708278437,0.405332349871841
"1015",4,23,2,2,55,2,2,1,3,0.447605335198972,0.421909120406285
"1016",4,36,2,2,56,2,1,0,3,0.778194950945166,0.944240713285273
"1017",4,22,2,2,57,3,1,0,2,0.830127399032492,1.02629398126325
"1018",4,39,2,2,58,2,1,0,3,0.85260925265047,1.06181530997965
"1019",4,24,2,1,59,2,2,0,3,0.960342209634626,1.23203338201462
"1020",4,18,2,2,60,1,2,1,5,0.464468044280097,0.448552200754462
"1021",4,23,2,2,61,1,2,1,4,0.416255146370529,0.372375822057345
"1022",4,33,2,1,62,3,2,0,2,1.28105690985566,1.73876260836385
"1023",4,32,2,2,63,3,2,1,3,0.722821908872166,0.856751306809932
"1024",4,19,2,2,64,3,1,0,1,0.735291423560101,0.876453140016869
"1025",4,23,2,2,65,1,2,1,4,0.44539641329608,0.418419023799715
"1026",4,36,2,1,66,3,2,0,2,1.49065403622773,2.06992606803172
"1027",4,22,2,1,67,2,2,0,3,0.764230100880609,0.922176250183271
"1028",4,39,2,2,68,3,1,0,1,0.86766375902215,1.08560143004691
"1029",4,24,2,1,69,1,1,1,5,0.429500980126736,0.393304239392153
"1030",4,18,2,2,70,1,2,1,5,0.426484532949475,0.38853825285208
"1031",4,23,2,1,71,3,1,1,2,0.894954516368553,1.12872082665422
"1032",4,33,2,1,72,2,1,1,3,0.63655690121233,0.72045259470739
"1033",4,32,2,2,73,1,2,1,5,0.297083894226456,0.18408524366971
"1034",4,19,2,2,74,2,2,1,3,0.546218983241007,0.577718684312701
"1035",4,23,2,2,75,3,2,1,3,0.819553247571662,1.00958682195514
"1036",4,36,2,2,76,2,1,0,2,0.788943807953898,0.961223907359069
"1037",4,22,2,2,77,3,2,1,3,0.703037688927713,0.825492239297696
"1038",4,39,2,1,78,2,1,1,4,0.52959835376312,0.55145808973764
"1039",4,24,2,2,79,2,2,1,4,0.607846741046853,0.675090541645937
"1040",4,18,2,1,80,2,2,0,3,0.781378016103843,0.949269956235982
"1041",4,23,2,2,81,3,2,1,2,0.724598655137244,0.859558565908755
"1042",4,33,2,1,82,1,2,0,4,0.63103301945531,0.711724861531299
"1043",4,32,2,2,83,3,1,0,1,0.865360702847624,1.08196260129116
"1044",4,19,2,2,84,2,2,1,4,0.482495276582385,0.477035227792079
"1045",4,23,2,2,85,3,2,1,3,1.12069305814603,1.48538772266264
"1046",4,36,2,2,86,3,2,1,3,0.652938694292451,0.746335827773983
"1047",4,22,2,1,87,1,1,1,5,0.484042217157347,0.479479393900517
"1048",4,39,2,1,88,3,2,0,1,0.908912358221723,1.15077421678223
"1049",4,24,2,1,89,1,2,0,3,0.705728163059789,0.829743188426376
"1050",4,18,2,1,90,2,2,0,2,0.710951708658909,0.837996390472987
"1051",4,23,2,2,91,3,1,0,1,0.932880809545341,1.18864436987355
"1052",4,33,2,2,92,1,1,0,3,0.585276848155333,0.639430110877335
"1053",4,32,2,1,93,2,2,0,2,0.714668769708262,0.843869346930963
"1054",4,19,2,2,94,1,2,1,5,0.403236711096532,0.35180669432443
"1055",4,23,2,1,95,1,2,0,4,0.570331696743496,0.615816771646634
"1056",4,36,2,1,96,3,2,0,1,0.844578118777999,1.04912611846115
"1057",4,22,2,2,97,2,2,1,4,0.565102758592696,0.607555049368369
"1058",4,39,2,2,98,3,2,1,2,0.874843086470974,1.09694476741605
"1059",4,24,2,1,99,3,1,1,2,0.548772813965618,0.581753736857586
"1060",4,18,2,1,100,2,1,1,4,0.699597702664625,0.820057061002016
"1061",4,23,2,1,101,3,1,1,3,0.86718609042508,1.08484671366354
"1062",4,33,2,1,102,1,1,1,5,0.294682939629946,0.180291735407224
"1063",4,32,2,1,103,1,1,1,5,0.345670266193498,0.260851711377637
"1064",4,19,2,2,104,2,2,1,3,0.541712691398525,0.57059874320158
"1065",4,23,2,2,105,1,2,1,4,0.376750108826039,0.309957862737051
"1066",4,36,2,2,106,3,1,0,1,1.17092429971094,1.5647530843352
"1067",4,22,2,1,107,3,1,1,3,1.14757411676463,1.52785979528003
"1068",4,39,2,2,108,1,2,1,5,0.385196545186964,0.323303232187312
"1069",4,24,2,1,109,1,1,1,4,0.28686220620728,0.167934976599412
"1070",4,18,2,2,110,3,1,0,2,1.55963690048573,2.17891899355937
"1071",4,23,2,2,111,2,2,1,3,0.653820757000878,0.747729486853296
"1072",4,33,2,2,112,2,2,1,4,0.638170023353393,0.723001327690271
"1073",4,32,2,1,113,3,1,1,2,1.05364191418261,1.37944691520044
"1074",4,19,2,2,114,1,2,1,5,0.387238811868593,0.326530013544287
"1075",4,23,2,2,115,3,2,1,3,0.617048883193952,0.689629926238354
"1076",4,36,2,1,116,3,1,1,3,0.559543533429837,0.598771473611052
"1077",4,22,2,2,117,3,2,1,3,0.983766266199238,1.26904339138671
"1078",4,39,2,2,118,3,2,1,2,0.860155211800376,1.0737379254365
"1079",4,24,2,2,119,3,1,0,1,1.50589808549094,2.09401166586759
"1080",4,18,2,1,120,1,1,1,4,0.458069088675148,0.438441850898644
"1081",4,23,2,1,121,1,1,1,5,0.239333730284652,0.0928399846416591
"1082",4,33,2,1,122,1,1,1,5,0.397297963946282,0.342423473827035
"1083",4,32,2,2,123,2,2,1,4,0.79768253909286,0.975031102558629
"1084",4,19,2,2,124,2,2,1,3,0.610136321663396,0.678708079020076
"1085",4,23,2,1,125,1,1,1,4,0.307409273798329,0.20039934339327
"1086",4,36,2,1,126,1,1,1,4,0.384507844502957,0.322215085106582
"1087",4,22,2,1,127,1,1,1,5,0.370614430122024,0.300263490384708
"1088",4,39,2,1,128,1,1,1,4,0.394364080818131,0.337787938484557
"1089",4,24,2,1,129,1,2,0,4,0.604766476292415,0.670223723333925
"1090",4,18,2,1,130,2,1,1,4,0.59038912774789,0.647507512633576
"1091",4,23,2,2,131,2,2,1,4,0.85223308966151,1.06122097245709
"1092",4,33,2,2,132,1,2,1,5,0.390213910945422,0.331230670085677
"1093",4,32,2,2,133,3,1,0,1,1.29815228478199,1.76577330074745
"1094",4,19,2,2,134,2,1,0,2,0.53057493107361,0.553001081888213
"1095",4,23,2,1,135,2,2,0,2,0.874125817027124,1.09581148169477
"1096",4,36,2,1,136,2,1,1,3,0.386792482711055,0.325824813475377
"1097",4,22,2,1,137,2,2,0,2,0.623032602634279,0.699084202954071
"1098",4,39,2,1,138,2,1,1,3,0.758708099140172,0.913451487433381
"1099",4,24,2,2,139,3,2,1,3,1.14952962836823,1.53094950361372
"1100",4,18,2,1,140,2,1,1,4,0.590062935863335,0.646992129455978
"1101",4,23,2,1,141,1,1,1,5,0.495252592491944,0.497191786929181
"1102",4,33,2,1,142,2,2,0,3,0.715584478553918,0.845316166907099
"1103",4,32,2,2,143,1,2,1,5,0.369429974078904,0.298392049836578
"1104",4,19,2,1,144,3,2,0,2,1.39813959645861,1.92375325319651
"1105",4,23,2,1,145,2,1,1,3,0.447783291567479,0.422190291468526
"1106",4,36,2,2,146,2,1,0,3,0.650233602403229,0.742061782589012
"1107",4,22,2,2,147,2,2,1,4,0.475199493307558,0.465507890217852
"1108",4,39,2,1,148,2,1,1,4,0.76675577319161,0.926166812434653
"1109",4,24,2,1,149,3,2,0,1,0.523577937100125,0.541945831410107
"1110",4,18,2,1,150,1,2,0,3,0.541970467561438,0.571006029538982
"1111",4,23,2,1,151,1,1,1,4,0.460824221490738,0.442794960747276
"1112",4,33,2,2,152,1,2,1,4,0.213849077507494,0.0525742332537506
"1113",4,32,2,2,153,2,1,0,3,0.831593535854761,1.02861047744243
"1114",4,19,2,1,154,1,1,1,4,0.349045668366253,0.266184846810589
"1115",4,23,2,1,155,3,2,0,1,1.3614341032861,1.86575857398395
"1116",4,36,2,1,156,3,2,0,1,1.10250397389565,1.45664896954704
"1117",4,22,2,2,157,1,2,1,5,0.415918627297235,0.371844121921542
"1118",4,39,2,1,158,1,1,1,5,0.304437367326916,0.195703731168437
"1119",4,24,2,1,159,1,2,0,4,0.550279133423089,0.58413372160039
"1120",4,18,2,1,160,3,1,1,3,0.854822184929961,1.06531174298125
"1121",4,23,2,2,161,3,1,0,2,0.952624102216871,1.21983877229456
"1122",4,33,2,1,162,3,1,1,3,0.557981880620452,0.596304062172224
"1123",4,32,2,2,163,2,2,1,3,0.717222128923915,0.847903654491696
"1124",4,19,2,1,164,3,1,1,3,0.754836707422732,0.907334688519827
"1125",4,23,2,1,165,2,1,1,3,0.498871923634617,0.502910330134604
"1126",4,36,2,1,166,2,2,0,2,0.647271346276361,0.73738141790856
"1127",4,22,2,1,167,1,2,0,4,0.59609684253768,0.656525702001444
"1128",4,39,2,2,168,3,1,0,2,1.38230221290322,1.89873018717899
"1129",4,24,2,1,169,1,2,0,4,0.347842578316282,0.264283964531635
"1130",4,18,2,2,170,2,2,1,3,0.650394741828384,0.742316382880757
"1131",4,23,2,2,171,2,2,1,4,0.485367687439109,0.481573636945702
"1132",4,33,2,1,172,2,1,1,3,0.429744712048388,0.393689335828362
"1133",4,32,2,1,173,1,1,1,4,0.375100614317169,0.307351661413037
"1134",4,19,2,2,174,3,1,0,2,0.843628255241617,1.04762533407366
"1135",4,23,2,2,175,2,2,1,3,0.567650765860671,0.61158090085177
"1136",4,36,2,2,176,2,2,1,4,0.654943341927571,0.749503171037472
"1137",4,22,2,2,177,3,1,0,1,1.00286537899472,1.29921998960356
"1138",4,39,2,2,178,2,2,1,3,0.574906914413448,0.623045615565158
"1139",4,24,2,1,179,2,2,0,2,0.907675004352652,1.1488191976691
"1140",4,18,2,1,180,3,2,0,1,1.4883739070058,2.06632346386108
"1141",4,23,2,2,181,2,1,0,3,0.883512018150736,1.11064167947007
"1142",4,33,2,1,182,1,1,1,4,0.515641589940911,0.529406402898549
"1143",4,32,2,1,183,1,1,1,4,0.28469303352535,0.164507683761963
"1144",4,19,2,2,184,2,1,0,2,0.923966244228594,1.17455935667309
"1145",4,23,2,1,185,1,1,1,4,0.366075842570725,0.293092522053655
"1146",4,36,2,1,186,2,1,1,4,0.703228540750736,0.825793785178073
"1147",4,22,2,2,187,1,2,1,4,0.443548097954318,0.415498685559732
"1148",4,39,2,1,188,3,2,0,2,0.829880278542415,1.02590353088893
"1149",4,24,2,2,189,2,1,0,2,0.799775082861504,0.978337321713086
"1150",4,18,2,2,190,1,2,1,4,0.312969362565482,0.209184283645371
"1151",4,23,2,1,191,3,1,1,2,0.994920620855312,1.2866672717433
"1152",4,33,2,1,192,2,1,1,3,0.504846443673416,0.512350071795907
"1153",4,32,2,2,193,2,1,0,3,0.698053277710992,0.817616869575277
"1154",4,19,2,1,194,1,1,1,4,0.450413252384449,0.426345629559338
"1155",4,23,2,2,195,2,1,0,2,0.310345168315838,0.205038056730934
"1156",4,36,2,2,196,3,2,1,2,0.916612036141817,1.16293970789598
"1157",4,22,2,1,197,3,2,0,2,1.00235323206018,1.298410797447
"1158",4,39,2,2,198,2,2,1,4,0.432925960737887,0.398715708757771
"1159",4,24,2,2,199,1,1,0,3,0.619433697011807,0.693397932070564
"1160",4,18,2,2,200,1,2,1,5,0.321810165369894,0.223152752076341
"1161",4,23,2,1,201,1,1,1,4,0.578628948279867,0.628926429074099
"1162",4,33,2,1,202,3,1,1,2,0.775739986774015,0.940361869894853
"1163",4,32,2,2,203,3,1,0,2,1.3300089858608,1.81610688845197
"1164",4,19,2,1,204,1,1,1,4,0.38786463887778,0.327518820218802
"1165",4,23,2,2,205,3,1,0,1,0.509437590212385,0.519604083327478
"1166",4,36,2,2,206,3,2,1,2,0.463694476174856,0.447329963148182
"1167",4,22,2,2,207,1,2,1,5,0.420133826690357,0.378504136962674
"1168",4,39,2,2,208,3,2,1,2,1.2343202304516,1.66491865490544
"1169",4,24,2,1,209,1,1,1,4,0.439416398190795,0.408970599933365
"1170",4,18,2,1,210,3,2,0,1,1.35075300227871,1.84888243439228
"1171",4,23,2,2,211,3,1,0,2,0.793405861664403,0.968273952221667
"1172",4,33,2,2,212,1,2,1,4,0.570481720520781,0.616053809214744
"1173",4,32,2,1,213,2,1,1,4,0.481935190560069,0.476150291876819
"1174",4,19,2,1,214,2,2,0,3,0.629674273988714,0.709578043694078
"1175",4,23,2,2,215,1,2,1,4,0.465489363943663,0.450165885822898
"1176",4,36,2,2,216,1,2,1,5,0.432093872610027,0.397401009515752
"1177",4,22,2,1,217,3,1,1,2,0.572176251450721,0.61873116808405
"1178",4,39,2,2,218,3,1,0,1,0.823789831016542,1.01628062379805
"1179",4,24,2,2,219,1,2,1,5,0.571843884147531,0.618206027745008
"1180",4,18,2,2,220,2,2,1,4,0.793845683425315,0.968968870603907
"1181",4,23,2,1,221,1,1,1,5,0.428958756304172,0.392447525752501
"1182",4,33,2,2,222,2,1,0,2,0.721860054653853,0.855231577144997
"1183",4,32,2,1,223,3,1,1,2,0.829366249708231,1.02509136533091
"1184",4,19,2,2,224,3,2,1,2,0.784356253331482,0.953975571055651
"1185",4,23,2,2,225,2,2,1,4,0.463574099544235,0.447139768071801
"1186",4,36,2,1,226,2,2,0,2,0.717838118421432,0.848876917897772
"1187",4,22,2,1,227,1,1,1,5,0.403255124031344,0.351835786761433
"1188",4,39,2,1,228,1,1,1,5,0.332265875385501,0.239672773901001
"1189",4,24,2,2,229,3,1,0,1,0.97784019499481,1.25968019888371
"1190",4,18,2,2,230,2,2,1,4,0.536221710973099,0.561922994129406
"1191",4,23,2,2,231,1,1,0,4,0.59797009856196,0.659485446519807
"1192",4,33,2,1,232,3,1,1,2,0.536455273248092,0.562292022523895
"1193",4,32,2,1,233,1,1,1,5,0.441928159530741,0.412939182850481
"1194",4,19,2,1,234,3,2,0,1,1.12184352326999,1.4872054575585
"1195",4,23,2,1,235,3,2,0,1,0.760702645197494,0.916602870203949
"1196",4,36,2,2,236,2,1,0,2,0.808364942285382,0.991909299602812
"1197",4,22,2,2,237,2,2,1,3,0.624703279889963,0.701723873018051
"1198",4,39,2,1,238,2,2,0,2,0.676383215680137,0.783378171566525
"1199",4,24,2,2,239,2,1,0,2,0.845335145131511,1.0503222200997
"1200",4,18,2,2,240,3,2,1,3,1.09082847278444,1.43820167779133
"1201",3,32,1,2,1,1,2,1,4,0.342558966151848,0.0492878698663313
"1202",3,26,1,2,2,2,1,0,2,1.03855331857995,1.14895894670273
"1203",3,23,1,2,3,3,2,1,2,0.733121448622747,0.666376592170352
"1204",3,28,1,1,4,3,1,1,3,0.857857171963613,0.863459035048921
"1205",3,36,1,1,5,3,2,0,2,1.35506722910056,1.64905092532529
"1206",3,30,1,1,6,3,2,0,1,1.13761797054414,1.30548109680615
"1207",3,34,1,2,7,2,2,1,4,0.520482237580037,0.330406638722871
"1208",3,25,1,2,8,2,2,1,3,0.779047567180796,0.73893985949207
"1209",3,36,1,1,9,1,1,1,4,0.488848012361237,0.280424562877167
"1210",3,36,1,2,10,2,1,0,3,0.527954196284212,0.342212333475468
"1211",3,32,1,2,11,1,2,1,5,0.287084887475486,-0.0383611744423201
"1212",3,26,1,2,12,1,2,1,5,0.518676098970211,0.327552939719345
"1213",3,23,1,2,13,3,1,0,2,0.872160098013974,0.88605765820849
"1214",3,28,1,1,14,1,1,1,4,0.301707956624345,-0.0152567251871232
"1215",3,36,1,1,15,3,1,1,2,1.09507085507465,1.23825665436436
"1216",3,30,1,2,16,2,2,1,3,0.445587858262692,0.212073519401465
"1217",3,34,1,1,17,3,2,0,2,1.44942523819206,1.79813657968986
"1218",3,25,1,1,18,2,2,0,2,0.696058063784727,0.607816444126281
"1219",3,36,1,1,19,3,1,1,2,1.062568526486,1.18690297519429
"1220",3,36,1,2,20,3,2,1,2,0.696600831997187,0.608674017901967
"1221",3,32,1,1,21,3,2,0,1,0.815638037695072,0.796752802904626
"1222",3,26,1,2,22,1,2,1,4,0.486975704460307,0.277466316393697
"1223",3,23,1,1,23,1,1,1,4,0.469068891945899,0.249173552620933
"1224",3,28,1,2,24,2,2,1,4,0.708913062135858,0.628127341521068
"1225",3,36,1,2,25,1,2,1,4,0.5644399352517,0.399859801044098
"1226",3,30,1,2,26,1,2,1,4,0.259410134491047,-0.0820872841577331
"1227",3,34,1,2,27,2,1,0,3,0.682398249245773,0.586233937154734
"1228",3,25,1,1,28,3,1,1,2,0.929027743693385,0.975908538381961
"1229",3,36,1,1,29,3,2,0,2,1.25695572462372,1.49403474825189
"1230",3,36,1,1,30,2,2,0,2,0.454359761456062,0.22593312644699
"1231",3,32,1,2,31,1,2,1,4,0.467781703276702,0.247139794523601
"1232",3,26,1,1,32,2,1,1,3,0.469972511441298,0.250601271423663
"1233",3,23,1,2,33,2,1,0,2,0.684119628518303,0.58895371640533
"1234",3,28,1,2,34,1,1,0,4,0.704346620465226,0.620912363681468
"1235",3,36,1,1,35,3,1,1,3,1.04903070508362,1.16551321737853
"1236",3,30,1,1,36,2,2,0,3,0.792837389866524,0.76072777933552
"1237",3,34,1,2,37,1,1,0,4,0.631451028445914,0.505737328290957
"1238",3,25,1,2,38,1,2,1,4,0.534991508505425,0.353331286784983
"1239",3,36,1,2,39,2,1,0,3,0.667250836135581,0.56230102444063
"1240",3,36,1,1,40,3,1,1,3,0.617608935491446,0.483866821422897
"1241",3,32,1,2,41,2,2,1,4,0.547688973590983,0.373393281620165
"1242",3,26,1,1,42,2,2,0,3,0.84032924915304,0.835764917008215
"1243",3,23,1,2,43,3,2,1,2,0.591173426622665,0.442098717410223
"1244",3,28,1,2,44,3,1,0,1,1.36716374293745,1.66816341718759
"1245",3,36,1,2,45,2,2,1,3,0.745375539172682,0.685738055239249
"1246",3,30,1,2,46,3,2,1,2,0.688851490681365,0.596430058622969
"1247",3,34,1,2,47,1,2,1,5,0.426863379506846,0.182488842967228
"1248",3,25,1,1,48,1,1,1,5,0.476407732386773,0.260768920517513
"1249",3,36,1,1,49,2,2,0,2,0.704162074221743,0.620620780616765
"1250",3,36,1,1,50,1,1,1,4,0.38160634071562,0.110982721677092
"1251",3,32,1,1,51,1,1,1,4,0.503442391707304,0.303483682243952
"1252",3,26,1,1,52,1,2,0,3,0.50969350039678,0.313360433973324
"1253",3,23,1,2,53,3,2,1,3,1.09607225663796,1.23983886883438
"1254",3,28,1,1,54,1,1,1,5,0.389225645810161,0.123021223726466
"1255",3,36,1,1,55,1,1,1,5,0.391669994443768,0.126883294567565
"1256",3,30,1,2,56,3,2,1,3,0.82868349774869,0.817364629789343
"1257",3,34,1,2,57,1,2,1,4,0.275047066123672,-0.0573809321781866
"1258",3,25,1,1,58,2,1,1,4,0.42178633769301,0.174467116901368
"1259",3,36,1,1,59,3,1,1,3,0.629291145886046,0.502324713846365
"1260",3,36,1,2,60,3,2,1,3,0.475110028944023,0.258718549077968
"1261",3,32,1,1,61,3,2,0,1,2.06703076429072,2.77395331092575
"1262",3,26,1,2,62,1,2,1,5,0.462287180896891,0.238458449163499
"1263",3,23,1,2,63,3,2,1,3,1.03295355777394,1.14011132462923
"1264",3,28,1,1,64,1,1,1,4,0.417878752807232,0.168293132781838
"1265",3,36,1,1,65,2,2,0,3,0.503758534086851,0.303983187203636
"1266",3,30,1,2,66,2,1,0,2,0.738549334528011,0.67495265190067
"1267",3,34,1,1,67,3,1,1,3,0.806815277556054,0.782812841884977
"1268",3,25,1,2,68,2,2,1,3,0.624556504287791,0.494843980121122
"1269",3,36,1,2,69,3,2,1,3,0.886127473145335,0.908126110916041
"1270",3,36,1,2,70,1,1,0,3,0.509261812448659,0.312678367015293
"1271",3,32,1,1,71,3,1,1,2,0.53135017860079,0.34757798553566
"1272",3,26,1,1,72,2,1,1,3,0.751989628415194,0.696188316242418
"1273",3,23,1,1,73,3,2,0,1,0.566894104785652,0.403737388907743
"1274",3,28,1,2,74,2,2,1,4,0.595778776767359,0.449375170638839
"1275",3,36,1,1,75,3,1,1,2,0.429223324844826,0.186217556601237
"1276",3,30,1,1,76,2,1,1,3,0.570911690300744,0.410085174021587
"1277",3,34,1,1,77,2,1,1,4,0.291541508178325,-0.0313197137318346
"1278",3,25,1,1,78,2,1,1,4,0.486230347968484,0.276288653136616
"1279",3,36,1,2,79,2,1,0,3,0.670931763040104,0.568116888949776
"1280",3,36,1,1,80,1,2,0,4,0.69658440541639,0.608648063904308
"1281",3,32,1,1,81,1,2,0,3,0.483632243354106,0.272183647845899
"1282",3,26,1,2,82,1,1,0,3,0.506751213359824,0.308711620454934
"1283",3,23,1,2,83,3,2,1,2,0.79998467770865,0.772020494126079
"1284",3,28,1,2,84,1,2,1,4,0.340115795791694,0.0454276606972879
"1285",3,36,1,1,85,2,1,1,3,0.735090451839152,0.669487617252272
"1286",3,30,1,1,86,3,2,0,2,1.27186497709173,1.51759136715135
"1287",3,34,1,2,87,2,2,1,3,0.595226681993616,0.448502860896326
"1288",3,25,1,2,88,2,2,1,4,0.620625786989515,0.488633446789845
"1289",3,36,1,2,89,2,1,0,2,0.782869533575696,0.744978566396011
"1290",3,36,1,1,90,3,2,0,2,1.38501331684497,1.69636574396146
"1291",3,32,1,2,91,2,1,0,2,0.711379471535729,0.632024268372864
"1292",3,26,1,2,92,1,1,0,3,0.586294063219064,0.434389323232532
"1293",3,23,1,2,93,3,1,0,1,0.669278942583654,0.565505432628585
"1294",3,28,1,1,94,2,2,0,3,0.785767447390571,0.749557270223514
"1295",3,36,1,1,95,1,1,1,5,0.634815608373277,0.51105336457619
"1296",3,30,1,2,96,3,1,0,1,1.31194744984607,1.58092167410321
"1297",3,34,1,1,97,1,1,1,5,0.304998533924686,-0.0100576130525844
"1298",3,25,1,2,98,2,1,0,2,0.851621501629479,0.853606675920988
"1299",3,36,1,1,99,2,1,1,3,0.737460352862493,0.673232060869151
"1300",3,36,1,1,100,2,1,1,3,0.545598924750196,0.370091004451722
"1301",3,32,1,2,101,1,2,1,5,0.395204738584743,0.132468190310305
"1302",3,26,1,1,102,3,2,0,1,0.928177811766037,0.974565645936751
"1303",3,23,1,2,103,3,2,1,3,1.07851948451194,1.21210548887528
"1304",3,28,1,2,104,1,2,1,5,0.516962063389389,0.324844763501647
"1305",3,36,1,2,105,3,2,1,2,0.923673975875154,0.967449585229155
"1306",3,30,1,1,106,1,2,0,4,0.359073778051616,0.0753812726679658
"1307",3,34,1,1,107,2,2,0,3,0.7079244332782,0.626565307925968
"1308",3,25,1,2,108,3,1,0,2,0.669579024961309,0.56597956278528
"1309",3,36,1,1,109,1,1,1,4,0.4652730382328,0.243176103754236
"1310",3,36,1,1,110,3,1,1,2,0.781482053396421,0.742786347712757
"1311",3,32,1,2,111,2,1,0,2,0.445025574994135,0.211185111837145
"1312",3,26,1,2,112,2,1,0,3,0.846577708522646,0.845637482812193
"1313",3,23,1,2,113,3,1,0,2,0.418926658384644,0.16994882359415
"1314",3,28,1,1,114,3,1,1,3,1.02094526056836,1.12113821504442
"1315",3,36,1,2,115,1,2,1,4,0.423079528755201,0.17651035877963
"1316",3,30,1,1,116,1,2,0,3,0.619435322336823,0.486752512638592
"1317",3,34,1,1,117,2,2,0,2,0.621638476167667,0.490233495691325
"1318",3,25,1,2,118,2,2,1,4,0.596424437911184,0.450395315246082
"1319",3,36,1,1,119,3,2,0,1,1.80288703887146,2.35660622476331
"1320",3,36,1,1,120,3,2,0,1,1.56355427018191,1.97846045023382
"1321",3,32,1,1,121,1,1,1,4,0.482878314204285,0.270992439789182
"1322",3,26,1,1,122,2,1,1,3,0.48102843775194,0.268069634994478
"1323",3,23,1,2,123,3,1,0,2,0.473729585851522,0.256537448991816
"1324",3,28,1,1,124,3,2,0,1,1.07577184107908,1.20776421225137
"1325",3,36,1,1,125,1,1,1,4,0.409572742544109,0.155169636566105
"1326",3,30,1,2,126,2,2,1,4,0.447938313641145,0.215787238899421
"1327",3,34,1,1,127,1,1,1,5,0.440991468049238,0.204811222864209
"1328",3,25,1,1,128,1,1,1,5,0.531731092114965,0.348179828888057
"1329",3,36,1,1,129,2,1,1,3,0.558292854947462,0.390147414163403
"1330",3,36,1,1,130,2,1,1,4,0.552024435032093,0.380243310697119
"1331",3,32,1,2,131,1,1,0,4,0.454664184938217,0.226414115548795
"1332",3,26,1,1,132,2,1,1,3,0.732621742436412,0.665587056395943
"1333",3,23,1,2,133,2,2,1,3,0.458669296735032,0.232742192187763
"1334",3,28,1,1,134,3,1,1,2,1.00507042376977,1.09605597290264
"1335",3,36,1,2,135,2,2,1,4,0.562588532895639,0.396934585321521
"1336",3,30,1,2,136,3,2,1,3,1.08595175489465,1.22384847607996
"1337",3,34,1,2,137,1,1,0,4,0.477509383024489,0.262509528525104
"1338",3,25,1,1,138,2,1,1,3,0.78031135947639,0.740936651319108
"1339",3,36,1,2,139,3,2,1,2,0.882901778603819,0.903029513540446
"1340",3,36,1,1,140,1,1,1,5,0.334824269913553,0.0370670498098257
"1341",3,32,1,1,141,3,2,0,1,0.585796697013968,0.433603484628481
"1342",3,26,1,2,142,1,1,0,3,0.507533285909425,0.309947295083304
"1343",3,23,1,2,143,3,1,0,2,0.772078638840884,0.727928952715008
"1344",3,28,1,1,144,1,1,1,5,0.43610554034965,0.197091457098859
"1345",3,36,1,2,145,1,1,0,4,0.368729246007923,0.0906369120389297
"1346",3,30,1,2,146,1,2,1,4,0.366884729395447,0.0877225757912175
"1347",3,34,1,1,147,3,1,1,2,0.563188632471559,0.397882742651475
"1348",3,25,1,2,148,3,1,0,1,1.17551292104403,1.36535511859598
"1349",3,36,1,2,149,2,1,0,2,0.665993286127068,0.56031409542718
"1350",3,36,1,1,150,2,2,0,3,0.663540402150435,0.556438538744099
"1351",3,32,1,2,151,1,1,0,3,0.53945252337654,0.360379690281346
"1352",3,26,1,1,152,2,1,1,3,0.528427529433157,0.3429601998508
"1353",3,23,1,1,153,3,1,1,3,0.891470313838309,0.916567799210941
"1354",3,28,1,2,154,3,1,0,1,0.53455020468223,0.352634026744336
"1355",3,36,1,2,155,2,1,0,3,0.710109323541244,0.630017434541577
"1356",3,30,1,2,156,2,2,1,3,0.863817625901718,0.872876552271126
"1357",3,34,1,1,157,2,2,0,2,0.687867203507273,0.594874884887904
"1358",3,25,1,1,158,1,2,0,3,0.486437191550637,0.276615465996418
"1359",3,36,1,2,159,2,1,0,3,0.85655877132114,0.861407562033814
"1360",3,36,1,2,160,3,1,0,1,0.71769976025106,0.642010324543086
"1361",3,32,1,2,161,2,2,1,4,0.311531622600321,0.000264667054919066
"1362",3,26,1,1,162,2,1,1,4,0.709245144564774,0.628652031758754
"1363",3,23,1,1,163,2,1,1,3,0.683069401392471,0.587294357546516
"1364",3,28,1,1,164,1,1,1,5,0.365277205193478,0.0851826875521077
"1365",3,36,1,1,165,2,2,0,3,0.725291621779225,0.654005465757588
"1366",3,30,1,2,166,1,2,1,5,0.317891229729444,0.010312846318933
"1367",3,34,1,2,167,3,2,1,3,0.93275773660219,0.981801927177872
"1368",3,25,1,1,168,1,1,1,5,0.428393731157924,0.184906798575931
"1369",3,36,1,2,169,2,1,0,3,0.264781522511148,-0.0736004910859735
"1370",3,36,1,1,170,3,1,1,2,0.80667875647458,0.782597138576249
"1371",3,32,1,2,171,1,2,1,5,0.292346693119089,-0.0300475215254269
"1372",3,26,1,2,172,3,2,1,3,0.879211311993433,0.897198576296037
"1373",3,23,1,1,173,3,1,1,3,0.718285123160695,0.64293519794031
"1374",3,28,1,2,174,1,2,1,4,0.34827055128465,0.0583121743761592
"1375",3,36,1,1,175,1,2,0,3,0.588298808707156,0.437556821103718
"1376",3,30,1,2,176,2,1,0,2,0.670101385002213,0.566804891649909
"1377",3,34,1,2,177,2,2,1,3,0.550588725061943,0.377974888944282
"1378",3,25,1,2,178,1,1,0,4,0.55824557412623,0.390072710465855
"1379",3,36,1,1,179,1,2,0,4,0.395548877974817,0.133011930546622
"1380",3,36,1,1,180,3,2,0,2,0.973914325057052,1.04682933693655
"1381",3,32,1,1,181,3,2,0,1,0.859460526993499,0.86599233599614
"1382",3,26,1,2,182,3,2,1,2,0.580559851279638,0.42532926836824
"1383",3,23,1,1,183,3,1,1,2,0.5398783245284,0.361052456101283
"1384",3,28,1,2,184,3,2,1,2,0.552873142978811,0.381584269252933
"1385",3,36,1,1,185,2,2,0,2,0.700456550779443,0.614766053577933
"1386",3,30,1,2,186,2,2,1,4,0.444630136176748,0.210560318505674
"1387",3,34,1,2,187,1,2,1,5,0.454247826205219,0.225756268750658
"1388",3,25,1,1,188,3,1,1,3,0.827839705921283,0.816031438702039
"1389",3,36,1,2,189,3,2,1,2,0.700882232435515,0.615438630594526
"1390",3,36,1,2,190,1,1,0,4,0.455961362172573,0.228463655579078
"1391",3,32,1,2,191,2,2,1,4,0.517319360778407,0.325409293376294
"1392",3,26,1,1,192,2,1,1,3,0.592035558135331,0.443460885200234
"1393",3,23,1,2,193,3,1,0,1,1.13696743784268,1.30445325513785
"1394",3,28,1,1,194,2,2,0,3,0.516909706936376,0.324762040305885
"1395",3,36,1,1,195,1,1,1,5,0.357879090940351,0.0734936670321667
"1396",3,30,1,1,196,1,2,0,4,0.62642039015215,0.497788919786809
"1397",3,34,1,2,197,3,2,1,3,0.90485939312383,0.937722544482063
"1398",3,25,1,1,198,1,1,1,5,0.540119156440242,0.361432970521995
"1399",3,36,1,2,199,1,2,1,4,0.245005984503773,-0.104845841137627
"1400",3,36,1,1,200,1,1,1,4,0.276808287725847,-0.0545982020467493
"1401",3,32,1,2,201,2,2,1,4,0.597808234180325,0.452581713351325
"1402",3,26,1,2,202,1,2,1,4,0.321316013809068,0.0157240051647392
"1403",3,23,1,1,203,1,1,1,5,0.331948041409665,0.0325226087736833
"1404",3,28,1,1,204,1,2,0,4,0.503664568817103,0.303834722077435
"1405",3,36,1,1,205,1,1,1,5,0.442090880390911,0.206548294364052
"1406",3,30,1,1,206,2,1,1,4,0.682010567481121,0.585621399966584
"1407",3,34,1,1,207,1,2,0,4,0.506119865230355,0.307714090410374
"1408",3,25,1,2,208,2,1,0,2,0.666073141308604,0.560440266614006
"1409",3,36,1,1,209,3,2,0,1,1.08875213518865,1.22827307694447
"1410",3,36,1,1,210,2,2,0,3,0.507778775788525,0.310335169092281
"1411",3,32,1,1,211,3,2,0,1,0.590424513483696,0.440915434650652
"1412",3,26,1,1,212,2,1,1,4,0.646313894307305,0.529220656351954
"1413",3,23,1,1,213,2,1,1,3,0.627504726314497,0.499502170923317
"1414",3,28,1,2,214,1,2,1,4,0.388560812475813,0.121970787058196
"1415",3,36,1,2,215,2,1,0,2,0.403563567965667,0.145675140732166
"1416",3,30,1,2,216,2,1,0,3,0.682343183742098,0.586146933658927
"1417",3,34,1,1,217,1,1,1,5,0.289815964104586,-0.0340460733683418
"1418",3,25,1,2,218,1,1,0,4,0.615076163986245,0.479865042444679
"1419",3,36,1,2,219,3,2,1,2,1.12051067772154,1.27845157414645
"1420",3,36,1,1,220,1,2,0,3,0.353773023075873,0.067006079806292
"1421",3,32,1,1,221,3,2,0,1,1.19154525548747,1.39068620701661
"1422",3,26,1,2,222,3,2,1,3,0.759110760593931,0.707439705084823
"1423",3,23,1,2,223,3,1,0,1,0.380497862398197,0.109231325935563
"1424",3,28,1,2,224,1,2,1,5,0.461205820647775,0.236749899969896
"1425",3,36,1,2,225,3,1,0,2,0.430794058322908,0.188699315496607
"1426",3,30,1,1,226,3,1,1,2,0.755532423155396,0.701785931931938
"1427",3,34,1,1,227,2,1,1,4,0.497405794795563,0.293945859123401
"1428",3,25,1,2,228,3,2,1,2,0.965800959618994,1.03401021954442
"1429",3,36,1,2,229,1,1,0,3,0.617064007596749,0.483005835349276
"1430",3,36,1,1,230,2,1,1,4,0.67076951578368,0.567860538284626
"1431",3,32,1,1,231,1,1,1,4,0.302947643190785,-0.0132980204121473
"1432",3,26,1,2,232,3,1,0,1,0.735140895249913,0.669567317841274
"1433",3,23,1,1,233,1,1,1,5,0.364981330194427,0.0847152050536063
"1434",3,28,1,1,234,2,2,0,3,0.6299139508236,0.503308745647699
"1435",3,36,1,2,235,3,1,0,1,0.938431072629766,0.990765798101442
"1436",3,30,1,2,236,1,1,0,3,0.732848390096784,0.66594515969933
"1437",3,34,1,2,237,1,2,1,5,0.302639527116442,-0.0137848438096101
"1438",3,25,1,2,238,2,1,0,3,0.602106107788471,0.459372353652196
"1439",3,36,1,1,239,3,2,0,2,1.35313332443208,1.6459953559491
"1440",3,36,1,1,240,3,2,0,2,0.848766869291996,0.849096356827765
"1441",2,29,2,2,1,1,2,1,4,0.307825927612126,1.16274020029757
"1442",2,30,2,1,2,1,2,0,3,0.638524137129286,1.68524337133468
"1443",2,23,2,2,3,3,2,1,3,1.07345366951871,2.37243203250996
"1444",2,31,2,2,4,2,2,1,3,0.537210743716399,1.52516820974232
"1445",2,24,2,1,5,1,2,0,3,0.645352464967526,1.6960321293191
"1446",2,19,2,1,6,3,1,1,3,1.30700477109985,2.74144277300817
"1447",2,18,2,2,7,3,2,1,3,0.572668639902578,1.58119168571648
"1448",2,30,2,1,8,3,2,0,1,0.228672568487545,1.03767789288073
"1449",2,36,2,2,9,2,2,1,4,0.777981382513584,1.90558581904187
"1450",2,24,2,2,10,2,2,1,4,0.514455884995571,1.48921553296341
"1451",2,29,2,2,11,2,2,1,4,0.531258212599121,1.51576321057702
"1452",2,30,2,2,12,1,2,1,5,0.360424666863812,1.24584620831523
"1453",2,23,2,1,13,1,2,0,3,0.525798049800293,1.50713615335487
"1454",2,31,2,1,14,2,1,1,3,0.615512285831575,1.6488846462843
"1455",2,24,2,1,15,2,1,1,4,0.406023050930838,1.31789165514113
"1456",2,19,2,2,16,1,2,1,5,0.436885038776161,1.36665359593674
"1457",2,18,2,1,17,3,1,1,3,0.522673988933901,1.50220013718597
"1458",2,30,2,2,18,1,2,1,5,0.32972485705909,1.19734050882377
"1459",2,36,2,2,19,1,2,1,5,0.368929790996315,1.25928430444459
"1460",2,24,2,2,20,2,2,1,4,0.813888926193426,1.96231973805602
"1461",2,29,2,2,21,3,1,0,1,0.91157682288672,2.11666661483143
"1462",2,30,2,2,22,2,2,1,4,0.683550483740515,1.75638499898042
"1463",2,23,2,2,23,2,2,1,3,0.68513453728084,1.75888780357414
"1464",2,31,2,1,24,3,1,1,2,1.44148296837781,2.95391832470735
"1465",2,24,2,2,25,3,2,1,3,0.680704671661052,1.75188861589487
"1466",2,19,2,2,26,3,1,0,2,1.14451401283544,2.48470737495041
"1467",2,18,2,2,27,1,1,0,3,0.495237989018769,1.45885125732006
"1468",2,30,2,2,28,3,2,1,3,0.95557201307114,2.18617901532281
"1469",2,36,2,2,29,3,2,1,3,0.564586089827822,1.56842125659837
"1470",2,24,2,1,30,3,1,1,3,0.843348160423081,2.00886532813888
"1471",2,29,2,2,31,1,2,1,5,0.370826243500393,1.26228069940103
"1472",2,30,2,2,32,1,2,1,5,0.45481200750584,1.39497820652964
"1473",2,23,2,1,33,1,1,1,5,0.553608851713855,1.5510772203783
"1474",2,31,2,2,34,3,2,1,2,0.689124575233709,1.76519206353967
"1475",2,24,2,1,35,1,2,0,4,0.638007330680735,1.68442681714597
"1476",2,19,2,2,36,3,1,0,2,1.55474729107777,3.13287595457329
"1477",2,18,2,2,37,2,2,1,3,0.614461797137802,1.64722487414814
"1478",2,30,2,1,38,1,1,1,5,0.505708994283195,1.47539544563786
"1479",2,36,2,2,39,2,2,1,3,0.568729281740675,1.57496749982068
"1480",2,24,2,2,40,3,1,0,2,1.28249562000125,2.70271831427238
"1481",2,29,2,2,41,1,2,1,4,0.314371230729743,1.1730817792234
"1482",2,30,2,1,42,1,2,0,3,0.455275579016058,1.39571064951578
"1483",2,23,2,2,43,1,1,0,3,0.325485692952192,1.19064262953487
"1484",2,31,2,1,44,3,2,0,2,0.393484765607332,1.29808116432999
"1485",2,24,2,1,45,1,1,1,4,0.439793207211534,1.37124850206463
"1486",2,19,2,1,46,2,2,0,3,0.456440543717022,1.3975512937433
"1487",2,18,2,1,47,3,1,1,3,0.526277844615532,1.50789422916295
"1488",2,30,2,1,48,1,1,1,4,0.415505401021585,1.33287376828451
"1489",2,36,2,1,49,1,1,1,4,0.329274452908705,1.19662887026616
"1490",2,24,2,2,50,2,2,1,3,0.596614926296987,1.61902681821965
"1491",2,29,2,1,51,2,2,0,2,0.717797939144096,1.81049597851808
"1492",2,30,2,1,52,1,1,1,5,0.458422853901484,1.40068334383475
"1493",2,23,2,1,53,1,1,1,5,0.525080566713531,1.50600253007779
"1494",2,31,2,1,54,3,2,0,1,0.670950586110419,1.73647716072487
"1495",2,24,2,2,55,2,2,1,3,0.62906684780995,1.67030085421013
"1496",2,19,2,2,56,3,1,0,2,0.825981060604639,1.98142531042574
"1497",2,18,2,2,57,1,1,0,4,0.377579340082498,1.27295059200076
"1498",2,30,2,1,58,1,1,1,5,0.499774989321276,1.46601971779803
"1499",2,36,2,1,59,2,2,0,2,0.693461587934904,1.77204454360756
"1500",2,24,2,1,60,2,1,1,4,0.739335128812696,1.84452473819447
"1501",2,29,2,1,61,1,2,0,3,0.404456359725126,1.31541628303611
"1502",2,30,2,1,62,2,1,1,3,0.747215687587336,1.8569760210584
"1503",2,23,2,1,63,3,1,1,2,0.604882263974048,1.63208921174941
"1504",2,31,2,1,64,3,2,0,2,1.46969704814762,2.99849657074365
"1505",2,24,2,1,65,2,2,0,3,0.805387342448435,1.94888723573894
"1506",2,19,2,1,66,1,1,1,5,0.52577863930292,1.50710548476902
"1507",2,18,2,1,67,2,2,0,3,0.773596653117871,1.89865794659665
"1508",2,30,2,1,68,1,1,1,5,0.471104276075072,1.42071999086902
"1509",2,36,2,2,69,2,2,1,3,0.574535252161228,1.58414093308515
"1510",2,24,2,2,70,3,1,0,2,1.0374478171774,2.31554278581069
"1511",2,29,2,2,71,2,1,0,3,0.770083302785991,1.89310685307227
"1512",2,30,2,1,72,3,1,1,2,1.02969958706948,2.30330058224019
"1513",2,23,2,2,73,2,2,1,4,0.521496008371874,1.50033892789797
"1514",2,31,2,1,74,1,1,1,5,0.443140616186309,1.37653740824478
"1515",2,24,2,1,75,2,2,0,3,0.850429181977906,2.0200533421955
"1516",2,19,2,1,76,3,1,1,2,0.909315736463144,2.11309409828218
"1517",2,18,2,2,77,2,2,1,3,0.743923089473106,1.85177371603792
"1518",2,30,2,2,78,2,1,0,3,0.482768515908632,1.43914948980605
"1519",2,36,2,2,79,2,2,1,4,0.73102512641281,1.83139493440265
"1520",2,24,2,2,80,3,2,1,3,0.870870058617699,2.05234992728637
"1521",2,29,2,1,81,3,2,0,1,0.280628302645692,1.1197679528506
"1522",2,30,2,2,82,2,1,0,3,0.678301238096266,1.74809119086251
"1523",2,23,2,1,83,2,1,1,4,0.650628977813042,1.70436901961502
"1524",2,31,2,1,84,1,1,1,5,0.443267662449697,1.37673814134093
"1525",2,24,2,2,85,2,1,0,3,0.665838779831391,1.72840050680401
"1526",2,19,2,1,86,1,1,1,5,0.367716457353922,1.25736723728961
"1527",2,18,2,2,87,1,2,1,5,0.351973118219382,1.23249276145703
"1528",2,30,2,2,88,1,2,1,5,0.366204943612109,1.25497904557754
"1529",2,36,2,1,89,1,2,0,4,0.669406182995299,1.73403700380298
"1530",2,24,2,2,90,2,1,0,3,0.499237075779494,1.46516981440201
"1531",2,29,2,2,91,1,2,1,4,0.331355409767223,1.19991678210262
"1532",2,30,2,2,92,3,1,0,1,0.975498512162797,2.21766288388763
"1533",2,23,2,2,93,3,2,1,2,0.906493583713619,2.10863509693793
"1534",2,31,2,2,94,2,1,0,2,0.750132989912898,1.86158535873279
"1535",2,24,2,2,95,3,2,1,2,0.980222168892825,2.22512626152107
"1536",2,19,2,2,96,2,1,0,3,0.433845443557366,1.36185103549105
"1537",2,18,2,1,97,3,1,1,3,0.928212438753839,2.14295088790148
"1538",2,30,2,2,98,2,2,1,4,0.507746648396596,1.47861493913703
"1539",2,36,2,1,99,1,1,1,5,0.44724253295836,1.38301843674462
"1540",2,24,2,2,100,1,1,0,4,0.683320578530383,1.75602174874841
"1541",2,29,2,2,101,2,2,1,3,0.639403070795113,1.68663208652669
"1542",2,30,2,2,102,2,2,1,3,0.505998867950109,1.47585344603158
"1543",2,23,2,2,103,1,2,1,5,0.46243806315807,1.40702737446016
"1544",2,31,2,2,104,3,1,0,1,0.731904510472913,1.83278436121761
"1545",2,24,2,2,105,3,2,1,3,0.76728520063583,1.88868585167502
"1546",2,19,2,2,106,3,1,0,1,0.983329610943787,2.23003601996159
"1547",2,18,2,2,107,2,2,1,4,0.423222181233247,1.34506628101894
"1548",2,30,2,1,108,3,1,1,3,0.741859741696189,1.84851362655039
"1549",2,36,2,1,109,3,2,0,2,1.37257087812312,2.84503722210493
"1550",2,24,2,2,110,2,1,0,3,0.60056307561953,1.62526489414927
"1551",2,29,2,1,111,1,2,0,3,0.550019242161704,1.5454056372859
"1552",2,30,2,1,112,3,1,1,2,0.647649110983665,1.6996608300246
"1553",2,23,2,2,113,2,1,0,2,0.69023599358618,1.76694810453657
"1554",2,31,2,1,114,1,1,1,4,0.375088792091569,1.26901552617509
"1555",2,24,2,1,115,1,2,0,3,0.606273265570163,1.63428699427127
"1556",2,19,2,1,116,2,2,0,2,0.464332904578189,1.41002122390395
"1557",2,18,2,1,117,2,1,1,4,0.702070339526233,1.78564637112186
"1558",2,30,2,2,118,3,1,0,2,0.394619060902603,1.29987335089652
"1559",2,36,2,1,119,3,2,0,1,0.741263884100549,1.84757217154928
"1560",2,24,2,2,120,2,2,1,4,0.534454098299786,1.52081270998407
"1561",2,29,2,2,121,2,2,1,3,0.48783826460731,1.44715969274996
"1562",2,30,2,1,122,3,1,1,3,0.608897695942477,1.63843359425952
"1563",2,23,2,1,123,1,1,1,5,0.421250080869539,1.34195036244428
"1564",2,31,2,2,124,3,1,0,2,0.653612832641144,1.70908351024342
"1565",2,24,2,2,125,2,2,1,4,0.769311914932148,1.8918880602632
"1566",2,19,2,2,126,1,2,1,4,0.409965796370864,1.32412119293637
"1567",2,18,2,1,127,1,1,1,5,0.307171929223267,1.16170688284317
"1568",2,30,2,2,128,2,2,1,3,0.747486173187407,1.85740338830651
"1569",2,36,2,1,129,2,2,0,3,0.64887007223542,1.70158994880237
"1570",2,24,2,2,130,2,2,1,3,0.61289321609718,1.64474651610395
"1571",2,29,2,1,131,2,2,0,3,0.542975560685735,1.53427662055387
"1572",2,30,2,2,132,1,1,0,3,0.614394728643297,1.64711890592682
"1573",2,23,2,1,133,3,2,0,1,1.67823198340622,3.32798176845224
"1574",2,31,2,1,134,2,2,0,2,0.815962888090597,1.96559659785355
"1575",2,24,2,1,135,2,1,1,3,0.746928066747567,1.85652158013157
"1576",2,19,2,1,136,3,1,1,3,0.831350172085234,1.98990850656508
"1577",2,18,2,1,137,2,1,1,3,0.584023909244825,1.59913301127723
"1578",2,30,2,1,138,1,1,1,4,0.486099078741565,1.44441177908208
"1579",2,36,2,1,139,3,1,1,2,0.868004995480365,2.04782312752939
"1580",2,24,2,2,140,3,1,0,2,0.524149378365875,1.50453125248849
"1581",2,29,2,2,141,3,1,0,1,1.06381442764358,2.35720203034727
"1582",2,30,2,1,142,1,1,1,5,0.488305771797793,1.44789835411092
"1583",2,23,2,2,143,3,1,0,2,1.28499148249662,2.70666177701507
"1584",2,31,2,1,144,1,1,1,5,0.45512818658519,1.39547776947501
"1585",2,24,2,1,145,2,1,1,3,0.720152972309226,1.81421693091899
"1586",2,19,2,1,146,2,1,1,3,0.687452357555225,1.76254995960767
"1587",2,18,2,2,147,1,2,1,4,0.248599353246836,1.06916221280041
"1588",2,30,2,1,148,3,1,1,3,0.70670310539959,1.79296614120176
"1589",2,36,2,2,149,3,2,1,3,0.956093608318841,2.18700313581418
"1590",2,24,2,2,150,2,2,1,4,0.382501005674026,1.28072682363537
"1591",2,29,2,2,151,2,1,0,2,0.675596512705127,1.74381772474451
"1592",2,30,2,2,152,3,1,0,1,0.591033484787438,1.61020814063456
"1593",2,23,2,2,153,3,1,0,2,1.7064104380919,3.37250372685562
"1594",2,31,2,2,154,3,1,0,1,1.0523186094332,2.33903863757487
"1595",2,24,2,2,155,2,2,1,4,0.441566292317846,1.37404997653261
"1596",2,19,2,1,156,3,1,1,3,0.731427952614895,1.83203139980194
"1597",2,18,2,1,157,3,1,1,2,1.22110425309543,2.60571995456119
"1598",2,30,2,2,158,1,2,1,5,0.35982647716495,1.24490106859103
"1599",2,36,2,1,159,3,2,0,2,1.14793837296173,2.49011786394994
"1600",2,24,2,1,160,2,1,1,3,0.598058483409569,1.62130763845753
"1601",2,29,2,2,161,3,1,0,2,0.632321076825544,1.67544253605477
"1602",2,30,2,2,162,2,2,1,3,0.507069816741937,1.47754554512267
"1603",2,23,2,2,163,2,2,1,3,0.493510409613952,1.45612168186045
