"","subj_no","age","group","stim","trial","difficulty","resp","corr","conf","RT_day1","RT_day2"
"1",10,23,2,2,1,2,1,0,2,0.607614943256334,1.55894541947782
"2",10,36,2,1,2,3,2,0,1,0.709003690648685,1.71913964035774
"3",10,38,2,2,3,2,2,1,4,0.623201343356036,1.58357193163535
"4",10,25,2,2,4,1,1,0,3,0.688075932617567,1.68607378266857
"5",10,20,2,1,5,2,1,1,4,0.729647977614218,1.75175761376328
"6",10,40,2,1,6,1,1,1,5,0.409868386653865,1.24650586004592
"7",10,23,2,2,7,3,1,0,2,0.731638088206367,1.75490198849887
"8",10,20,2,2,8,1,1,0,4,0.443952475990547,1.30035872119788
"9",10,40,2,2,9,3,1,0,1,1.34663842111463,2.72660251449393
"10",10,23,2,2,10,1,1,0,4,0.569362745180381,1.49850694651782
"11",10,23,2,1,11,1,1,1,5,0.346703072254113,1.14670466329431
"12",10,36,2,1,12,2,2,0,2,0.742877026058049,1.77265951030453
"13",10,38,2,2,13,3,1,0,1,0.99696099209907,2.17411217664934
"14",10,25,2,2,14,2,2,1,3,0.6421189212578,1.61346170472014
"15",10,20,2,1,15,2,2,0,3,0.840221102554756,1.92646315116933
"16",10,40,2,1,16,2,1,1,4,0.591093908532666,1.53284218461443
"17",10,23,2,1,17,1,1,1,4,0.611222703128785,1.56464568007629
"18",10,20,2,2,18,1,2,1,5,0.481894354998255,1.36030689003006
"19",10,40,2,1,19,1,1,1,4,0.387171006440054,1.2106439993081
"20",10,23,2,1,20,1,2,0,4,0.626453324415254,1.58871006170891
"21",10,23,2,2,21,3,2,1,3,0.327720792917462,1.1167126619424
"22",10,36,2,1,22,1,1,1,5,0.455750739300231,1.31899997722718
"23",10,38,2,2,23,1,2,1,4,0.40837268237081,1.24414264727869
"24",10,25,2,2,24,3,2,1,2,0.574115282410826,1.50601595534192
"25",10,20,2,1,25,2,2,0,3,1.01032221861057,2.19522291453751
"26",10,40,2,1,26,2,1,1,4,0.664281647685352,1.64847881247567
"27",10,23,2,1,27,3,2,0,2,0.363580392302839,1.1733708289713
"28",10,20,2,1,28,1,1,1,5,0.5618533313372,1.48664207264559
"29",10,40,2,1,29,2,2,0,2,0.738129859752472,1.76515898754172
"30",10,23,2,1,30,2,1,1,3,0.764468335022627,1.80677377846857
"31",10,23,2,1,31,1,1,1,5,0.357697176473411,1.1640753479608
"32",10,36,2,2,32,1,1,0,4,0.610569746428827,1.56361400849036
"33",10,38,2,1,33,1,1,1,4,0.325982420781719,1.11396603396793
"34",10,25,2,1,34,1,1,1,5,0.404291361346831,1.23769416006081
"35",10,20,2,2,35,1,2,1,5,0.400538388932855,1.23176446364673
"36",10,40,2,2,36,2,2,1,4,0.345243242612696,1.14439813246087
"37",10,23,2,1,37,1,1,1,4,0.400560349209375,1.23179916088363
"38",10,20,2,2,38,3,1,0,1,1.14269255315762,2.40436804312185
"39",10,40,2,1,39,1,1,1,4,0.349436275585413,1.15102312455777
"40",10,23,2,1,40,1,1,1,5,0.323634222219537,1.11025588023968
"41",10,23,2,1,41,1,2,0,4,0.476460698878079,1.35172171336018
"42",10,36,2,2,42,3,2,1,3,0.500213940072176,1.38925183444685
"43",10,38,2,1,43,2,2,0,2,0.685351504397382,1.68176918608068
"44",10,25,2,2,44,1,1,0,4,0.59257261646032,1.53517854314012
"45",10,20,2,2,45,3,1,0,1,0.597877238812866,1.54355984645714
"46",10,40,2,2,46,3,2,1,2,0.908052728715827,2.03363712050382
"47",10,23,2,1,47,3,2,0,1,0.644122677805534,1.61662764006556
"48",10,20,2,2,48,3,1,0,1,0.334055672302499,1.12672177137076
"49",10,40,2,1,49,3,1,1,2,0.624890659883099,1.58624105174811
"50",10,23,2,2,50,2,1,0,2,0.5569056333427,1.47882470981428
"51",10,23,2,2,51,3,2,1,2,0.911362285473987,2.03886622018171
"52",10,36,2,1,52,2,1,1,4,0.596018526828819,1.54062308152235
"53",10,38,2,2,53,2,1,0,2,0.883815310224645,1.99534199928775
"54",10,25,2,2,54,1,2,1,5,0.335169347723035,1.12848137853521
"55",10,20,2,2,55,2,2,1,4,0.704454726677762,1.71195227728368
"56",10,40,2,1,56,2,2,0,3,0.69476067347048,1.69663567321617
"57",10,23,2,1,57,1,1,1,5,0.445639596815912,1.30302437210196
"58",10,20,2,1,58,2,1,1,4,0.749589630923082,1.78326542599128
"59",10,40,2,1,59,3,2,0,1,0.568534597792706,1.49719847364529
"60",10,23,2,1,60,3,2,0,2,0.641264271818936,1.61211135860673
"61",10,23,2,1,61,1,1,1,4,0.312065459971303,1.09197723588747
"62",10,36,2,2,62,3,1,0,2,1.60844131414771,3.14025108548619
"63",10,38,2,1,63,2,2,0,3,0.805195829746215,1.87112322013183
"64",10,25,2,2,64,2,1,0,3,0.612223246565237,1.56622653870589
"65",10,20,2,2,65,3,2,1,2,0.678516496449543,1.67096987352309
"66",10,40,2,2,66,2,2,1,3,0.63499179334671,1.60220084262062
"67",10,23,2,2,67,2,2,1,4,0.555285806719682,1.47626538374991
"68",10,20,2,1,68,3,2,0,1,1.27402864305213,2.61187906515519
"69",10,40,2,1,69,3,1,1,2,0.219311959765489,0.945426705562287
"70",10,23,2,1,70,1,1,1,4,0.33580444498102,1.12948483220283
"71",10,23,2,2,71,1,2,1,5,0.471202742586779,1.34341414241992
"72",10,36,2,1,72,3,1,1,3,1.03017111371023,2.22658416879498
"73",10,38,2,2,73,2,1,0,3,0.703835674275394,1.71097417448794
"74",10,25,2,2,74,2,2,1,3,0.516324508713217,1.4147065328997
"75",10,20,2,1,75,1,1,1,4,0.447349020433378,1.30572526141755
"76",10,40,2,1,76,2,2,0,3,0.492185067467804,1.37656621573194
"77",10,23,2,2,77,1,2,1,5,0.383958644207931,1.20556846698134
"78",10,20,2,2,78,1,1,0,3,0.587853922597692,1.52772300683717
"79",10,40,2,1,79,3,2,0,2,0.946251901562454,2.09399181360149
"80",10,23,2,1,80,2,2,0,2,0.749904644150338,1.78376314689035
"81",10,23,2,1,81,2,2,0,3,0.485144360170986,1.36544189820297
"82",10,36,2,2,82,2,2,1,4,0.484459508000181,1.3643598317731
"83",10,38,2,2,83,3,2,1,3,0.781701098376676,1.83400154456796
"84",10,25,2,2,84,2,2,1,4,0.740147085658572,1.76834620447336
"85",10,20,2,1,85,3,2,0,2,1.91458042542412,3.62395088130293
"86",10,40,2,2,86,2,1,0,2,0.553737935501264,1.47381974722481
"87",10,23,2,2,87,2,1,0,3,0.547247347281847,1.46356461783813
"88",10,20,2,1,88,1,1,1,4,0.317610208864168,1.1007379391382
"89",10,40,2,1,89,2,1,1,3,0.540301588936584,1.45259031965262
"90",10,23,2,1,90,1,1,1,4,0.390166084604744,1.21537622280831
"91",10,23,2,1,91,1,1,1,4,0.466199135535203,1.33550844327843
"92",10,36,2,2,92,1,2,1,5,0.409720009364351,1.24627142392849
"93",10,38,2,1,93,1,1,1,5,0.336501536787141,1.1305862372565
"94",10,25,2,1,94,3,2,0,2,0.457969688319137,1.32250591667705
"95",10,20,2,1,95,1,1,1,4,0.412032398502611,1.24992499876694
"96",10,40,2,1,96,1,2,0,3,0.666323491077492,1.65170492503525
"97",10,23,2,2,97,2,1,0,3,0.795658023202606,1.85605348579293
"98",10,20,2,1,98,3,1,1,3,0.608571705140329,1.56045710325453
"99",10,40,2,1,99,1,1,1,4,0.473768287161419,1.34746770284786
"100",10,23,2,2,100,1,2,1,5,0.479980401471415,1.35728284345765
"101",10,23,2,2,101,1,2,1,5,0.439443077138936,1.29323387101233
"102",10,36,2,2,102,1,2,1,4,0.424194149764179,1.26914056576022
"103",10,38,2,2,103,1,1,0,4,0.436428708391534,1.28847116839144
"104",10,25,2,1,104,1,1,1,5,0.418444746114172,1.26005650799321
"105",10,20,2,1,105,1,1,1,5,0.293013754525174,1.06187554128259
"106",10,40,2,1,106,1,1,1,5,0.582502902193565,1.51926839459865
"107",10,23,2,1,107,2,1,1,4,0.534374711870443,1.44322585388811
"108",10,20,2,2,108,1,2,1,5,0.336064367008089,1.12989550900559
"109",10,40,2,1,109,3,2,0,1,1.29100895091868,2.63870795158433
"110",10,23,2,1,110,2,1,1,3,0.725975080822472,1.74595443683232
"111",10,23,2,2,111,2,1,0,3,0.576441647706063,1.50969161250839
"112",10,36,2,1,112,3,1,1,3,1.2973702667461,2.64875883059165
"113",10,38,2,2,113,3,2,1,2,0.832990021941063,1.91503804379969
"114",10,25,2,1,114,2,2,0,2,0.542661475890517,1.45631894103983
"115",10,20,2,1,115,3,2,0,1,1.35553840206915,2.74066448440208
"116",10,40,2,2,116,3,1,0,1,1.29315232255548,2.64209447877047
"117",10,23,2,2,117,2,1,0,2,0.193095073540954,0.904004025327522
"118",10,20,2,1,118,3,1,1,3,0.602234453232209,1.5504442452397
"119",10,40,2,2,119,3,2,1,3,0.222090870059849,0.949817383827375
"120",10,23,2,2,120,1,2,1,4,0.362065425061623,1.17097718073018
"121",10,23,2,1,121,1,1,1,5,0.338201041764599,1.13327145512088
"122",10,36,2,2,122,2,2,1,4,0.670427646172276,1.65818949008501
"123",10,38,2,2,123,2,1,0,3,1.02164257708029,2.21310908091967
"124",10,25,2,2,124,2,2,1,3,0.527589524118988,1.43250525724082
"125",10,20,2,2,125,3,2,1,2,0.690219811365698,1.68946111109062
"126",10,40,2,1,126,1,1,1,5,0.489730403781178,1.37268784710708
"127",10,23,2,1,127,3,1,1,3,0.742156817525633,1.77152158082331
"128",10,20,2,1,128,3,2,0,2,1.11807141092035,2.36546663838696
"129",10,40,2,1,129,2,2,0,3,0.635707108165646,1.60333104003454
"130",10,23,2,2,130,1,2,1,5,0.380205430497236,1.19963838931845
"131",10,23,2,1,131,1,1,1,4,0.331750810185399,1.12308008922574
"132",10,36,2,1,132,2,1,1,3,0.568641322080733,1.49736709802037
"133",10,38,2,2,133,3,1,0,1,0.834445640282511,1.91733792077918
"134",10,25,2,2,134,2,1,0,3,0.517211452139499,1.41610790351322
"135",10,20,2,2,135,1,2,1,5,0.472808880258042,1.34595183994052
"136",10,40,2,2,136,3,2,1,2,0.722992831602636,1.74124248306498
"137",10,23,2,1,137,2,2,0,3,0.847214480252215,1.93751268793131
"138",10,20,2,2,138,3,2,1,3,0.715650875790844,1.72964219288235
"139",10,40,2,2,139,2,2,1,4,0.48778777776615,1.36961849800333
"140",10,23,2,1,140,3,2,0,2,0.461789122666009,1.32854062294511
"141",10,23,2,2,141,2,2,1,3,0.594193901087024,1.53774017285031
"142",10,36,2,2,142,2,1,0,3,0.323221071931271,1.10960310278422
"143",10,38,2,1,143,2,2,0,3,0.675680719374842,1.66648934574507
"144",10,25,2,2,144,1,2,1,5,0.446713702081305,1.30472145842128
"145",10,20,2,1,145,2,1,1,3,0.759247299816847,1.79852454284343
"146",10,40,2,1,146,2,2,0,2,0.910926790043365,2.03817813740133
"147",10,23,2,1,147,3,1,1,3,0.407681540262191,1.24305064274708
"148",10,20,2,2,148,3,2,1,2,0.510287537430188,1.40516811827251
"149",10,40,2,1,149,3,1,1,2,1.09781942249003,2.33346849666706
"150",10,23,2,2,150,3,2,1,2,0.552914086122541,1.47251806520643
"151",10,23,2,2,151,3,1,0,1,1.01542119289405,2.20327929390541
"152",10,36,2,1,152,3,1,1,2,0.666994748408376,1.65276551161805
"153",10,38,2,2,153,1,2,1,5,0.457113178199557,1.32115263068811
"154",10,25,2,2,154,3,1,0,2,1.03947212380859,2.24127976475039
"155",10,20,2,1,155,3,2,0,1,0.92757502554708,2.0644823494972
"156",10,40,2,2,156,3,1,0,2,1.87401849855066,3.55986303684286
"157",10,23,2,2,157,1,2,1,5,0.477071084146645,1.35268612208451
"158",10,20,2,1,158,3,1,1,2,0.914170397115113,2.04330303657469
"159",10,40,2,1,159,3,1,1,2,1.18868301233632,2.4770329686242
"160",10,23,2,2,160,1,1,0,4,0.557932424708794,1.48044704017271
"161",10,23,2,2,161,3,1,0,2,0.937677160473614,2.08044372268112
"162",10,36,2,2,162,1,2,1,5,0.429393745151196,1.2773559264717
"163",10,38,2,1,163,2,1,1,4,0.526725480095653,1.43114006768395
"164",10,25,2,1,164,1,1,1,4,0.434591809550306,1.2855688682223
"165",10,20,2,2,165,3,2,1,2,0.684042290792983,1.67970062858573
"166",10,40,2,2,166,1,2,1,5,0.339181170728668,1.13482005888411
"167",10,23,2,1,167,1,2,0,4,0.535676456740113,1.44528261078219
"168",10,20,2,1,168,1,1,1,5,0.376046054876379,1.19306657583749
"169",10,40,2,2,169,2,2,1,3,0.806902566471629,1.87381986415799
"170",10,23,2,2,170,3,1,0,2,0.855112919567227,1.94999222204903
"171",10,23,2,1,171,3,1,1,3,0.741193841290214,1.77000007837135
"172",10,36,2,1,172,2,2,0,3,0.964202138934949,2.12235318865003
"173",10,38,2,2,173,1,2,1,4,0.469057604913454,1.34002482489607
"174",10,25,2,2,174,2,1,0,3,0.879890963375822,1.98914153126661
"175",10,20,2,2,175,2,2,1,4,0.728949610586162,1.75065419385895
"176",10,40,2,2,176,3,2,1,2,0.620190847530879,1.5788153482316
"177",10,23,2,2,177,2,1,0,2,0.639304680060488,1.60901520362839
"178",10,20,2,1,178,1,2,0,3,0.467570269383394,1.33767483475858
"179",10,40,2,1,179,1,1,1,5,0.426299497946765,1.2724670158887
"180",10,23,2,2,180,1,2,1,5,0.330614179094453,1.12128421210205
"181",10,23,2,1,181,3,1,1,3,0.83658215282336,1.92071361059372
"182",10,36,2,2,182,3,2,1,3,0.922727832348167,2.05682378424292
"183",10,38,2,2,183,2,1,0,2,0.566726215573437,1.49434122973884
"184",10,25,2,1,184,1,2,0,4,0.566248843625115,1.4935869820605
"185",10,20,2,2,185,3,1,0,1,0.941515787522662,2.08650875341862
"186",10,40,2,1,186,2,2,0,2,0.832893224991899,1.91488510462001
"187",10,23,2,1,187,2,1,1,4,0.667254257763472,1.6531755363991
"188",10,20,2,2,188,1,2,1,4,0.301439309586135,1.07518791827891
"189",10,40,2,2,189,3,2,1,3,0.848160817230081,1.93900790035634
"190",10,23,2,1,190,2,1,1,4,0.496157219158736,1.38284221540362
"191",10,23,2,1,191,2,1,1,3,0.586845406160137,1.52612955086583
"192",10,36,2,2,192,3,1,0,2,1.42471140496307,2.84995782897446
"193",10,38,2,1,193,2,1,1,3,0.535854853374363,1.44556447746431
"194",10,25,2,2,194,1,2,1,4,0.459649595221168,1.32516016958226
"195",10,20,2,1,195,3,1,1,2,0.774746042101871,1.82301255565377
"196",10,40,2,2,196,3,1,0,2,1.28726758227933,2.63279658913416
"197",10,23,2,2,197,3,2,1,3,0.904819528778006,2.02852866460206
"198",10,20,2,1,198,2,2,0,2,0.816467389082345,1.88893228388292
"199",10,40,2,2,199,1,2,1,5,0.445509205555596,1.30281835391066
"200",10,23,2,1,200,3,1,1,2,0.983236590934209,2.15242762280886
"201",10,23,2,2,201,1,2,1,4,0.254005036220431,1.00024176636109
"202",10,36,2,2,202,1,2,1,4,0.273323352154941,1.03076470553762
"203",10,38,2,2,203,3,2,1,3,0.949226948678084,2.09869238804419
"204",10,25,2,1,204,3,2,0,2,1.39494000851202,2.80291902258181
"205",10,20,2,2,205,2,1,0,3,0.858222033590337,1.95490462220555
"206",10,40,2,2,206,2,1,0,3,0.703372376116182,1.71024216339638
"207",10,23,2,2,207,2,1,0,2,0.54769291634373,1.46426861695591
"208",10,20,2,1,208,3,1,1,2,0.570355656967762,1.50007574714188
"209",10,40,2,2,209,2,2,1,3,0.706353489623875,1.71495232273854
"210",10,23,2,2,210,3,1,0,2,0.981922533638404,2.15035141228149
"211",10,23,2,2,211,2,1,0,2,0.671686434269943,1.66017837527932
"212",10,36,2,2,212,2,1,0,2,0.699719880363334,1.70447122010688
"213",10,38,2,2,213,2,2,1,4,0.574769627411864,1.50704982044356
"214",10,25,2,1,214,3,2,0,1,0.97306355595806,2.13635422754655
"215",10,20,2,2,215,3,2,1,3,0.91020537231494,2.03703829739042
"216",10,40,2,2,216,1,2,1,5,0.429907942066246,1.27816835759748
"217",10,23,2,1,217,3,1,1,2,0.723650069397173,1.74228091878035
"218",10,20,2,1,218,3,1,1,3,0.802430814824303,1.86675449655521
"219",10,40,2,1,219,2,1,1,4,0.523903635374852,1.42668155302508
"220",10,23,2,2,220,2,2,1,3,0.467086912324669,1.33691113060579
"221",10,23,2,1,221,1,1,1,5,0.387664873471317,1.21142430921749
"222",10,36,2,2,222,1,2,1,5,0.503718536533976,1.3947890968565
"223",10,38,2,2,223,2,2,1,3,0.570387071302855,1.50012538179133
"224",10,25,2,1,224,1,1,1,5,0.473269780455384,1.34668006225232
"225",10,20,2,1,225,3,1,1,3,0.69918013878324,1.70361842841033
"226",10,40,2,1,226,1,1,1,5,0.416538342112573,1.25704438967068
"227",10,23,2,2,227,2,2,1,3,0.417188384801378,1.25807145711899
"228",10,20,2,1,228,2,1,1,3,0.529460662662655,1.43546165613981
"229",10,40,2,1,229,3,2,0,2,0.993038526826201,2.16791468151821
"230",10,23,2,2,230,1,2,1,5,0.232439803409586,0.96616869851996
"231",10,23,2,1,231,1,1,1,5,0.457681401647672,1.32205042373614
"232",10,36,2,2,232,3,1,0,2,0.362783386171308,1.17211155928348
"233",10,38,2,2,233,3,1,0,2,0.737894768201262,1.76478754289081
"234",10,25,2,1,234,1,1,1,4,0.420214983243723,1.2628534826579
"235",10,20,2,1,235,2,2,0,2,0.613570557821651,1.56835529049102
"236",10,40,2,1,236,3,2,0,1,1.36973695243014,2.76309819397244
"237",10,23,2,2,237,2,2,1,4,0.524990174239759,1.42839828443163
"238",10,20,2,1,238,3,1,1,3,0.829970837347903,1.9102677321425
"239",10,40,2,1,239,2,1,1,4,0.610758377581147,1.56391204571103
"240",10,23,2,1,240,1,1,1,5,0.436070959495963,1.28790592513644
"241",9,34,1,2,1,1,2,1,4,0.40921431300055,0.852730868096618
"242",9,26,1,1,2,1,1,1,5,0.389465282410816,0.82152739976484
"243",9,37,1,2,3,3,1,0,2,1.56539074808952,2.6794896355372
"244",9,33,1,1,4,2,1,1,3,0.664727700581641,1.25644202047474
"245",9,38,1,2,5,2,2,1,3,0.646166908494568,1.22711596897717
"246",9,35,1,1,6,2,2,0,2,0.780621600485562,1.43955438232294
"247",9,35,1,2,7,2,2,1,4,0.48360374327249,0.970266167926284
"248",9,31,1,2,8,1,2,1,5,0.380001855458798,0.806575185180651
"249",9,28,1,2,9,2,1,0,2,0.817424787137749,1.49770341723339
"250",9,31,1,1,10,3,2,0,1,0.885659799684401,1.6055147370571
"251",9,34,1,2,11,3,1,0,1,0.785089258307602,1.44661328168176
"252",9,26,1,2,12,3,2,1,2,1.07131540478459,1.8988505931154
"253",9,37,1,1,13,3,1,1,3,0.789743931223324,1.4539676648886
"254",9,33,1,2,14,2,1,0,2,0.917101322596957,1.65519234325894
"255",9,38,1,2,15,2,1,0,3,0.47348688955752,0.954281539056632
"256",9,35,1,2,16,2,1,0,3,0.531913106066788,1.04659496114127
"257",9,35,1,1,17,2,2,0,2,0.634259939702093,1.20830295828506
"258",9,31,1,1,18,1,1,1,4,0.320762019954493,0.712976245083848
"259",9,28,1,2,19,2,2,1,4,0.348192445209188,0.756316316986267
"260",9,31,1,2,20,2,2,1,3,0.661755191973678,1.25174545687416
"261",9,34,1,2,21,1,2,1,4,0.442539159292726,0.905384125238257
"262",9,26,1,2,22,3,1,0,2,0.864367458569315,1.57187283809527
"263",9,37,1,2,23,2,1,0,3,0.45508614326555,0.925208359915319
"264",9,33,1,2,24,1,1,0,3,0.550773240007784,1.07639397276805
"265",9,38,1,2,25,3,2,1,3,0.764489384801263,1.41406548154174
"266",9,35,1,2,26,1,2,1,4,0.423228894775366,0.874873907300828
"267",9,35,1,2,27,3,1,0,2,0.747788843845573,1.38767862683176
"268",9,31,1,1,28,1,2,0,3,0.443159703237753,0.9063645846714
"269",9,28,1,1,29,3,1,1,3,0.822373554837206,1.50552247019854
"270",9,31,1,2,30,3,2,1,2,0.58070863075167,1.12369189014339
"271",9,34,1,1,31,1,2,0,3,0.648357674706184,1.23057737959152
"272",9,26,1,1,32,3,2,0,2,0.364302598853308,0.781770359743976
"273",9,37,1,1,33,1,1,1,4,0.315172560953205,0.704144899861813
"274",9,33,1,2,34,2,1,0,2,0.605399868185362,1.16270404528862
"275",9,38,1,2,35,1,1,0,4,0.65769736828452,1.24533409544529
"276",9,35,1,2,36,2,1,0,3,0.793430299019759,1.45979212600697
"277",9,35,1,1,37,2,1,1,4,0.680131686732947,1.28078031859381
"278",9,31,1,1,38,3,1,1,3,1.00679174794606,1.79690321531053
"279",9,28,1,1,39,3,2,0,2,1.52565198339951,2.61670238732698
"280",9,31,1,1,40,1,1,1,5,0.424528740800203,0.876927664020071
"281",9,34,1,2,41,1,2,1,5,0.409240817580505,0.852772745332948
"282",9,26,1,2,42,1,2,1,4,0.434237515372834,0.892267527844827
"283",9,37,1,1,43,2,1,1,4,0.558496420182479,1.08859659744407
"284",9,33,1,1,44,1,1,1,4,0.424367804842972,0.876673385207645
"285",9,38,1,1,45,2,1,1,3,0.595207311976853,1.14659980647918
"286",9,35,1,2,46,3,1,0,1,1.12367625783622,1.98158074093698
"287",9,35,1,1,47,2,1,1,4,0.504135379090654,1.00270615251898
"288",9,31,1,1,48,2,1,1,3,0.722687760825814,1.34801891566054
"289",9,28,1,1,49,2,1,1,4,0.605950215294634,1.16357359372127
"290",9,31,1,1,50,2,1,1,4,0.672192475417841,1.26823636471594
"291",9,34,1,2,51,1,2,1,5,0.457080809929412,0.92835993324422
"292",9,26,1,1,52,3,1,1,2,0.878425939575066,1.59408523808435
"293",9,37,1,2,53,1,1,0,4,0.562620200248107,1.09511216994776
"294",9,33,1,2,54,1,2,1,4,0.461929868145489,0.936021445225622
"295",9,38,1,2,55,2,2,1,3,0.714296605817244,1.334760890747
"296",9,35,1,1,56,1,1,1,5,0.480769475077991,0.965788024178975
"297",9,35,1,2,57,1,2,1,5,0.454920384896033,0.924946461691482
"298",9,31,1,2,58,3,1,0,2,0.680329505875203,1.28109287283857
"299",9,28,1,2,59,2,1,0,2,0.474502573971494,0.95588632043071
"300",9,31,1,2,60,1,2,1,5,0.384985939862256,0.814450038538114
"301",9,34,1,1,61,2,1,1,4,0.847481509877825,1.54519303916271
"302",9,26,1,1,62,1,1,1,4,0.479818008661691,0.964284707241222
"303",9,37,1,2,63,2,2,1,4,0.44795260227435,0.913937365149223
"304",9,33,1,2,64,1,2,1,4,0.412280212281196,0.85757498896004
"305",9,38,1,2,65,2,1,0,2,0.63343061852344,1.20699263082278
"306",9,35,1,1,66,1,1,1,5,0.283963578607964,0.654834707756333
"307",9,35,1,1,67,1,1,1,4,0.492754129422205,0.984723778042834
"308",9,31,1,1,68,1,1,1,4,0.536409147769662,1.05369870703182
"309",9,28,1,1,69,1,2,0,4,0.585989380525384,1.13203547478586
"310",9,31,1,2,70,3,2,1,3,0.650788619628215,1.23441827256833
"311",9,34,1,2,71,2,2,1,3,0.787352365375945,1.45018899084974
"312",9,26,1,1,72,3,1,1,3,0.975155950136123,1.74691865477082
"313",9,37,1,1,73,3,1,1,2,0.608708179064822,1.16793117647817
"314",9,33,1,1,74,3,2,0,2,0.94515695316692,1.69952023955948
"315",9,38,1,1,75,1,1,1,5,0.372600273372629,0.794880685484503
"316",9,35,1,2,76,3,1,0,1,0.734815334774344,1.36718048249921
"317",9,35,1,1,77,2,2,0,2,0.689972032267292,1.29632806453807
"318",9,31,1,1,78,1,2,0,4,0.358893579879812,0.773224109765853
"319",9,28,1,2,79,1,2,1,5,0.384573029653662,0.813797640408536
"320",9,31,1,1,80,2,1,1,3,0.647117519254539,1.22861793397792
"321",9,34,1,1,81,1,2,0,3,0.477742285607759,0.961005064816008
"322",9,26,1,1,82,3,1,1,2,0.753273943541372,1.39634508435112
"323",9,37,1,2,83,2,2,1,3,0.706905485470421,1.32308292059901
"324",9,33,1,2,84,1,2,1,5,0.36485741521864,0.782646969601201
"325",9,38,1,1,85,3,1,1,3,0.635858635884041,1.21082889825253
"326",9,35,1,2,86,2,2,1,4,0.761429828565165,1.40923138268871
"327",9,35,1,1,87,2,2,0,3,0.921054068714529,1.6614376821247
"328",9,31,1,2,88,3,1,0,1,1.10139356068382,1.94637407943618
"329",9,28,1,2,89,1,2,1,4,0.289822031282893,0.66409106298272
"330",9,31,1,2,90,1,2,1,4,0.466107064746587,0.942621415855357
"331",9,34,1,2,91,2,2,1,4,0.371859038386296,0.793709534206098
"332",9,26,1,1,92,1,1,1,5,0.376537946645845,0.801102209256185
"333",9,37,1,2,93,3,1,0,2,1.05002795054019,1.86521641540924
"334",9,33,1,1,94,2,1,1,3,0.68007610829393,1.28069250466016
"335",9,38,1,2,95,3,1,0,1,0.615819290565858,1.17916673264981
"336",9,35,1,1,96,1,2,0,3,0.577031455547167,1.11788195332027
"337",9,35,1,1,97,2,1,1,4,0.453782982342313,0.923149365656604
"338",9,31,1,2,98,1,2,1,5,0.341483018337294,0.745715422528674
"339",9,28,1,2,99,3,1,0,1,1.38830866367751,2.39969994216621
"340",9,31,1,2,100,3,2,1,2,1.00671690309627,1.79678496044785
"341",9,34,1,2,101,1,2,1,5,0.370457848930047,0.791495654865225
"342",9,26,1,1,102,3,2,0,2,1.27697075157028,2.22378604103679
"343",9,37,1,1,103,2,2,0,2,0.590395298054482,1.13899682448183
"344",9,33,1,2,104,1,2,1,5,0.449911278543516,0.917032073654505
"345",9,38,1,2,105,3,1,0,2,0.864499371301029,1.57208126021138
"346",9,35,1,1,106,3,1,1,3,1.27787582251944,2.22521605313646
"347",9,35,1,1,107,3,1,1,3,0.720126288473341,1.34397178934363
"348",9,31,1,2,108,1,1,0,3,0.560125056458413,1.09116984276004
"349",9,28,1,1,109,3,1,1,3,0.916331553617964,1.65397610827213
"350",9,31,1,1,110,1,2,0,4,0.575354355594258,1.11523213539468
"351",9,34,1,2,111,2,2,1,4,0.733303957619012,1.36479250659379
"352",9,26,1,1,112,1,1,1,5,0.310007663390504,0.695984361712746
"353",9,37,1,2,113,3,2,1,2,0.871566588485151,1.58324746336229
"354",9,33,1,1,114,3,2,0,1,0.861620953019539,1.56753335932662
"355",9,38,1,1,115,3,1,1,3,0.7784369772482,1.43610267760791
"356",9,35,1,2,116,3,2,1,2,0.594099073087862,1.14484878903457
"357",9,35,1,1,117,3,2,0,2,1.4546984647819,2.50459582791116
"358",9,31,1,2,118,3,2,1,3,0.814488841511893,1.49306462314454
"359",9,28,1,2,119,3,1,0,2,0.705681954789075,1.32114974212249
"360",9,31,1,1,120,1,1,1,4,0.431708567577186,0.888271790327704
"361",9,34,1,2,121,1,1,0,4,0.649997395744501,1.23316813883206
"362",9,26,1,2,122,3,2,1,3,0.701580612161511,1.31466962077094
"363",9,37,1,2,123,1,1,0,4,0.613497562469934,1.17549840225825
"364",9,33,1,1,124,3,1,1,3,0.600689210572479,1.15526120626027
"365",9,38,1,1,125,3,2,0,1,0.755129265052797,1.39927649233917
"366",9,35,1,2,126,3,2,1,3,0.546301647699585,1.06932885692109
"367",9,35,1,1,127,2,2,0,2,0.619643530675943,1.18520903202374
"368",9,31,1,1,128,2,1,1,3,0.598374363071816,1.15160374720922
"369",9,28,1,2,129,2,2,1,3,0.551647120093657,1.07777470330373
"370",9,31,1,1,130,3,1,1,2,0.87947430558278,1.59574165637654
"371",9,34,1,1,131,2,1,1,4,0.570299669226794,1.10724573093408
"372",9,26,1,1,132,1,1,1,5,0.562769790750784,1.09534852294199
"373",9,37,1,2,133,1,2,1,4,0.297375757208761,0.676025949945593
"374",9,33,1,1,134,1,1,1,4,0.337029934723431,0.738679550418771
"375",9,38,1,2,135,2,2,1,3,0.742699154711364,1.3796369179997
"376",9,35,1,2,136,2,2,1,4,0.536127826584313,1.05325421955896
"377",9,35,1,1,137,1,1,1,4,0.407054565433327,0.849318466940407
"378",9,31,1,2,138,1,2,1,4,0.463933776893161,0.939187621046944
"379",9,28,1,2,139,3,2,1,2,1.0156241970873,1.81085848495368
"380",9,31,1,1,140,3,1,1,3,0.573377037322188,1.11210797252481
"381",9,34,1,1,141,1,1,1,5,0.337519253927322,0.739452674760918
"382",9,26,1,1,142,3,2,0,1,1.25914782425969,2.19562581588606
"383",9,37,1,2,143,2,1,0,2,0.630585005465354,1.20249656219101
"384",9,33,1,1,144,2,1,1,4,0.768202165553973,1.41993167513103
"385",9,38,1,2,145,3,2,1,3,0.916718825089287,1.65458799719682
"386",9,35,1,2,146,2,2,1,3,0.86474229299876,1.57246507649379
"387",9,35,1,2,147,1,2,1,4,0.448211098326213,0.914345788911166
"388",9,31,1,2,148,1,2,1,4,0.383804475655562,0.812583325091538
"389",9,28,1,1,149,1,1,1,4,0.51124318504053,1.01393648591979
"390",9,31,1,1,150,1,1,1,4,0.462600924143273,0.937081713702121
"391",9,34,1,1,151,2,1,1,3,0.482289505477094,0.968189672209559
"392",9,26,1,2,152,2,2,1,3,0.561175332943329,1.09282927960621
"393",9,37,1,1,153,2,1,1,3,0.549699935588465,1.07469815178552
"394",9,33,1,1,154,1,1,1,5,0.31672162277429,0.706592417539128
"395",9,38,1,1,155,1,2,0,4,0.439249413356576,0.90018632665914
"396",9,35,1,2,156,1,2,1,4,0.436125133812053,0.895249964978793
"397",9,35,1,2,157,3,1,0,2,0.999791623542008,1.78584301875212
"398",9,31,1,2,158,2,1,0,3,0.517903708259344,1.02446011260551
"399",9,28,1,2,159,1,2,1,5,0.48148145455384,0.966912951750817
"400",9,31,1,2,160,1,2,1,5,0.501460833837673,0.998480371019274
"401",9,34,1,1,161,2,1,1,4,0.759260699245593,1.40580415836379
"402",9,26,1,1,162,3,2,0,1,0.530802036592991,1.04483947137268
"403",9,37,1,1,163,3,1,1,2,0.872461765795082,1.58466184351198
"404",9,33,1,2,164,1,2,1,5,0.473328376009809,0.954031087651248
"405",9,38,1,1,165,2,2,0,3,0.711410048320572,1.33020012990225
"406",9,35,1,2,166,3,2,1,3,0.957297565051239,1.71870240633671
"407",9,35,1,2,167,3,1,0,1,1.04170529169336,1.85206661443126
"408",9,31,1,1,168,2,2,0,3,0.64000721333421,1.2173836506238
"409",9,28,1,1,169,2,1,1,3,0.717831108773983,1.34034540541864
"410",9,31,1,1,170,2,2,0,2,0.905626669670716,1.63706239163548
"411",9,34,1,1,171,1,2,0,4,0.452689274631852,0.921421307474076
"412",9,26,1,1,172,3,2,0,2,1.13564817423351,2.00049636884469
"413",9,37,1,1,173,3,1,1,3,0.985236252134981,1.76284553192902
"414",9,33,1,2,174,1,1,0,4,0.598462708474997,1.15174333294625
"415",9,38,1,1,175,3,2,0,2,1.02365142994281,1.8235415128654
"416",9,35,1,2,176,1,2,1,5,0.364325293841832,0.781806217825845
"417",9,35,1,2,177,2,1,0,3,0.634856605472275,1.20924569020194
"418",9,31,1,1,178,2,1,1,4,0.746062146821659,1.38495044553397
"419",9,28,1,2,179,2,2,1,4,0.494031593375859,0.986742171089607
"420",9,31,1,1,180,2,1,1,4,0.526895036094818,1.03866641058556
"421",9,34,1,1,181,3,1,1,2,0.816532790655948,1.49629406279215
"422",9,26,1,1,182,1,1,1,5,0.405919284377478,0.847524722872164
"423",9,37,1,1,183,2,1,1,4,0.399718441914483,0.837727391780633
"424",9,33,1,2,184,2,2,1,3,0.627242775750349,1.1972158392413
"425",9,38,1,2,185,3,1,0,1,0.50621102135294,1.00598566729339
"426",9,35,1,1,186,1,1,1,4,0.438763456217654,0.899418514379644
"427",9,35,1,2,187,1,2,1,5,0.428912580416428,0.883854130613706
"428",9,31,1,2,188,3,1,0,2,0.917888634064157,1.65643629537712
"429",9,28,1,1,189,1,1,1,4,0.421672764546982,0.872415221539981
"430",9,31,1,1,190,1,2,0,4,0.494584070861175,0.987615085516406
"431",9,34,1,2,191,3,2,1,3,0.760145358568128,1.40720192009339
"432",9,26,1,1,192,2,1,1,3,0.582259512898753,1.12614228393578
"433",9,37,1,1,193,3,1,1,2,0.722333176060388,1.34745867173116
"434",9,33,1,1,194,2,2,0,2,0.662260613392062,1.25254402271521
"435",9,38,1,1,195,1,1,1,4,0.317001467184311,0.707034571706961
"436",9,35,1,1,196,3,1,1,2,0.913572201930913,1.64961633260659
"437",9,35,1,1,197,3,1,1,3,0.490605292264037,0.981328615332929
"438",9,31,1,2,198,3,1,0,2,1.40863882415817,2.43182159572567
"439",9,28,1,1,199,2,1,1,4,0.682790758132305,1.28498165140479
"440",9,31,1,2,200,3,1,0,2,0.906702200212268,1.63876172989113
"441",9,34,1,2,201,1,2,1,4,0.301304395883226,0.682233199051247
"442",9,26,1,1,202,3,1,1,2,0.981540086638295,1.75700559044426
"443",9,37,1,2,203,1,2,1,4,0.365085579227053,0.783007468734494
"444",9,33,1,2,204,3,2,1,2,0.928101852720482,1.67257318085411
"445",9,38,1,1,205,1,1,1,5,0.43264667516846,0.889754000321917
"446",9,35,1,2,206,3,1,0,2,0.191600528174509,0.508901088071474
"447",9,35,1,2,207,2,1,0,3,0.650203026376951,1.23349303523133
"448",9,31,1,1,208,3,1,1,2,0.740728686758278,1.37652357863383
"449",9,28,1,2,209,2,2,1,4,0.355884437315666,0.768469664514503
"450",9,31,1,1,210,2,2,0,3,0.7111020443295,1.32971348359636
"451",9,34,1,2,211,1,1,0,3,0.576665678434572,1.11730402548237
"452",9,26,1,1,212,1,1,1,5,0.370821454908997,0.792070152311966
"453",9,37,1,2,213,1,2,1,5,0.46192634299622,0.936015875489778
"454",9,33,1,2,214,2,2,1,3,0.695603964089587,1.3052265168173
"455",9,38,1,2,215,3,2,1,2,0.704623246710269,1.31947698335798
"456",9,35,1,1,216,3,2,0,2,0.860594572943382,1.56591167880629
"457",9,35,1,1,217,2,2,0,2,0.792345594401236,1.4580782927097
"458",9,31,1,2,218,2,2,1,3,0.702267771377838,1.31575533233273
"459",9,28,1,1,219,3,1,1,3,0.83353596435711,1.52315907723998
"460",9,31,1,2,220,1,2,1,5,0.371596186782295,0.793294228671776
"461",9,34,1,1,221,2,1,1,4,0.521027671503374,1.02939597453108
"462",9,26,1,1,222,3,2,0,1,1.3225685491927,2.29583056128021
"463",9,37,1,1,223,2,2,0,3,0.529488130132584,1.04276349916523
"464",9,33,1,1,224,2,1,1,4,0.693647503058273,1.30213530838782
"465",9,38,1,2,225,2,2,1,4,0.709687007719907,1.3274777257532
"466",9,35,1,2,226,3,2,1,3,0.587262975798313,1.13404775531708
"467",9,35,1,1,227,2,1,1,4,0.485230522350918,0.9728364788702
"468",9,31,1,2,228,2,2,1,4,0.528916075876278,1.04185965344027
"469",9,28,1,1,229,1,1,1,5,0.383318192854738,0.811814998266236
"470",9,31,1,1,230,1,1,1,4,0.449742072146827,0.916764727547736
"471",9,34,1,1,231,1,1,1,5,0.397494530842126,0.834213612286309
"472",9,26,1,1,232,2,1,1,3,0.609873700377943,1.1697727001529
"473",9,37,1,2,233,3,1,0,1,0.881010126355324,1.59816825319716
"474",9,33,1,2,234,2,2,1,4,0.530919099809197,1.04502443125428
"475",9,38,1,2,235,3,1,0,1,1.2659872511281,2.20643211033814
"476",9,35,1,1,236,3,2,0,2,1.21972013823692,2.13333007197009
"477",9,35,1,2,237,2,1,0,3,0.560513937361963,1.09178427458765
"478",9,31,1,2,238,3,1,0,2,1.15439608708857,2.03011807115569
"479",9,28,1,2,239,2,2,1,3,0.672361965726496,1.26850415940361
"480",9,31,1,2,240,3,2,1,2,0.935790586754091,1.68472138062721
"481",8,25,2,2,1,1,2,1,5,0.447355194779502,0.508551355580414
"482",8,29,2,1,2,2,1,1,3,0.501894175351073,0.594722944883496
"483",8,36,2,1,3,3,1,1,2,0.647452861696636,0.824705669309485
"484",8,24,2,2,4,1,2,1,5,0.379689013232585,0.401638788736284
"485",8,26,2,1,5,2,1,1,4,0.440398841701087,0.497560317716517
"486",8,24,2,1,6,3,2,0,1,0.507858144242385,0.604146015731769
"487",8,18,2,2,7,2,2,1,4,0.586282917925728,0.72805715815145
"488",8,29,2,2,8,2,2,1,4,0.59791173191676,0.746430684257281
"489",8,26,2,1,9,3,2,0,1,0.925466239206447,1.26396680577499
"490",8,40,2,1,10,3,2,0,1,1.90348341894872,2.80923394976777
"491",8,25,2,1,11,2,2,0,2,0.440279385266187,0.497371576549375
"492",8,29,2,2,12,1,1,0,3,0.606427428726431,0.759885485216561
"493",8,36,2,2,13,2,1,0,2,0.940016981057062,1.28695697789896
"494",8,24,2,1,14,3,2,0,1,1.15845609091502,1.63209077147454
"495",8,26,2,2,15,2,1,0,3,0.728771160439023,0.953188581322456
"496",8,24,2,2,16,2,2,1,4,0.505526127079105,0.600461428613785
"497",8,18,2,2,17,1,2,1,4,0.609194504873378,0.764257465528738
"498",8,29,2,2,18,1,2,1,5,0.389464256162636,0.417083672565765
"499",8,26,2,1,19,3,1,1,3,0.634386775805567,0.804061253601596
"500",8,40,2,2,20,1,2,1,5,0.343922586603336,0.345127834662071
"501",8,25,2,1,21,2,1,1,3,0.531271404261042,0.641138966561246
"502",8,29,2,1,22,2,1,1,3,0.515391163812925,0.616048186653221
"503",8,36,2,2,23,3,2,1,2,0.501261315554868,0.593723026405492
"504",8,24,2,2,24,2,2,1,4,0.585983792493868,0.727584539969112
"505",8,26,2,1,25,3,2,0,1,0.591302884358714,0.735988705115569
"506",8,24,2,1,26,2,2,0,2,0.697668585656101,0.904046513165439
"507",8,18,2,1,27,2,2,0,2,1.01819048161914,1.41047110878704
"508",8,29,2,2,28,3,2,1,2,0.914271410659162,1.24627897667028
"509",8,26,2,1,29,3,2,0,1,0.404019724221067,0.440081312098086
"510",8,40,2,2,30,1,2,1,5,0.356099707289722,0.364367685346561
"511",8,25,2,1,31,2,1,1,4,0.392575217700998,0.421998991796376
"512",8,29,2,2,32,2,2,1,3,0.663137368569141,0.849487190168043
"513",8,36,2,2,33,2,2,1,3,0.625780471045837,0.790463292081223
"514",8,24,2,2,34,1,2,1,4,0.370000890378865,0.386331554627406
"515",8,26,2,1,35,3,1,1,2,0.560253732991497,0.686931045955364
"516",8,24,2,1,36,2,2,0,3,0.778216558124218,1.03131230966506
"517",8,18,2,2,37,3,2,1,3,0.618315022314984,0.778667883086475
"518",8,29,2,1,38,1,1,1,4,0.420333110416713,0.465856462287206
"519",8,26,2,1,39,3,2,0,1,1.37346336545174,1.97180226524255
"520",8,40,2,1,40,1,1,1,4,0.467367553689032,0.54017088265747
"521",8,25,2,1,41,1,1,1,5,0.375926858541547,0.395694584324445
"522",8,29,2,2,42,2,1,0,2,0.931230260225897,1.27307395898572
"523",8,36,2,1,43,2,1,1,3,0.645828099792656,0.822138545501196
"524",8,24,2,2,44,3,2,1,3,0.83556495791918,1.1219227813411
"525",8,26,2,1,45,3,2,0,2,1.23330952003239,1.75035918947998
"526",8,24,2,2,46,2,2,1,4,0.793621487007659,1.0556520973009
"527",8,18,2,1,47,1,1,1,5,0.538220212945384,0.652118084282507
"528",8,29,2,1,48,2,1,1,4,0.652948935351025,0.83338946568342
"529",8,26,2,1,49,2,2,0,3,0.577754105596341,0.714581634671019
"530",8,40,2,1,50,2,1,1,3,0.662617792328292,0.848666259707501
"531",8,25,2,2,51,1,2,1,5,0.537981488509203,0.651740899673341
"532",8,29,2,2,52,1,2,1,5,0.417672991010284,0.461653473625048
"533",8,36,2,1,53,3,2,0,2,1.72443428044018,2.52633631092429
"534",8,24,2,2,54,1,2,1,5,0.341813683850917,0.341795768313249
"535",8,26,2,2,55,2,1,0,3,0.561714867482602,0.689239638451311
"536",8,24,2,1,56,2,1,1,3,0.613266042360486,0.770690494758368
"537",8,18,2,1,57,3,2,0,1,0.940270815884429,1.2873580369262
"538",8,29,2,1,58,2,1,1,3,0.626635398847689,0.791814078008149
"539",8,26,2,2,59,1,1,0,3,0.438802112489629,0.495037485562414
"540",8,40,2,1,60,2,1,1,3,0.475939806738888,0.553715042476243
"541",8,25,2,2,61,2,1,0,2,0.745232839267564,0.979198033871551
"542",8,29,2,2,62,2,2,1,3,0.477791066070191,0.556640032219702
"543",8,36,2,1,63,3,1,1,3,1.14362683625875,1.60866054911762
"544",8,24,2,1,64,3,1,1,3,0.502394023750084,0.595512705353933
"545",8,26,2,2,65,2,1,0,3,0.668902154524443,0.85859555197742
"546",8,24,2,1,66,3,1,1,2,0.813767838472413,1.08748333261521
"547",8,18,2,2,67,2,2,1,3,0.490908454812801,0.577365506433025
"548",8,29,2,2,68,1,1,0,3,0.544736154736409,0.662413272312326
"549",8,26,2,1,69,3,1,1,2,0.677158445124841,0.871640491126049
"550",8,40,2,1,70,2,1,1,4,0.709374420607403,0.922541732388496
"551",8,25,2,2,71,3,1,0,2,1.3301435073135,1.90335688938413
"552",8,29,2,1,72,1,1,1,4,0.506180139815885,0.601494768737898
"553",8,36,2,1,73,3,2,0,2,1.97960907189574,2.92951248142407
"554",8,24,2,2,74,3,2,1,3,0.825169436477175,1.10549785746274
"555",8,26,2,2,75,1,2,1,4,0.588609329923316,0.73173288910764
"556",8,24,2,1,76,3,1,1,2,0.709057722076699,0.922041348709984
"557",8,18,2,1,77,3,2,0,2,1.22170140714539,1.73201837111852
"558",8,29,2,2,78,3,1,0,1,0.907762354232288,1.23599466751581
"559",8,26,2,1,79,3,2,0,1,0.282113766633115,0.247469899109121
"560",8,40,2,2,80,1,2,1,4,0.468504582113313,0.541967387567835
"561",8,25,2,2,81,3,2,1,3,0.834278921942316,1.11989084449766
"562",8,29,2,2,82,1,1,0,4,0.461626227542265,0.531099587345579
"563",8,36,2,2,83,3,1,0,1,1.29242293962277,1.84375839243277
"564",8,24,2,2,84,1,1,0,3,0.509122407319641,0.606143551393832
"565",8,26,2,1,85,3,1,1,3,0.893970410229266,1.21420339599104
"566",8,24,2,2,86,2,2,1,3,0.616920604521232,0.776464702972346
"567",8,18,2,2,87,2,2,1,3,0.503102296855253,0.5966317768601
"568",8,29,2,2,88,3,1,0,2,0.458857111277517,0.526724383647277
"569",8,26,2,1,89,2,2,0,2,0.49311288016718,0.580848498492944
"570",8,40,2,1,90,3,2,0,2,0.500256954113519,0.59213613532816
"571",8,25,2,1,91,1,1,1,5,0.401089082858463,0.435450898745172
"572",8,29,2,1,92,1,1,1,5,0.43565686757108,0.490067998591106
"573",8,36,2,2,93,1,2,1,5,0.355273785584596,0.363062729052461
"574",8,24,2,1,94,3,2,0,1,1.01424639867563,1.4042394577363
"575",8,26,2,1,95,2,1,1,4,0.59414771269608,0.740483533888606
"576",8,24,2,1,96,1,1,1,4,0.459464116397264,0.527683451736478
"577",8,18,2,2,97,3,2,1,2,0.82701209743223,1.10840926177172
"578",8,29,2,2,98,1,2,1,4,0.4328353025597,0.485609925873125
"579",8,26,2,2,99,1,2,1,5,0.442978319583477,0.501635892770694
"580",8,40,2,1,100,1,1,1,5,0.400902101677776,0.435155468479686
"581",8,25,2,2,101,2,2,1,4,0.597817572440092,0.746281912284145
"582",8,29,2,2,102,2,2,1,4,0.53294080474654,0.643776619328333
"583",8,36,2,2,103,2,2,1,4,0.529446958373694,0.638256342059237
"584",8,24,2,2,104,3,1,0,2,1.5132675889515,2.19269293837217
"585",8,26,2,2,105,1,2,1,4,0.365147543180565,0.378663266054093
"586",8,24,2,2,106,3,1,0,1,1.35330739389971,1.93995583019034
"587",8,18,2,1,107,3,1,1,2,1.16115892065534,1.63636124246424
"588",8,29,2,1,108,1,1,1,5,0.256090698852642,0.206353452015975
"589",8,26,2,1,109,2,2,0,2,0.756362607780273,0.996783068121632
"590",8,40,2,1,110,1,1,1,4,0.412619210013442,0.453668499650039
"591",8,25,2,2,111,3,2,1,3,0.971267672761889,1.33633307079258
"592",8,29,2,1,112,1,1,1,4,0.46836413482391,0.541745480850578
"593",8,36,2,2,113,2,2,1,3,0.359288041558526,0.369405253491271
"594",8,24,2,1,114,2,2,0,3,0.555571497294243,0.679533113553703
"595",8,26,2,1,115,2,1,1,4,0.543177639934075,0.659950818924639
"596",8,24,2,2,116,2,2,1,4,0.638066180369477,0.809874712812574
"597",8,18,2,1,117,1,2,0,3,0.497506037598912,0.58778968723508
"598",8,29,2,1,118,3,1,1,2,0.87991562039797,1.19199682805759
"599",8,26,2,2,119,3,2,1,2,0.874181782921385,1.18293736484459
"600",8,40,2,1,120,1,1,1,5,0.31570163790316,0.300538735715793
"601",8,25,2,1,121,1,1,1,4,0.394022411448637,0.424285557917647
"602",8,29,2,2,122,3,1,0,2,1.17392461834834,1.65653104481917
"603",8,36,2,2,123,1,2,1,5,0.523534560382486,0.628914753233127
"604",8,24,2,2,124,2,2,1,4,0.86091730371759,1.16197948770259
"605",8,26,2,1,125,1,1,1,5,0.411068815572306,0.451218876433044
"606",8,24,2,1,126,3,2,0,1,0.887802504376871,1.20445810474426
"607",8,18,2,2,127,3,2,1,3,1.02433981807411,1.4201870603859
"608",8,29,2,2,128,1,2,1,5,0.475778060765422,0.553459483838167
"609",8,26,2,2,129,1,2,1,4,0.347368094439281,0.350571737042863
"610",8,40,2,2,130,1,2,1,4,0.287065759343853,0.255294047592088
"611",8,25,2,2,131,3,2,1,2,0.895962084965728,1.21735024207465
"612",8,29,2,2,132,1,2,1,4,0.354112656052486,0.361228144391727
"613",8,36,2,2,133,2,2,1,4,0.70030157364186,0.908206634182938
"614",8,24,2,2,134,2,2,1,3,0.605933624120547,0.759105273939264
"615",8,26,2,2,135,2,2,1,4,0.302651889480622,0.279920133208183
"616",8,24,2,2,136,1,2,1,4,0.34781450732564,0.351277069403311
"617",8,18,2,2,137,1,2,1,4,0.514399829560869,0.614481878534973
"618",8,29,2,1,138,1,1,1,5,0.344054852683698,0.345336815069042
"619",8,26,2,1,139,1,1,1,4,0.430323792696465,0.481641740289214
"620",8,40,2,2,140,1,2,1,4,0.24585815505533,0.190186032816221
"621",8,25,2,2,141,3,2,1,3,1.02230704438542,1.41697527795777
"622",8,29,2,1,142,2,1,1,3,0.503081495025328,0.596598909968819
"623",8,36,2,2,143,1,2,1,4,0.426939213641537,0.476294105382428
"624",8,24,2,1,144,1,2,0,3,0.550970083133601,0.67226287917989
"625",8,26,2,2,145,2,1,0,2,0.778759023486518,1.0321694049375
"626",8,24,2,1,146,3,1,1,2,0.948321740069682,1.3000784971389
"627",8,18,2,1,147,2,1,1,3,0.631777080961858,0.799937935748536
"628",8,29,2,2,148,1,1,0,4,0.569959569417338,0.702266267508194
"629",8,26,2,2,149,1,2,1,5,0.357874567308009,0.367171964175455
"630",8,40,2,1,150,3,2,0,2,0.652871271783723,0.833266757247083
"631",8,25,2,1,151,3,1,1,2,0.887189943111652,1.20349025794521
"632",8,29,2,1,152,1,1,1,5,0.378930293629456,0.40044001176334
"633",8,36,2,2,153,1,2,1,4,0.358849520361469,0.368712389999922
"634",8,24,2,1,154,1,1,1,5,0.280694341849357,0.245227207950783
"635",8,26,2,1,155,3,1,1,2,0.403951765400643,0.439973937161816
"636",8,24,2,1,156,2,1,1,4,0.552467883964853,0.674629404493267
"637",8,18,2,1,157,1,1,1,4,0.503838043382249,0.597794256372753
"638",8,29,2,1,158,2,1,1,4,0.600187445909798,0.750026312366281
"639",8,26,2,2,159,2,1,0,3,0.747928385422762,0.983456996796764
"640",8,40,2,2,160,1,1,0,4,0.751403105753448,0.988947054919248
"641",8,25,2,2,161,2,1,0,3,0.588318368857612,0.731273170623828
"642",8,29,2,1,162,1,1,1,4,0.351857134361,0.35766442011918
"643",8,36,2,2,163,2,1,0,3,0.826553722772596,1.1076850298095
"644",8,24,2,1,164,3,2,0,2,0.703875453200761,0.913853363886002
"645",8,26,2,2,165,1,2,1,4,0.458629480525408,0.526364727058944
"646",8,24,2,2,166,3,1,0,2,0.960480332525888,1.3192890732197
"647",8,18,2,1,167,3,2,0,1,1.28472746649312,1.83159954488792
"648",8,29,2,1,168,2,2,0,3,1.03623817707491,1.43898646760716
"649",8,26,2,1,169,2,1,1,4,0.593149032163002,0.738905618646343
"650",8,40,2,1,170,1,2,0,4,0.390339307746261,0.418466254067892
"651",8,25,2,2,171,3,2,1,3,1.04545730994697,1.45355269754502
"652",8,29,2,1,172,1,1,1,4,0.464869867524482,0.536224538517481
"653",8,36,2,2,173,2,1,0,3,0.703857723416131,0.913825350826287
"654",8,24,2,2,174,2,2,1,3,0.593533706651842,0.73951340433871
"655",8,26,2,1,175,1,2,0,4,0.623774967129582,0.78729459589354
"656",8,24,2,2,176,3,2,1,3,0.737379619705466,0.966789946963437
"657",8,18,2,1,177,3,1,1,3,0.901190757952735,1.22561154539412
"658",8,29,2,1,178,2,2,0,3,0.796517349116661,1.06022755943312
"659",8,26,2,1,179,1,1,1,5,0.360764788799683,0.371738514132299
"660",8,40,2,1,180,2,1,1,4,0.646336100387512,0.822941186441069
"661",8,25,2,1,181,2,2,0,3,0.76626481341667,1.01242855302714
"662",8,29,2,2,182,3,2,1,3,0.452443419502724,0.516590750643104
"663",8,36,2,1,183,3,2,0,1,0.829503378246545,1.11234548545834
"664",8,24,2,1,184,2,1,1,3,0.726423660073513,0.94947953074495
"665",8,26,2,1,185,1,1,1,5,0.380291936211686,0.402591407043265
"666",8,24,2,1,186,2,1,1,3,0.536559477647242,0.649494122511442
"667",8,18,2,1,187,2,2,0,3,0.741078838657062,0.972634712906958
"668",8,29,2,2,188,2,2,1,4,0.698992269052947,0.906137932932457
"669",8,26,2,2,189,3,1,0,2,1.09209211696707,1.52723569263677
"670",8,40,2,1,190,1,1,1,5,0.373334204823981,0.39159819145069
"671",8,25,2,2,191,3,2,1,3,0.910860539305415,1.24088979993136
"672",8,29,2,1,192,2,2,0,3,0.584202660013638,0.724770350650347
"673",8,36,2,1,193,2,2,0,3,0.815872487021943,1.09080867732347
"674",8,24,2,2,194,3,1,0,1,0.922270863242305,1.25891811175164
"675",8,26,2,2,195,3,2,1,3,0.89945450214336,1.22286826121531
"676",8,24,2,1,196,1,2,0,3,0.583738659076814,0.724037229170167
"677",8,18,2,2,197,1,2,1,4,0.457734033136205,0.524949920184003
"678",8,29,2,2,198,2,2,1,4,0.241765441474859,0.183719545359078
"679",8,26,2,2,199,1,2,1,5,0.253145003344356,0.201699253112882
"680",8,40,2,1,200,3,1,1,2,0.95894313498766,1.3168603011093
"681",8,25,2,1,201,1,1,1,5,0.262651284205141,0.216719176872922
"682",8,29,2,1,202,1,2,0,4,0.584684035312062,0.725530923621858
"683",8,36,2,1,203,3,2,0,1,0.749017606611517,0.985177966274997
"684",8,24,2,2,204,3,1,0,1,0.908956853968664,1.23788197709929
"685",8,26,2,1,205,3,2,0,1,1.39303355243112,2.00272316066997
"686",8,24,2,1,206,2,1,1,3,0.434174862026252,0.487726429830278
"687",8,18,2,2,207,1,2,1,4,0.4264980020802,0.475596991115516
"688",8,29,2,1,208,3,2,0,1,0.90947100472802,1.23869433529907
"689",8,26,2,2,209,3,2,1,3,0.889718272686289,1.20748501867314
"690",8,40,2,1,210,1,1,1,4,0.496054449349722,0.58549617780136
"691",8,25,2,2,211,1,2,1,5,0.489153105423598,0.574592054398085
"692",8,29,2,2,212,1,2,1,5,0.44367119947944,0.502730643006315
"693",8,36,2,2,213,2,2,1,4,0.646847203008385,0.823748728582049
"694",8,24,2,1,214,1,1,1,5,0.310344862165222,0.29207503004985
"695",8,26,2,1,215,1,1,1,5,0.350085749160311,0.354865631502091
"696",8,24,2,2,216,2,2,1,4,0.688788572894213,0.890016093001656
"697",8,18,2,2,217,3,1,0,1,0.831883791819577,1.11610653890373
"698",8,29,2,2,218,1,2,1,4,0.370232265475411,0.38669712727995
"699",8,26,2,2,219,1,2,1,5,0.44597139465753,0.506364951387697
"700",8,40,2,1,220,3,1,1,2,0.754884870583915,0.994448243351385
"701",8,25,2,1,221,3,2,0,1,0.830134013725719,1.11334188951544
"702",8,29,2,2,222,3,2,1,3,0.792882722055749,1.05448484867688
"703",8,36,2,2,223,2,1,0,2,0.782709486272879,1.03841113613995
"704",8,24,2,1,224,3,2,0,2,0.804243582173378,1.07243500766274
"705",8,26,2,2,225,3,2,1,2,0.648750525323384,0.826755977839747
"706",8,24,2,2,226,3,1,0,2,1.02080584395785,1.4146033812822
"707",8,18,2,2,227,3,1,0,1,1.08794619077527,1.52068512925373
"708",8,29,2,2,228,3,2,1,2,0.883074155591711,1.1969873136637
"709",8,26,2,1,229,1,1,1,4,0.267201373863107,0.223908318532508
"710",8,40,2,2,230,1,2,1,4,0.517153923700359,0.618833347275368
"711",8,25,2,1,231,3,2,0,1,0.455068172775007,0.520737860813312
"712",8,29,2,2,232,3,1,0,2,1.28697939764584,1.83515759610922
"713",8,36,2,2,233,2,1,0,3,0.519746987257192,0.622930387695164
"714",8,24,2,2,234,3,2,1,3,1.17362731134724,1.65606129975744
"715",8,26,2,2,235,2,1,0,2,0.748763001107284,0.984775689578309
"716",8,24,2,2,236,2,2,1,4,0.474182219402259,0.550938054484369
"717",8,18,2,1,237,2,1,1,3,0.606255362385484,0.759613620397865
"718",8,29,2,1,238,1,1,1,5,0.398876476460736,0.431954980636763
"719",8,26,2,1,239,2,2,0,3,0.618727004670933,0.779318815208873
"720",8,40,2,1,240,2,1,1,3,0.699108663874083,0.90632183674985
"721",7,25,1,2,1,1,1,0,3,0.674650458103023,0.583990281955446
"722",7,21,1,2,2,2,1,0,3,0.916274799446267,0.965756741277771
"723",7,22,1,1,3,3,2,0,2,0.0624557059715228,-0.383277426412324
"724",7,38,1,2,4,3,2,1,2,0.689730641844946,0.607816972267684
"725",7,22,1,1,5,2,1,1,3,0.464209125582957,0.251492976573741
"726",7,20,1,1,6,1,1,1,5,0.284664030004402,-0.0321882744403752
"727",7,30,1,1,7,3,1,1,2,0.855944494282443,0.870434859118929
"728",7,23,1,1,8,1,2,0,3,0.623112658175899,0.50256055807059
"729",7,34,1,1,9,3,2,0,1,1.14308313534451,1.324113911997
"730",7,38,1,1,10,2,2,0,3,0.86749416466,0.888683338315469
"731",7,25,1,1,11,2,2,0,2,0.784130290381065,0.756968416954752
"732",7,21,1,2,12,1,2,1,5,0.261133739594462,-0.0693661332880811
"733",7,22,1,2,13,2,2,1,3,0.439994888125023,0.213234481390207
"734",7,38,1,1,14,2,1,1,4,0.399728115725416,0.149612980998826
"735",7,22,1,2,15,1,2,1,5,0.396950046806984,0.145223632107705
"736",7,20,1,2,16,3,2,1,2,0.554418679354026,0.394024071532031
"737",7,30,1,1,17,1,1,1,4,0.424498106377637,0.188749566229335
"738",7,23,1,2,18,1,2,1,5,0.32034541763552,0.0241883180167907
"739",7,34,1,2,19,1,2,1,4,0.333367760246219,0.044763619341696
"740",7,38,1,1,20,1,1,1,5,0.481830844069339,0.279335291782225
"741",7,25,1,1,21,2,1,1,3,0.771287089795918,0.73667616003022
"742",7,21,1,1,22,3,2,0,1,0.761564456725552,0.721314399779041
"743",7,22,1,2,23,3,2,1,2,0.653426120457971,0.550455828476265
"744",7,38,1,2,24,3,1,0,2,0.995083498678059,1.090274486064
"745",7,22,1,2,25,3,2,1,2,0.818692823341687,0.811577219032536
"746",7,20,1,2,26,2,1,0,3,0.946919376458828,1.01417517295762
"747",7,30,1,1,27,1,2,0,4,0.448100321256458,0.226041065737874
"748",7,23,1,2,28,2,1,0,2,0.611252780776858,0.483821951780105
"749",7,34,1,1,29,1,1,1,5,0.327166064690082,0.0349649403629994
"750",7,38,1,2,30,3,1,0,2,0.243958212888956,-0.0965034654827795
"751",7,25,1,2,31,1,2,1,4,0.378579470468459,0.116198121492836
"752",7,21,1,1,32,1,1,1,4,0.390083328825271,0.134374217696598
"753",7,22,1,2,33,2,2,1,3,0.556220715301603,0.396871288329202
"754",7,38,1,2,34,3,1,0,2,1.35495043382481,1.65886424359586
"755",7,22,1,1,35,2,1,1,3,0.420013607935369,0.181664058690553
"756",7,20,1,2,36,1,1,0,4,0.559307967802981,0.40174914728138
"757",7,30,1,1,37,2,2,0,2,0.79898868351116,0.780444678100302
"758",7,23,1,2,38,1,1,0,4,0.665733269855283,0.569901124524017
"759",7,34,1,2,39,1,1,0,4,0.464949646187919,0.252662999129582
"760",7,38,1,2,40,1,2,1,4,0.301217628090768,-0.0060335894639173
"761",7,25,1,2,41,3,2,1,3,0.481867424188238,0.279393088370086
"762",7,21,1,1,42,3,1,1,3,0.631571680126034,0.515925812751804
"763",7,22,1,2,43,1,1,0,3,0.581588000297861,0.43695159862329
"764",7,38,1,2,44,1,1,0,4,0.6781934354922,0.589588186230346
"765",7,22,1,2,45,1,2,1,5,0.466136158759821,0.254537688993187
"766",7,20,1,1,46,2,1,1,3,0.680896128570058,0.593858441293362
"767",7,30,1,2,47,3,2,1,3,1.13031920384238,1.30394690022363
"768",7,23,1,2,48,3,1,0,1,0.331632073766928,0.0420212347044155
"769",7,34,1,2,49,3,1,0,2,0.802556986214027,0.786082596370832
"770",7,38,1,1,50,2,1,1,4,0.732660904280798,0.675646786916331
"771",7,25,1,2,51,2,2,1,3,0.569815442830982,0.418350957825622
"772",7,21,1,2,52,1,2,1,4,0.447117046895566,0.224487492247665
"773",7,22,1,1,53,2,2,0,3,0.766982496920935,0.729874903287747
"774",7,38,1,2,54,3,2,1,2,0.635359375758455,0.521910371851029
"775",7,22,1,2,55,1,1,0,3,0.5222231689731,0.343155165130167
"776",7,20,1,1,56,1,1,1,4,0.405552329986564,0.15881523953144
"777",7,30,1,2,57,1,2,1,5,0.362950215378816,0.0915038984511998
"778",7,23,1,2,58,2,1,0,3,0.600840597358612,0.467370701979276
"779",7,34,1,2,59,2,2,1,3,0.669780585134789,0.576295882665637
"780",7,38,1,1,60,2,2,0,2,0.650495944117157,0.545826149857778
"781",7,25,1,2,61,2,2,1,3,0.47065187066312,0.2616725138004
"782",7,21,1,1,62,1,2,0,3,0.602755315886537,0.470395957253397
"783",7,22,1,2,63,2,1,0,2,0.644218599078207,0.535907944696236
"784",7,38,1,1,64,3,1,1,3,0.724633118956832,0.662962886104465
"785",7,22,1,1,65,2,2,0,2,0.726527818921799,0.665956512049112
"786",7,20,1,1,66,1,1,1,4,0.487249548960601,0.28789684551042
"787",7,30,1,1,67,3,1,1,2,0.441027905685045,0.21486664913504
"788",7,23,1,2,68,3,2,1,2,0.728108957129379,0.668454710417089
"789",7,34,1,1,69,1,1,1,5,0.338055373199081,0.0521700478072185
"790",7,38,1,2,70,1,2,1,5,0.413247615307163,0.170973790337988
"791",7,25,1,1,71,1,1,1,5,0.310339913637503,0.00837962169992412
"792",7,21,1,1,72,3,2,0,1,1.17430250186025,1.37344051109186
"793",7,22,1,2,73,1,2,1,4,0.536911185675625,0.366362231520157
"794",7,38,1,2,74,2,2,1,3,0.578497278461932,0.432068258122523
"795",7,22,1,2,75,2,2,1,3,0.571440921123179,0.420919213527293
"796",7,20,1,1,76,1,1,1,4,0.43119413492136,0.199329291328419
"797",7,30,1,2,77,2,1,0,2,0.656133979858573,0.554734246329214
"798",7,23,1,1,78,1,1,1,4,0.334798425430192,0.0470240703323738
"799",7,34,1,2,79,3,2,1,2,0.776770976406359,0.745340700874716
"800",7,38,1,1,80,2,1,1,3,0.751048551153987,0.704699268975969
"801",7,25,1,1,81,2,2,0,3,0.474077967869436,0.267085747386378
"802",7,21,1,2,82,1,2,1,4,0.242436821229565,-0.0989072643046179
"803",7,22,1,1,83,1,1,1,5,0.533781239265837,0.361416916192693
"804",7,38,1,2,84,1,2,1,5,0.325067415906203,0.0316490752844698
"805",7,22,1,1,85,1,1,1,5,0.316063226797277,0.0174224564923672
"806",7,20,1,2,86,2,1,0,2,1.04530508646229,1.16962459476309
"807",7,30,1,2,87,2,2,1,4,0.4382726225257,0.210513301743276
"808",7,23,1,1,88,3,1,1,2,0.572627658837634,0.422794259116131
"809",7,34,1,2,89,3,2,1,3,0.681595673025845,0.594963721533506
"810",7,38,1,1,90,1,1,1,5,0.354415418799224,0.0780189198554431
"811",7,25,1,2,91,2,1,0,2,0.812400831537665,0.801635871982181
"812",7,21,1,1,92,3,1,1,3,0.686359427792364,0.602490454064605
"813",7,22,1,2,93,3,1,0,2,0.15170333985423,-0.242266164877647
"814",7,38,1,1,94,1,2,0,4,0.575504864012776,0.427340243292856
"815",7,22,1,2,95,1,2,1,5,0.289951030107781,-0.0238348142770363
"816",7,20,1,2,96,3,2,1,3,0.833300312935575,0.834657052590878
"817",7,30,1,2,97,2,2,1,3,0.439216167791632,0.212004103263449
"818",7,23,1,1,98,3,1,1,3,0.742685288965402,0.691485314718004
"819",7,34,1,2,99,2,1,0,3,0.732121887935091,0.674795141090114
"820",7,38,1,2,100,1,2,1,4,0.345714503398856,0.0642714735228628
"821",7,25,1,1,101,1,2,0,3,0.305866668374236,0.00131189418396249
"822",7,21,1,1,102,3,1,1,3,0.628992525535681,0.511850748499045
"823",7,22,1,1,103,3,1,1,2,1.160340144804,1.351379986943
"824",7,38,1,1,104,2,1,1,4,0.577618402370791,0.43067963389852
"825",7,22,1,2,105,3,1,0,1,0.825178938947426,0.821825281689602
"826",7,20,1,2,106,3,2,1,3,0.881115966030917,0.910205784481518
"827",7,30,1,1,107,3,2,0,1,1.1576975838784,1.34720474068054
"828",7,23,1,1,108,1,1,1,5,0.213289473179679,-0.144960074223437
"829",7,34,1,1,109,2,2,0,2,0.804785811677614,0.7896041406033
"830",7,38,1,1,110,3,1,1,2,0.814613937065962,0.805132578716889
"831",7,25,1,1,111,1,1,1,4,0.507021624897344,0.319136725490473
"832",7,21,1,2,112,2,2,1,3,0.719321259817653,0.654570148664561
"833",7,22,1,2,113,3,2,1,2,0.644755431008049,0.536756139145387
"834",7,38,1,1,114,2,2,0,3,0.31536716050409,0.0163226717491322
"835",7,22,1,1,115,1,1,1,4,0.299399410170708,-0.00890637377761133
"836",7,20,1,1,116,2,1,1,4,0.7346051131986,0.678718637006457
"837",7,30,1,1,117,3,2,0,2,0.612609622122194,0.485965761105736
"838",7,23,1,2,118,2,2,1,3,0.735338664340817,0.679877647811161
"839",7,34,1,1,119,2,1,1,3,0.839752251022365,0.844851114768006
"840",7,38,1,1,120,3,1,1,2,0.8560930270758,0.870669540932434
"841",7,25,1,1,121,3,2,0,2,1.33874226884531,1.63325534292825
"842",7,21,1,1,122,1,2,0,3,0.651064628292485,0.546724670854796
"843",7,22,1,1,123,2,1,1,4,0.388180027359731,0.131367001381045
"844",7,38,1,2,124,3,1,0,1,1.15764177067523,1.34711655581953
"845",7,22,1,1,125,2,1,1,4,0.629401029627519,0.512496184964149
"846",7,20,1,2,126,1,2,1,5,0.477276504407721,0.27213943511687
"847",7,30,1,1,127,1,2,0,3,0.546351936927193,0.381278618497635
"848",7,23,1,1,128,2,1,1,3,0.364785447897512,0.0944035658307388
"849",7,34,1,1,129,1,1,1,4,0.454245692988195,0.235750753074018
"850",7,38,1,2,130,2,2,1,3,0.374936684750078,0.110442520057793
"851",7,25,1,2,131,2,2,1,4,0.739834532501929,0.686981119505717
"852",7,21,1,2,132,1,2,1,5,0.380024009707388,0.118480493490342
"853",7,22,1,2,133,3,1,0,1,1.38214467825374,1.70183114979358
"854",7,38,1,2,134,3,1,0,1,1.07047526756401,1.20939348090381
"855",7,22,1,1,135,3,1,1,3,0.512800764313409,0.328267765767857
"856",7,20,1,2,136,2,2,1,4,0.696111386875759,0.617898549416369
"857",7,30,1,1,137,1,1,1,5,0.48968271412239,0.291741246466046
"858",7,23,1,1,138,3,2,0,2,0.987144930095319,1.07773154770327
"859",7,34,1,2,139,3,2,1,2,1.20573078853536,1.42309720403854
"860",7,38,1,1,140,2,2,0,2,0.826040031199273,0.82318580744752
"861",7,25,1,1,141,2,2,0,2,0.748471891108322,0.700628146103819
"862",7,21,1,1,142,3,1,1,2,0.923124806547839,0.976579752498256
"863",7,22,1,2,143,2,1,0,2,0.731387101104778,0.673634177898219
"864",7,38,1,1,144,2,2,0,3,0.83001738672561,0.829470029179133
"865",7,22,1,2,145,2,1,0,2,0.917892124785743,0.968312115314144
"866",7,20,1,1,146,1,1,1,5,0.342805812726156,0.0596757422599966
"867",7,30,1,2,147,3,2,1,2,0.553106343996507,0.391950581667151
"868",7,23,1,2,148,1,2,1,4,0.397798761396958,0.146564601159863
"869",7,34,1,1,149,1,1,1,4,0.467532372394586,0.256743706536115
"870",7,38,1,1,150,1,1,1,5,0.458992494007152,0.24325069868397
"871",7,25,1,1,151,2,2,0,2,0.775673436526688,0.743606587864837
"872",7,21,1,1,152,3,1,1,3,0.777694705932389,0.746800193525845
"873",7,22,1,2,153,2,2,1,3,0.672721930905124,0.580943208982766
"874",7,38,1,2,154,1,2,1,4,0.585794896980498,0.443598495381856
"875",7,22,1,1,155,1,1,1,4,0.310507343858544,0.00864416144916869
"876",7,20,1,1,156,2,2,0,3,0.936188199598686,0.997219913518594
"877",7,30,1,2,157,3,2,1,3,0.551684646815696,0.38970430012147
"878",7,23,1,1,158,2,1,1,3,0.44122143251311,0.215172421523383
"879",7,34,1,2,159,3,2,1,2,0.819517765144173,0.812880627080463
"880",7,38,1,2,160,2,2,1,4,0.523331346602372,0.344906085784417
"881",7,25,1,2,161,3,1,0,2,0.900733816982342,0.94120198898477
"882",7,21,1,1,162,1,1,1,5,0.448456487461028,0.226603808341093
"883",7,22,1,2,163,3,1,0,2,0.80409465496503,0.788512112997418
"884",7,38,1,1,164,1,1,1,4,0.613234288962199,0.486952734712944
"885",7,22,1,2,165,1,2,1,5,0.29764857284194,-0.0116726967570648
"886",7,20,1,1,166,3,2,0,2,1.43366848873477,1.7832387703536
"887",7,30,1,2,167,2,2,1,4,0.576150143780315,0.428359785325567
"888",7,23,1,1,168,3,2,0,1,0.874867983117073,0.900333971477644
"889",7,34,1,1,169,3,2,0,1,1.44163760654005,1.79582997648594
"890",7,38,1,1,170,3,1,1,3,0.908617638291351,0.953658426653005
"891",7,25,1,1,171,1,1,1,5,0.361852744541636,0.0897698945284544
"892",7,21,1,2,172,3,1,0,2,0.424506636540621,0.188763043886852
"893",7,22,1,1,173,2,2,0,3,0.746972245551078,0.698258706123373
"894",7,38,1,2,174,3,1,0,1,0.790907927688731,0.767677083900865
"895",7,22,1,2,175,2,1,0,3,0.847881365329221,0.857695115372839
"896",7,20,1,2,176,2,1,0,2,0.496602464660703,0.30267445231658
"897",7,30,1,2,177,2,1,0,2,0.773872839237303,0.740761644147609
"898",7,23,1,2,178,2,2,1,3,0.561585492595319,0.405347636453274
"899",7,34,1,2,179,2,2,1,4,0.501607077064995,0.310581739915362
"900",7,38,1,1,180,1,1,1,4,0.196522587229628,-0.171451754024518
"901",7,25,1,1,181,3,2,0,2,0.292915676546289,-0.0191506729041929
"902",7,21,1,2,182,1,2,1,5,0.319391525878821,0.022681169041207
"903",7,22,1,1,183,2,1,1,4,0.674367438532311,0.583543111033721
"904",7,38,1,2,184,2,1,0,2,0.936611659043285,0.99788897944106
"905",7,22,1,1,185,1,1,1,4,0.391467539030302,0.136561269820547
"906",7,20,1,2,186,3,1,0,1,1.16006773691083,1.35094958247179
"907",7,30,1,2,187,2,1,0,2,0.654837927010579,0.552686482829385
"908",7,23,1,2,188,1,2,1,4,0.512468749391711,0.327743182191573
"909",7,34,1,1,189,3,2,0,1,0.473272280600756,0.265812761501865
"910",7,38,1,1,190,1,2,0,4,0.606211854036751,0.475857287530736
"911",7,25,1,2,191,2,1,0,3,0.590642534514672,0.451257762685851
"912",7,21,1,2,192,3,2,1,2,0.930677812196044,0.98851350142242
"913",7,22,1,1,193,2,1,1,3,0.682786574822486,0.596845346372197
"914",7,38,1,1,194,3,2,0,1,0.226503703503033,-0.124081590312538
"915",7,22,1,2,195,1,2,1,5,0.365526363755487,0.0955742128863399
"916",7,20,1,1,196,1,1,1,4,0.371480475153065,0.104981708894513
"917",7,30,1,2,197,3,2,1,2,1.12775052231653,1.29988838341279
"918",7,23,1,1,198,2,2,0,2,0.747477862117827,0.699057580298836
"919",7,34,1,2,199,2,2,1,3,0.614723751071252,0.489306084845248
"920",7,38,1,1,200,3,1,1,3,0.725905101322914,0.664972618242875
"921",7,25,1,2,201,3,1,0,1,0.633660479885451,0.519226116371683
"922",7,21,1,1,202,3,1,1,3,0.89629703019587,0.934191865862144
"923",7,22,1,2,203,3,2,1,3,0.748963155813985,0.701404344338766
"924",7,38,1,2,204,1,2,1,4,0.531483923845755,0.357787157828963
"925",7,22,1,1,205,1,2,0,4,0.597655789379961,0.462338705373009
"926",7,20,1,1,206,1,1,1,4,0.488658201554566,0.290122516608884
"927",7,30,1,1,207,2,2,0,3,0.636942200393932,0.524411234775082
"928",7,23,1,1,208,3,1,1,3,0.919457969538909,0.970786150024146
"929",7,34,1,2,209,1,2,1,5,0.516661407787501,0.334367582456921
"930",7,38,1,2,210,2,1,0,2,0.687427969135949,0.604178749387469
"931",7,25,1,1,211,1,1,1,5,0.438656561961984,0.211119926052604
"932",7,21,1,1,212,3,1,1,3,0.968708035275454,1.04860125388789
"933",7,22,1,2,213,3,2,1,3,0.854068094148,0.867470146906509
"934",7,38,1,1,214,1,1,1,5,0.240353673714328,-0.102198637378692
"935",7,22,1,2,215,3,2,1,2,0.792811898323255,0.770685357503412
"936",7,20,1,2,216,1,2,1,5,0.380879146255859,0.119831609236926
"937",7,30,1,1,217,2,2,0,2,0.528734860477335,0.353443637706858
"938",7,23,1,1,218,3,1,1,3,0.890035331775893,0.924298382358581
"939",7,34,1,1,219,2,2,0,3,0.766936624375546,0.729802424666033
"940",7,38,1,1,220,1,2,0,3,0.524197975138216,0.346275358871051
"941",7,25,1,2,221,3,1,0,1,1.110918590716,1.27329393148394
"942",7,21,1,1,222,3,1,1,3,0.749207974389297,0.701791157687759
"943",7,22,1,1,223,3,1,1,3,0.980711778659274,1.06756716843432
"944",7,38,1,2,224,2,1,0,2,0.59429059490441,0.457021698101637
"945",7,22,1,1,225,3,2,0,2,1.77343222443418,2.32006547275868
"946",7,20,1,2,226,2,1,0,3,0.556373821493325,0.397113196112123
"947",7,30,1,2,227,2,2,1,3,0.623012189471347,0.502401817517398
"948",7,23,1,1,228,2,1,1,3,0.529006470706386,0.35387278186876
"949",7,34,1,2,229,2,1,0,2,0.610013791861983,0.481864349294603
"950",7,38,1,1,230,2,1,1,3,0.696851548495721,0.619068004775908
"951",7,25,1,2,231,1,2,1,5,0.283877817149879,-0.0334304907505213
"952",7,21,1,1,232,1,1,1,4,0.449122940126095,0.2276568035519
"953",7,22,1,1,233,3,1,1,2,0.476340633596247,0.27066075923474
"954",7,38,1,2,234,3,2,1,3,0.725864474885561,0.664908428471856
"955",7,22,1,2,235,2,2,1,4,0.586347895398427,0.444472232882184
"956",7,20,1,2,236,1,2,1,4,0.22263760367082,-0.130190028047435
"957",7,30,1,1,237,1,1,1,4,0.428478470369383,0.195038541336295
"958",7,23,1,2,238,3,2,1,3,0.623948149865029,0.503880634939416
"959",7,34,1,2,239,1,1,0,3,0.603691098841103,0.471874494321612
"960",7,38,1,1,240,3,2,0,1,1.13581379160399,1.31262834888697
"961",6,33,2,1,1,3,1,1,3,1.03824039679244,2.07812130543727
"962",6,27,2,1,2,1,1,1,5,0.349931701345092,0.990593566630453
"963",6,18,2,2,3,1,2,1,4,0.299125265587015,0.910319398132691
"964",6,37,2,1,4,2,1,1,4,0.776161733023447,1.66403701668225
"965",6,31,2,2,5,1,2,1,5,0.290418058261035,0.896562010557643
"966",6,21,2,2,6,2,1,0,2,0.6504007374516,1.46533464367874
"967",6,38,2,1,7,2,2,0,2,0.627808517082233,1.42963893549514
"968",6,35,2,2,8,2,1,0,3,0.766796372384394,1.64923974687255
"969",6,38,2,1,9,3,2,0,2,0.995625823377756,2.01079027944206
"970",6,34,2,2,10,2,1,0,2,0.621866409004176,1.42025040473181
"971",6,33,2,2,11,2,2,1,3,0.549378812924114,1.30572000292531
"972",6,27,2,2,12,3,2,1,2,0.997157027098263,2.01320958132046
"973",6,18,2,2,13,2,2,1,3,0.461695967552611,1.16718110723833
"974",6,37,2,1,14,2,1,1,4,0.584360107268247,1.36099044798904
"975",6,31,2,2,15,3,1,0,1,0.618288381579448,1.41459712140074
"976",6,21,2,1,16,1,1,1,4,0.231353660564811,0.80324026219761
"977",6,38,2,1,17,2,2,0,3,0.458945828838854,1.1628358880706
"978",6,35,2,1,18,3,2,0,2,1.44946236398301,2.72785201359837
"979",6,38,2,2,19,3,1,0,1,0.657187823116472,1.47605823902923
"980",6,34,2,2,20,1,2,1,5,0.4815217878756,1.19850590334866
"981",6,33,2,1,21,2,2,0,2,0.638837135420905,1.44706415247024
"982",6,27,2,2,22,1,2,1,5,0.41239216485885,1.08928109898219
"983",6,18,2,1,23,2,2,0,3,0.832181525553572,1.75254828887985
"984",6,37,2,1,24,2,2,0,2,1.00923526992783,2.03229320499117
"985",6,31,2,2,25,2,2,1,3,0.582797450187622,1.35852144980165
"986",6,21,2,1,26,2,2,0,3,0.666012481759335,1.49000119968496
"987",6,38,2,2,27,3,1,0,2,0.633155392625956,1.43808699885422
"988",6,35,2,1,28,2,1,1,4,0.69198254080852,1.53103389298267
"989",6,38,2,2,29,2,2,1,4,0.480062623800568,1.19620042411011
"990",6,34,2,1,30,3,1,1,3,0.93484498034414,1.91475654744895
"991",6,33,2,2,31,3,2,1,3,0.990357638829902,2.00246654785645
"992",6,27,2,2,32,1,2,1,5,0.353269091816329,0.995866643575007
"993",6,18,2,1,33,3,1,1,3,0.736678127187188,1.60165291946096
"994",6,37,2,2,34,3,2,1,3,1.1228518563864,2.21180741159572
"995",6,31,2,2,35,1,2,1,4,0.539191112810538,1.28962343674586
"996",6,21,2,2,36,1,2,1,4,0.253242186257427,0.837824132791942
"997",6,38,2,2,37,2,1,0,2,0.630695893949033,1.43420099094468
"998",6,35,2,1,38,3,1,1,2,0.937247040574658,1.91855180261317
"999",6,38,2,2,39,3,2,1,2,0.889576788119703,1.84323280373434
"1000",6,34,2,2,40,1,2,1,4,0.501043844418538,1.2293507526865
"1001",6,33,2,1,41,3,1,1,2,0.649822579629056,1.46442115431912
"1002",6,27,2,2,42,3,2,1,3,1.07881237415338,2.14222502966755
"1003",6,18,2,1,43,2,1,1,4,0.911332880671903,1.87760742996681
"1004",6,37,2,2,44,2,2,1,4,0.659858816094364,1.4802784079343
"1005",6,31,2,1,45,2,2,0,2,0.77499669458995,1.66219625595733
"1006",6,21,2,1,46,1,1,1,4,0.393186065291051,1.05893546166507
"1007",6,38,2,2,47,3,2,1,3,0.927339781327421,1.90289833300253
"1008",6,35,2,2,48,2,2,1,3,0.608425325799533,1.39901349326847
"1009",6,38,2,2,49,1,1,0,3,0.538995332602547,1.28931410401723
"1010",6,34,2,2,50,2,1,0,2,0.409029664241605,1.08396834800694
"1011",6,33,2,2,51,1,2,1,5,0.388983271178758,1.05229504696764
"1012",6,27,2,1,52,1,1,1,5,0.444918700838451,1.14067302582996
"1013",6,18,2,1,53,3,2,0,2,1.20545085587611,2.34231383078947
"1014",6,37,2,2,54,2,1,0,3,0.54526113418241,1.29921407051342
"1015",6,31,2,2,55,3,2,1,3,0.450778661252667,1.14993176328442
"1016",6,21,2,2,56,3,1,0,1,0.465365164103059,1.17297843778804
"1017",6,38,2,2,57,2,2,1,3,0.583187822553,1.35913823813895
"1018",6,35,2,1,58,3,2,0,1,0.556139780828632,1.31640233221445
"1019",6,38,2,2,59,3,2,1,2,0.469657803139499,1.17976080746562
"1020",6,34,2,1,60,1,1,1,4,0.44842055771046,1.14620595968773
"1021",6,33,2,2,61,2,2,1,4,0.584656346129393,1.36145850538965
"1022",6,27,2,1,62,1,2,0,4,0.709068274247987,1.55802935181703
"1023",6,18,2,2,63,2,2,1,3,0.505298028107118,1.23607236291445
"1024",6,37,2,1,64,1,1,1,4,0.379060582154364,1.0366171983091
"1025",6,31,2,2,65,3,1,0,2,0.800299475355103,1.70217464956627
"1026",6,21,2,2,66,1,2,1,4,0.423135206186609,1.10625510428005
"1027",6,38,2,2,67,3,1,0,2,0.823807036126807,1.73931659558556
"1028",6,35,2,1,68,1,1,1,5,0.467988863705388,1.17712388315972
"1029",6,38,2,1,69,2,2,0,3,0.63907970938211,1.44744741932894
"1030",6,34,2,2,70,3,1,0,1,1.25693464128644,2.42365821173778
"1031",6,33,2,2,71,3,2,1,2,1.15702412410349,2.26579959458872
"1032",6,27,2,1,72,3,1,1,3,0.666471712150941,1.4907267837037
"1033",6,18,2,2,73,2,2,1,3,0.806674422412019,1.7122470659162
"1034",6,37,2,1,74,1,1,1,4,0.505809253081548,1.23688009837405
"1035",6,31,2,1,75,1,2,0,3,0.443060768727824,1.13773749309517
"1036",6,21,2,2,76,1,2,1,5,0.496552547884305,1.22225450416241
"1037",6,38,2,2,77,2,1,0,3,0.668160997384419,1.49339585437259
"1038",6,35,2,2,78,2,1,0,3,0.443170779754518,1.13791131051735
"1039",6,38,2,2,79,2,2,1,3,0.593440421266239,1.37533734410587
"1040",6,34,2,2,80,3,1,0,1,1.31523444684973,2.51577190452778
"1041",6,33,2,1,81,1,2,0,4,0.582431502671152,1.35794325272563
"1042",6,27,2,1,82,1,2,0,3,0.63744221427708,1.44486017706299
"1043",6,18,2,1,83,1,1,1,4,0.485369656688211,1.20458553607258
"1044",6,37,2,1,84,3,1,1,2,0.85011707555027,1.78088645787463
"1045",6,31,2,1,85,2,2,0,3,0.781171324912079,1.67195217186629
"1046",6,21,2,2,86,1,2,1,4,0.445729573240984,1.14195420422596
"1047",6,38,2,2,87,1,2,1,5,0.37117800006891,1.02416271861409
"1048",6,35,2,2,88,3,1,0,2,0.960856287625555,1.95585441295358
"1049",6,38,2,2,89,3,1,0,1,0.292780639073467,0.900294888241286
"1050",6,34,2,2,90,3,1,0,2,1.188282266727,2.31518745993387
"1051",6,33,2,1,91,3,1,1,2,1.08213849017359,2.14748029297948
"1052",6,27,2,1,92,2,2,0,3,0.733543889199399,1.59670082344026
"1053",6,18,2,1,93,1,1,1,4,0.350094413818698,0.99085065233875
"1054",6,37,2,1,94,3,1,1,3,0.843284367095503,1.7700907785161
"1055",6,31,2,2,95,3,1,0,1,0.981898250625864,1.98910071449407
"1056",6,21,2,2,96,3,1,0,2,1.09727924361732,2.17140268342057
"1057",6,38,2,1,97,1,1,1,4,0.365537056901511,1.0152500284096
"1058",6,35,2,1,98,1,1,1,5,0.489617762401573,1.21129754309969
"1059",6,38,2,2,99,1,2,1,5,0.359775134475616,1.00614619097668
"1060",6,34,2,1,100,1,2,0,3,0.561109296111588,1.32425416636152
"1061",6,33,2,1,101,3,1,1,3,0.47221238079325,1.18379704015854
"1062",6,27,2,1,102,2,2,0,2,0.672338738345904,1.49999668509174
"1063",6,18,2,2,103,3,1,0,2,1.20079600306021,2.33495916334034
"1064",6,37,2,2,104,1,2,1,4,0.543315116450589,1.29613936249714
"1065",6,31,2,2,105,2,2,1,4,0.577420393553489,1.35002570031972
"1066",6,21,2,2,106,2,2,1,4,0.635798677832187,1.44226338948006
"1067",6,38,2,1,107,1,1,1,4,0.417069746159717,1.09667167743756
"1068",6,35,2,2,108,1,1,0,3,0.561639400455706,1.32509173122522
"1069",6,38,2,1,109,2,2,0,2,0.729348259417464,1.5900717283848
"1070",6,34,2,2,110,3,1,0,1,0.714177483253376,1.56610190204554
"1071",6,33,2,1,111,2,1,1,3,0.44788726548984,1.14536335797915
"1072",6,27,2,1,112,2,1,1,4,0.673418164440661,1.50170217832145
"1073",6,18,2,1,113,3,2,0,1,1.64934168372303,3.04366133878759
"1074",6,37,2,1,114,3,1,1,3,0.392204866285938,1.05738516723699
"1075",6,31,2,2,115,3,2,1,3,0.858940794707269,1.79482793414269
"1076",6,21,2,2,116,2,1,0,2,0.696438966985921,1.53807504634296
"1077",6,38,2,1,117,1,1,1,4,0.293274487513971,0.901075168777282
"1078",6,35,2,2,118,3,2,1,3,0.545859006619132,1.30015870896344
"1079",6,38,2,1,119,3,2,0,1,1.12127677747221,2.2093187869113
"1080",6,34,2,1,120,3,1,1,3,0.425511187682777,1.11000915504399
"1081",6,33,2,1,121,2,1,1,3,0.710928132730733,1.56096792821977
"1082",6,27,2,1,122,2,1,1,4,0.475165878690085,1.18846356683554
"1083",6,18,2,1,123,3,2,0,2,1.48735228163522,2.78771808348885
"1084",6,37,2,1,124,1,1,1,4,0.356896118082042,1.00159734507483
"1085",6,31,2,2,125,2,1,0,3,0.723386031472775,1.58065140823219
"1086",6,21,2,1,126,2,1,1,4,0.418143895224357,1.09836883295969
"1087",6,38,2,1,127,1,1,1,5,0.360512865851039,1.00731180654985
"1088",6,35,2,1,128,1,1,1,4,0.55933819738095,1.32145583036711
"1089",6,38,2,1,129,2,2,0,2,0.684704246692626,1.51953418827956
"1090",6,34,2,1,130,1,1,1,4,0.316824604930207,0.938284354294935
"1091",6,33,2,1,131,2,1,1,4,0.761261835021647,1.64049517783941
"1092",6,27,2,2,132,1,2,1,4,0.386266343777847,1.04800230167421
"1093",6,18,2,2,133,1,2,1,4,0.366843375787272,1.0173140122491
"1094",6,37,2,2,134,1,2,1,5,0.354114796671236,0.997202857245761
"1095",6,31,2,2,135,3,2,1,3,0.498679118741025,1.22561448611603
"1096",6,21,2,1,136,2,1,1,4,0.661751995290277,1.48326963106384
"1097",6,38,2,1,137,3,2,0,2,0.879192271758916,1.8268252678843
"1098",6,35,2,2,138,1,2,1,5,0.422699820887377,1.10556719550726
"1099",6,38,2,1,139,1,1,1,5,0.433099859289096,1.12199925618198
"1100",6,34,2,1,140,2,2,0,2,0.882790134872455,1.83250989160369
"1101",6,33,2,1,141,2,2,0,2,0.869760265231231,1.81192269757055
"1102",6,27,2,2,142,2,2,1,4,0.866527472973808,1.80681488580382
"1103",6,18,2,2,143,3,1,0,1,0.16058712511662,0.691429136189467
"1104",6,37,2,2,144,3,2,1,2,0.678513293068906,1.50975248155408
"1105",6,31,2,2,145,2,1,0,3,0.159429622997681,0.689600282841544
"1106",6,21,2,1,146,1,1,1,5,0.376815976206802,1.03307072091196
"1107",6,38,2,2,147,1,2,1,5,0.350137006869499,0.990917949359017
"1108",6,35,2,1,148,3,1,1,3,0.754067211469087,1.62912767262637
"1109",6,38,2,2,149,3,1,0,2,0.676671860034727,1.50684301736008
"1110",6,34,2,2,150,1,2,1,4,0.432303153247797,1.12074046063673
"1111",6,33,2,1,151,1,1,1,5,0.453013793087476,1.15346327158342
"1112",6,27,2,1,152,3,2,0,1,0.944019554973171,1.92925237536282
"1113",6,18,2,2,153,1,1,0,3,0.423208963921113,1.10637164150057
"1114",6,37,2,1,154,2,1,1,4,0.780763784000444,1.67130825722591
"1115",6,31,2,2,155,2,1,0,2,0.581324685228717,1.35619448116658
"1116",6,21,2,1,156,2,1,1,4,0.507668674795024,1.23981798468135
"1117",6,38,2,1,157,1,1,1,5,0.439027595431222,1.13136507928654
"1118",6,35,2,2,158,3,2,1,3,0.864302446421781,1.80329934385162
"1119",6,38,2,2,159,2,1,0,3,0.8107378615465,1.71866729974868
"1120",6,34,2,2,160,2,1,0,2,0.691137311925585,1.52969843134763
"1121",6,33,2,2,161,3,2,1,3,0.7996202052556,1.70110140280906
"1122",6,27,2,1,162,1,1,1,4,0.417680672509649,1.09763694107045
"1123",6,18,2,2,163,3,2,1,3,0.975698257955844,1.97930472607544
"1124",6,37,2,2,164,2,1,0,3,0.798244795832979,1.69892825592132
"1125",6,31,2,1,165,1,1,1,5,0.329603463741773,0.95847495121721
"1126",6,21,2,2,166,3,1,0,2,0.712793678875002,1.56391549112771
"1127",6,38,2,1,167,1,1,1,5,0.414349965064145,1.09237442330656
"1128",6,35,2,1,168,1,1,1,4,0.312768518418006,0.931875737605657
"1129",6,38,2,2,169,3,1,0,1,0.732827019966061,1.59556817005158
"1130",6,34,2,1,170,1,2,0,4,0.467298630312516,1.17603331439898
"1131",6,33,2,1,171,3,2,0,1,0.67576913295173,1.50541670856894
"1132",6,27,2,2,172,2,2,1,3,0.617470284522803,1.41330452805124
"1133",6,18,2,1,173,1,1,1,4,0.343008015558071,0.97965414308696
"1134",6,37,2,2,174,1,2,1,4,0.391116863916972,1.05566612349402
"1135",6,31,2,1,175,2,2,0,2,0.658629316205074,1.47833579810923
"1136",6,21,2,1,176,2,1,1,4,0.59524472588983,1.37818814541114
"1137",6,38,2,2,177,3,2,1,3,1.05207526809425,2.09998040209413
"1138",6,35,2,1,178,2,1,1,3,0.532528754446279,1.27909691053033
"1139",6,38,2,1,179,1,2,0,4,0.514637992491172,1.25082950664126
"1140",6,34,2,2,180,2,2,1,3,0.746093684418643,1.61652949988666
"1141",6,33,2,2,181,2,1,0,3,0.604944374094875,1.39351358957511
"1142",6,27,2,2,182,1,2,1,5,0.495908919298338,1.22123757099658
"1143",6,18,2,1,183,1,1,1,5,0.327364659752822,0.954937640914666
"1144",6,37,2,2,184,1,2,1,5,0.43683630015368,1.12790283274802
"1145",6,31,2,1,185,3,2,0,1,1.2187755286342,2.36336681374724
"1146",6,21,2,2,186,2,2,1,3,0.403893981707733,1.07585396960343
"1147",6,38,2,1,187,2,1,1,4,0.566294647356747,1.33244702132887
"1148",6,35,2,1,188,2,1,1,3,0.638443845338112,1.44644275413942
"1149",6,38,2,1,189,2,2,0,3,0.711951467508976,1.56258479716939
"1150",6,34,2,1,190,2,1,1,4,0.546289590773656,1.30083903192758
"1151",6,33,2,1,191,3,1,1,2,0.972125137675919,1.97365919603316
"1152",6,27,2,2,192,1,2,1,4,0.460554252624795,1.16537719765238
"1153",6,18,2,2,193,3,1,0,1,1.00710841131838,2.02893276838825
"1154",6,37,2,2,194,3,2,1,3,0.930263695594861,1.90751811754509
"1155",6,31,2,2,195,2,1,0,3,0.658632621297003,1.47834102015447
"1156",6,21,2,1,196,3,1,1,3,0.810840047859052,1.71882875412251
"1157",6,38,2,2,197,3,2,1,2,0.844188328203684,1.77151903706703
"1158",6,35,2,1,198,1,1,1,5,0.416744530722904,1.0961578370474
"1159",6,38,2,2,199,2,2,1,3,0.42030142360304,1.10177772779801
"1160",6,34,2,1,200,1,1,1,4,0.353316318298955,0.995941261417557
"1161",6,33,2,1,201,2,1,1,3,0.506638009972306,1.23818953426145
"1162",6,27,2,1,202,2,2,0,2,0.739870449039718,1.60669678798796
"1163",6,18,2,1,203,1,1,1,5,0.405176977087846,1.077881102304
"1164",6,37,2,1,204,3,2,0,2,1.28473204648538,2.46757811195211
"1165",6,31,2,2,205,1,1,0,4,0.446024350459496,1.14241995223121
"1166",6,21,2,1,206,3,2,0,2,0.273218897857104,0.869387337119433
"1167",6,38,2,2,207,1,2,1,5,0.377755642042531,1.03455539293241
"1168",6,35,2,1,208,2,1,1,4,0.594521695088792,1.3770457567455
"1169",6,38,2,1,209,3,2,0,1,0.375980841692928,1.03175120838003
"1170",6,34,2,2,210,1,2,1,4,0.463082377450251,1.1693716348766
"1171",6,33,2,2,211,1,2,1,5,0.40802644008315,1.08238325383659
"1172",6,27,2,1,212,3,1,1,2,1.21608199578592,2.35911103184696
"1173",6,18,2,2,213,1,2,1,5,0.457668872477503,1.16081829701966
"1174",6,37,2,2,214,2,2,1,3,0.844614287964925,1.77219205348979
"1175",6,31,2,1,215,3,2,0,1,1.02171116240491,2.05200511510496
"1176",6,21,2,1,216,2,1,1,4,0.554455144239287,1.31374060640328
"1177",6,38,2,2,217,2,2,1,3,0.482985670376132,1.2008188376995
"1178",6,35,2,2,218,3,2,1,2,0.723619326403066,1.58102001422205
"1179",6,38,2,2,219,2,2,1,3,0.419324944084236,1.1002348901583
"1180",6,34,2,2,220,2,2,1,3,0.555836192249387,1.31592266225924
"1181",6,33,2,1,221,1,1,1,5,0.347693813110601,0.987057703219957
"1182",6,27,2,1,222,1,1,1,5,0.340544436616311,0.97576168835898
"1183",6,18,2,1,223,3,2,0,1,1.46010831993494,2.74467262400242
"1184",6,37,2,2,224,3,2,1,3,0.847831542264908,1.77727531528376
"1185",6,31,2,1,225,3,2,0,1,1.04821612890547,2.09388296217586
"1186",6,21,2,1,226,1,1,1,4,0.448365496174411,1.14611896246078
"1187",6,38,2,1,227,1,1,1,4,0.425494362147744,1.10998257069864
"1188",6,35,2,2,228,2,1,0,3,0.875061731126681,1.82029901368536
"1189",6,38,2,2,229,3,1,0,2,0.842150621754288,1.76829946087698
"1190",6,34,2,2,230,3,2,1,3,0.485809799193683,1.20528096123123
"1191",6,33,2,1,231,1,2,0,4,0.587274048032101,1.36559447439593
"1192",6,27,2,2,232,3,2,1,2,0.661329198949467,1.48260161284537
"1193",6,18,2,1,233,3,2,0,2,1.62121830900062,2.99922640672618
"1194",6,37,2,2,234,3,1,0,1,0.968122001596814,1.96733424102817
"1195",6,31,2,2,235,1,2,1,5,0.280825336069487,0.881405509494998
"1196",6,21,2,1,236,1,2,0,4,0.669112226199599,1.49489879590057
"1197",6,38,2,2,237,1,2,1,5,0.426998778348062,1.11235954829514
"1198",6,35,2,1,238,2,2,0,3,0.51912187917926,1.25791404760844
"1199",6,38,2,1,239,3,2,0,1,0.848783072913074,1.77877873370787
"1200",6,34,2,1,240,1,1,1,5,0.327115124057836,0.954543374516588
"1201",5,31,1,2,1,2,1,0,3,0.453007417594605,-0.392044964280364
"1202",5,32,1,2,2,2,2,1,4,0.615512037120161,-0.135287665429986
"1203",5,24,1,2,3,2,2,1,4,0.468516044606558,-0.367541333601478
"1204",5,37,1,2,4,2,2,1,4,0.716352792584234,0.0240407282032491
"1205",5,19,1,2,5,1,2,1,5,0.3031626253707,-0.628799735994134
"1206",5,38,1,2,6,1,1,0,4,0.62924232300726,-0.11359381372837
"1207",5,33,1,2,7,3,1,0,2,0.683713614819782,-0.0275291726645848
"1208",5,24,1,1,8,3,1,1,3,0.880394505735528,0.283226634982294
"1209",5,30,1,2,9,2,2,1,3,0.291179663727054,-0.647732815391094
"1210",5,37,1,2,10,2,2,1,3,0.75183648500899,0.0801049622343637
"1211",5,31,1,2,11,2,2,1,3,0.586922851132247,-0.18045857929089
"1212",5,32,1,1,12,1,2,0,3,0.499462199661743,-0.318646408614287
"1213",5,24,1,2,13,1,2,1,5,0.272532660256892,-0.67719508087395
"1214",5,37,1,2,14,3,2,1,3,0.678454917517359,-0.0358379144024129
"1215",5,19,1,1,15,3,1,1,2,0.793432244769265,0.145826262655599
"1216",5,38,1,1,16,3,1,1,3,0.665894281908457,-0.0556837186644782
"1217",5,33,1,2,17,3,2,1,3,0.914683491375875,0.337403232294043
"1218",5,24,1,1,18,3,1,1,2,0.248789931659605,-0.714708592057664
"1219",5,30,1,2,19,1,2,1,5,0.534101290565317,-0.263916644986639
"1220",5,37,1,2,20,2,1,0,2,0.683320667764236,-0.0281500290123464
"1221",5,31,1,2,21,3,2,1,3,1.06252199138265,0.570988062304748
"1222",5,32,1,2,22,1,2,1,5,0.488267218480129,-0.336334478881236
"1223",5,24,1,2,23,1,2,1,5,0.504203982930992,-0.311154391048873
"1224",5,37,1,1,24,1,1,1,5,0.29780285238023,-0.637268177319077
"1225",5,19,1,2,25,1,2,1,5,0.246474627136455,-0.718366773204241
"1226",5,38,1,1,26,1,2,0,4,0.296127483224334,-0.639915260585392
"1227",5,33,1,1,27,3,1,1,3,0.710277257330969,0.0144413825030912
"1228",5,24,1,1,28,1,1,1,4,0.402578892662655,-0.471722033672846
"1229",5,30,1,1,29,1,2,0,4,0.661649185982652,-0.0623909702272499
"1230",5,37,1,2,30,2,2,1,3,0.57060489864789,-0.206240944216173
"1231",5,31,1,1,31,3,2,0,1,1.64605947883202,1.49297729247476
"1232",5,32,1,2,32,1,2,1,4,0.318330068950833,-0.604835175137523
"1233",5,24,1,1,33,3,1,1,3,0.695929166204405,-0.00822860147687965
"1234",5,37,1,1,34,2,1,1,4,0.498490852591887,-0.320181136984658
"1235",5,19,1,2,35,2,2,1,3,0.507693011442929,-0.305641726000011
"1236",5,38,1,1,36,2,2,0,2,0.567345212493142,-0.211391248340675
"1237",5,33,1,1,37,3,1,1,2,1.19564791058239,0.78132701464034
"1238",5,24,1,2,38,1,1,0,3,0.476580995122917,-0.354798711785631
"1239",5,30,1,2,39,1,2,1,5,0.410199788332385,-0.459681018514672
"1240",5,37,1,1,40,3,1,1,3,0.902665827002397,0.318415322583947
"1241",5,31,1,1,41,2,1,1,3,0.792103871046817,0.143727432174131
"1242",5,32,1,2,42,3,1,0,1,0.703607023290633,0.00390241271936087
"1243",5,24,1,2,43,2,2,1,3,0.518902938816934,-0.287930040749084
"1244",5,37,1,2,44,2,1,0,2,0.602635540643482,-0.155632529863138
"1245",5,19,1,2,45,3,1,0,2,0.893482777213326,0.303906103917215
"1246",5,38,1,1,46,1,1,1,4,0.243446190488541,-0.723151703107945
"1247",5,33,1,2,47,2,2,1,4,0.576527617699607,-0.19688304811446
"1248",5,24,1,1,48,3,1,1,2,0.788623682320221,0.138228733986109
"1249",5,30,1,2,49,2,2,1,4,0.602124765413162,-0.156439554727044
"1250",5,37,1,1,50,1,1,1,5,0.276231423708257,-0.671351034620794
"1251",5,31,1,2,51,2,2,1,3,0.745451670606446,0.0700169554783454
"1252",5,32,1,2,52,3,2,1,2,0.873351830472918,0.27209920806737
"1253",5,24,1,1,53,3,2,0,1,1.33765652533451,1.00570062594869
"1254",5,37,1,2,54,3,2,1,3,0.941288282416913,0.379438802138882
"1255",5,19,1,2,55,1,2,1,4,0.510607751715549,-0.301036436369273
"1256",5,38,1,2,56,2,1,0,2,0.89485223999122,0.306069855106288
"1257",5,33,1,2,57,3,2,1,2,1.08778281149666,0.610900158084882
"1258",5,24,1,2,58,3,1,0,2,1.05012319100503,0.551397957708107
"1259",5,30,1,1,59,3,1,1,3,0.639553204221574,-0.0973026214097533
"1260",5,37,1,2,60,1,2,1,4,0.500051104916561,-0.317715938311673
"1261",5,31,1,1,61,1,1,1,4,0.517701137838306,-0.289828886295317
"1262",5,32,1,2,62,2,2,1,3,0.560922187842661,-0.221539627288435
"1263",5,24,1,2,63,1,2,1,5,0.381695899554554,-0.504717162783645
"1264",5,37,1,1,64,2,1,1,4,0.75657475747406,0.087591432729175
"1265",5,19,1,2,65,1,2,1,4,0.372026061578258,-0.519995506786193
"1266",5,38,1,2,66,1,2,1,5,0.38586464893245,-0.498130538766569
"1267",5,33,1,1,67,2,1,1,4,0.540831546895048,-0.253282839985663
"1268",5,24,1,2,68,3,1,0,1,1.23558030507569,0.844420197939756
"1269",5,30,1,1,69,3,1,1,3,0.846245034408336,0.229270470285332
"1270",5,37,1,1,70,3,2,0,2,0.606703586388162,-0.149205017586544
"1271",5,31,1,1,71,3,1,1,3,0.957752078036014,0.405451599217062
"1272",5,32,1,2,72,2,1,0,2,0.777976324799986,0.121405909104138
"1273",5,24,1,1,73,1,1,1,5,0.447149211916497,-0.401300929251775
"1274",5,37,1,1,74,3,2,0,2,1.52817269543202,1.30671617470275
"1275",5,19,1,1,75,3,1,1,2,0.57799849231002,-0.194559066230008
"1276",5,38,1,1,76,1,1,1,4,0.300855775459977,-0.632444558853076
"1277",5,33,1,2,77,3,2,1,2,0.724017539384578,0.0361510281477941
"1278",5,24,1,1,78,1,1,1,5,0.329470688910858,-0.587232995600684
"1279",5,30,1,2,79,1,1,0,4,0.594172509966116,-0.169004118333377
"1280",5,37,1,1,80,2,2,0,3,0.703511634149873,0.0037516978769595
"1281",5,31,1,2,81,1,2,1,5,0.432630249805049,-0.424240889387863
"1282",5,32,1,1,82,3,2,0,1,1.21218983819761,0.807463260272378
"1283",5,24,1,1,83,2,2,0,2,0.746308299861437,0.0713704297012309
"1284",5,37,1,2,84,3,1,0,1,0.983889764422634,0.446749143707921
"1285",5,19,1,2,85,2,2,1,3,0.689711364268613,-0.0180527285354306
"1286",5,38,1,1,86,1,1,1,5,0.43898337688891,-0.414202948595362
"1287",5,33,1,1,87,2,2,0,3,0.562076273174443,-0.21971617246422
"1288",5,24,1,2,88,3,2,1,3,0.580519259336781,-0.190576254327726
"1289",5,30,1,1,89,2,1,1,4,0.401209720603638,-0.473885325526092
"1290",5,37,1,1,90,2,1,1,3,0.748258499462617,0.0744517450710944
"1291",5,31,1,1,91,2,2,0,2,0.698514866876269,-0.00414319441533428
"1292",5,32,1,1,92,2,2,0,3,0.798811058665075,0.154324788610978
"1293",5,24,1,1,93,3,1,1,3,0.973068612901538,0.429651724304591
"1294",5,37,1,2,94,3,2,1,3,0.697694769085012,-0.0054389489255201
"1295",5,19,1,2,95,1,2,1,4,0.353199763777235,-0.549741057311809
"1296",5,38,1,2,96,3,1,0,1,1.12956988410326,0.676923732803311
"1297",5,33,1,1,97,1,1,1,4,0.527892091900163,-0.273727178877583
"1298",5,24,1,1,98,1,1,1,4,0.398260059693893,-0.478545789763488
"1299",5,30,1,1,99,1,2,0,3,0.512697042672339,-0.297735356657545
"1300",5,37,1,1,100,3,1,1,2,0.681973834143873,-0.0302780261325203
"1301",5,31,1,1,101,1,1,1,4,0.534463264927475,-0.26334472549443
"1302",5,32,1,1,102,2,2,0,3,1.00733659732623,0.483795139695611
"1303",5,24,1,2,103,1,2,1,4,0.272320733319638,-0.677529925434812
"1304",5,37,1,2,104,1,2,1,4,0.504845030133099,-0.310141536469543
"1305",5,19,1,2,105,1,2,1,5,0.376931037296066,-0.512245645152055
"1306",5,38,1,1,106,3,1,1,3,0.811993908949612,0.175153692060548
"1307",5,33,1,1,107,2,1,1,4,0.737391652303238,0.0572821265592758
"1308",5,24,1,1,108,3,2,0,2,1.39649278484908,1.0986619159817
"1309",5,30,1,1,109,1,1,1,5,0.299298995612781,-0.634904271011646
"1310",5,37,1,2,110,1,2,1,5,0.479075175922228,-0.35085790612272
"1311",5,31,1,2,111,3,2,1,3,0.720929756702798,0.0312723315105813
"1312",5,32,1,1,112,2,1,1,4,0.526957129481977,-0.275204419498317
"1313",5,24,1,2,113,2,2,1,4,0.515699251626578,-0.292991866509847
"1314",5,37,1,2,114,1,1,0,4,0.454829321701694,-0.389166355791163
"1315",5,19,1,2,115,1,2,1,4,0.306307756026748,-0.623830429557578
"1316",5,38,1,1,116,2,2,0,2,0.818298772420395,0.185115376344384
"1317",5,33,1,1,117,2,1,1,3,0.601256261074197,-0.157811791582609
"1318",5,24,1,1,118,2,2,0,2,0.486916883373757,-0.338468008349304
"1319",5,30,1,2,119,2,1,0,3,0.835124463630216,0.211699968455901
"1320",5,37,1,2,120,3,1,0,2,1.01694029240889,0.498968977926209
"1321",5,31,1,1,121,2,2,0,3,0.521906726134632,-0.283184056787122
"1322",5,32,1,2,122,1,2,1,5,0.441098396791266,-0.410861217149639
"1323",5,24,1,2,123,2,1,0,2,0.968293429978257,0.422106935285807
"1324",5,37,1,2,124,1,1,0,4,0.652613922366401,-0.0766666867409258
"1325",5,19,1,2,125,1,2,1,4,0.593855482368004,-0.169505021938394
"1326",5,38,1,1,126,2,1,1,4,0.369518319616391,-0.523957739085942
"1327",5,33,1,1,127,3,1,1,3,0.734552121475569,0.0527956678515586
"1328",5,24,1,1,128,3,1,1,3,1.06563168395482,0.57590137656878
"1329",5,30,1,1,129,3,2,0,2,0.97091526694006,0.426249437685455
"1330",5,37,1,1,130,3,2,0,1,0.553907388894931,-0.23262300962585
"1331",5,31,1,2,131,2,2,1,3,0.589687277741711,-0.176090785247937
"1332",5,32,1,2,132,2,1,0,2,0.662948899893924,-0.0603374222474407
"1333",5,24,1,2,133,2,2,1,3,0.707166320356499,0.00952610208342775
"1334",5,37,1,2,134,1,2,1,4,0.487696609222044,-0.33723604150901
"1335",5,19,1,2,135,3,2,1,2,0.682759464516478,-0.029036730143804
"1336",5,38,1,2,136,3,1,0,2,1.33275836589485,0.997961534034017
"1337",5,33,1,1,137,2,1,1,4,0.585808058583846,-0.182219951517363
"1338",5,24,1,2,138,3,2,1,2,0.658259748843853,-0.0677462809065519
"1339",5,30,1,1,139,3,1,1,2,0.66981835000772,-0.0494836910676424
"1340",5,37,1,1,140,1,1,1,5,0.508511175431446,-0.304349026898155
"1341",5,31,1,1,141,2,2,0,2,0.827154504058315,0.199107432332298
"1342",5,32,1,1,142,3,1,1,3,0.767746457223606,0.105242718333458
"1343",5,24,1,1,143,3,2,0,2,0.868487347149308,0.264413324416067
"1344",5,37,1,1,144,2,2,0,2,0.700041474579912,-0.00173115424357873
"1345",5,19,1,2,145,2,1,0,3,0.960442359994863,0.409702244712044
"1346",5,38,1,1,146,2,1,1,3,0.655560655052104,-0.072010849097515
"1347",5,33,1,2,147,1,2,1,5,0.47867850161803,-0.351484651523352
"1348",5,24,1,1,148,2,2,0,3,0.625221561332575,-0.119946617174371
"1349",5,30,1,1,149,2,1,1,3,0.699242681852156,-0.00299324675343304
"1350",5,37,1,2,150,3,1,0,1,0.976368131562776,0.434864963789347
"1351",5,31,1,1,151,2,1,1,3,0.684723350955352,-0.0259337895703845
"1352",5,32,1,2,152,1,1,0,4,0.407921839799676,-0.463280177196352
"1353",5,24,1,2,153,2,2,1,4,0.578276458102528,-0.194119880277846
"1354",5,37,1,2,154,2,2,1,4,0.513437952251278,-0.296564719522821
"1355",5,19,1,2,155,3,1,0,1,0.904733862307668,0.321682818366276
"1356",5,38,1,2,156,2,1,0,3,0.563329454264778,-0.217736146341491
"1357",5,33,1,1,157,2,2,0,3,0.661244931894339,-0.0630296916867836
"1358",5,24,1,1,158,1,2,0,3,0.505205688381232,-0.309571696437493
"1359",5,30,1,1,159,1,1,1,5,0.520140994638072,-0.285973912551687
"1360",5,37,1,1,160,1,1,1,4,0.543037475796815,-0.249797472320872
"1361",5,31,1,2,161,3,1,0,1,0.940839912199281,0.378730377195025
"1362",5,32,1,2,162,3,1,0,1,1.02974122268356,0.519194447760184
"1363",5,24,1,2,163,1,2,1,5,0.23825760171526,-0.731349673369728
"1364",5,37,1,1,164,3,1,1,3,0.827297877190229,0.199333961880722
"1365",5,19,1,1,165,3,2,0,2,1.22891361045038,0.833886820431761
"1366",5,38,1,1,166,2,2,0,2,1.00718503839718,0.48355567658771
"1367",5,33,1,1,167,2,2,0,2,1.02378981212802,0.509791219082427
"1368",5,24,1,2,168,1,2,1,4,0.444351488679223,-0.405721331966667
"1369",5,30,1,2,169,3,1,0,1,0.995848477549638,0.465643910448588
"1370",5,37,1,2,170,1,2,1,5,0.418921946458027,-0.445900008676158
"1371",5,31,1,2,171,2,2,1,3,0.76184866860444,0.0959242123151746
"1372",5,32,1,1,172,1,1,1,4,0.265484396879018,-0.688331337010991
"1373",5,24,1,2,173,1,2,1,5,0.141660642044619,-0.883972869649342
"1374",5,37,1,1,174,2,2,0,3,0.573520960540417,-0.20163356642598
"1375",5,19,1,1,175,1,1,1,4,0.3158980345438,-0.608677789500635
"1376",5,38,1,1,176,3,1,1,3,1.10823798321468,0.643219329399347
"1377",5,33,1,1,177,3,1,1,3,0.756490603601633,0.0874584696107404
"1378",5,24,1,1,178,1,1,1,5,0.487774562005156,-0.337112876111694
"1379",5,30,1,1,179,2,2,0,3,0.910173807338226,0.330277931514557
"1380",5,37,1,1,180,1,2,0,3,0.63354955089375,-0.106788393667715
"1381",5,31,1,1,181,1,1,1,4,0.369661854542688,-0.523730953902393
"1382",5,32,1,2,182,2,2,1,3,0.422099894040261,-0.440878851496227
"1383",5,24,1,2,183,2,1,0,2,0.944555314537308,0.384600712889107
"1384",5,37,1,1,184,2,1,1,4,0.529559020059364,-0.271093432386044
"1385",5,19,1,1,185,2,2,0,2,0.877170778620036,0.278133146139816
"1386",5,38,1,2,186,2,2,1,3,0.788694836838262,0.138341158124614
"1387",5,33,1,1,187,3,2,0,1,1.77029231422012,1.68926517238795
"1388",5,24,1,1,188,1,1,1,5,0.419341713493393,-0.445236776760279
"1389",5,30,1,2,189,3,2,1,3,0.815444919968383,0.180606289470205
"1390",5,37,1,2,190,2,2,1,4,0.607051516673495,-0.148655287735718
"1391",5,31,1,2,191,3,2,1,2,0.814224536180334,0.178678083085088
"1392",5,32,1,1,192,3,2,0,1,-0.0519645231242893,-1.18990063061622
"1393",5,24,1,2,193,2,1,0,3,0.565179926265813,-0.214812400579856
"1394",5,37,1,2,194,1,1,0,4,0.464570573810851,-0.373775177458696
"1395",5,19,1,1,195,3,1,1,3,0.674229853909647,-0.042513514902597
"1396",5,38,1,1,196,1,1,1,5,0.472382643329509,-0.361432107619215
"1397",5,33,1,1,197,2,2,0,2,0.622261732296996,-0.124623147050586
"1398",5,24,1,2,198,1,2,1,4,0.550489284421345,-0.238023614694114
"1399",5,30,1,2,199,3,1,0,1,1.49279923686823,1.25082611017197
"1400",5,37,1,2,200,1,1,0,3,0.42324183113988,-0.439074590878829
"1401",5,31,1,2,201,1,2,1,4,0.38839427632173,-0.494133727491507
"1402",5,32,1,2,202,1,2,1,5,0.259142222502092,-0.698351972526535
"1403",5,24,1,1,203,1,1,1,5,0.401143142159168,-0.473990519468354
"1404",5,37,1,1,204,1,2,0,3,0.419530445378847,-0.444938580381261
"1405",5,19,1,2,205,3,1,0,2,0.286115426728246,-0.655734309849212
"1406",5,38,1,1,206,3,2,0,1,0.248139773273486,-0.715735842307732
"1407",5,33,1,2,207,3,1,0,2,0.282635505595719,-0.661232585238604
"1408",5,24,1,2,208,3,2,1,3,0.797062318524358,0.151561779188645
"1409",5,30,1,2,209,2,2,1,3,0.478064738455978,-0.352454397319395
"1410",5,37,1,1,210,1,1,1,4,0.282437521800447,-0.661545399635134
"1411",5,31,1,1,211,2,2,0,3,0.531641299364223,-0.267803431084367
"1412",5,32,1,2,212,1,2,1,5,0.307192980553586,-0.622431774805174
"1413",5,24,1,2,213,2,1,0,3,0.699573367032444,-0.00247076416857839
"1414",5,37,1,2,214,1,1,0,4,0.65098251385063,-0.079244312195844
"1415",5,19,1,1,215,2,1,1,3,0.545848986102501,-0.245355286037889
"1416",5,38,1,1,216,3,1,1,3,0.698598203022506,-0.00401152330428067
"1417",5,33,1,1,217,2,1,1,3,0.555773276235561,-0.229674907627653
"1418",5,24,1,1,218,3,1,1,2,0.76033888701009,0.093538757396102
"1419",5,30,1,1,219,2,1,1,4,0.686453420437564,-0.0232002797884887
"1420",5,37,1,1,220,1,1,1,4,0.429302339761391,-0.429498987256842
"1421",5,31,1,2,221,1,2,1,5,0.39078977738633,-0.490348835809439
"1422",5,32,1,1,222,2,2,0,2,0.814479551403532,0.17908100713774
"1423",5,24,1,1,223,2,1,1,4,0.856626289301528,0.245672853016574
"1424",5,37,1,2,224,3,1,0,1,1.17557624486907,0.749613782813283
"1425",5,19,1,1,225,3,2,0,1,1.01981747608428,0.503514928133328
"1426",5,38,1,1,226,3,2,0,1,1.75349836780281,1.6627307370486
"1427",5,33,1,2,227,1,2,1,5,0.408446295787234,-0.462451536736011
"1428",5,24,1,1,228,2,1,1,3,0.447918897061203,-0.40008482672314
"1429",5,30,1,2,229,1,2,1,5,0.409035615916775,-0.461520410931335
"1430",5,37,1,1,230,3,1,1,2,1.05467312875007,0.558586859345268
"1431",5,31,1,2,231,1,2,1,4,0.235079048253511,-0.736371787839292
"1432",5,32,1,1,232,1,1,1,5,0.44345489114016,-0.407137956078388
"1433",5,24,1,2,233,1,2,1,5,0.389522444814802,-0.492351221272452
"1434",5,37,1,1,234,3,2,0,1,1.06097792154508,0.56854843196139
"1435",5,19,1,1,235,3,2,0,2,0.906995771785513,0.325256635341271
"1436",5,38,1,1,236,3,2,0,1,1.21468133373556,0.811399823222348
"1437",5,33,1,2,237,1,2,1,5,0.467844256749701,-0.368602758415312
"1438",5,24,1,2,238,3,1,0,2,1.21573903903914,0.813070997602006
"1439",5,30,1,2,239,2,2,1,4,0.477062168116997,-0.354038458454984
"1440",5,37,1,2,240,3,2,1,2,0.68009078213779,-0.0332532483021322
"1441",4,23,2,1,1,1,1,1,5,0.493059492341796,0.493726688691947
"1442",4,33,2,2,2,2,2,1,3,0.508186495220846,0.517627353240846
"1443",4,32,2,1,3,3,2,0,2,1.09907422160386,1.45122996092601
"1444",4,19,2,2,4,2,2,1,4,0.641546990021829,0.728336935026399
"1445",4,23,2,2,5,1,2,1,5,0.400291167808732,0.347152735929707
"1446",4,36,2,1,6,2,2,0,2,0.78613241756159,0.956781910539221
"1447",4,22,2,2,7,1,1,0,3,0.603933555524593,0.668907708520767
"1448",4,39,2,2,8,3,2,1,3,0.785700173341339,0.956098964671225
"1449",4,24,2,2,9,1,2,1,5,0.518701588664621,0.53424120088201
"1450",4,18,2,2,10,1,2,1,4,0.483270925811658,0.478260753574329
"1451",4,23,2,1,11,2,1,1,3,0.502232076550323,0.508219371741419
"1452",4,33,2,1,12,1,1,1,5,0.450338531020307,0.426227569803995
"1453",4,32,2,2,13,1,2,1,4,0.359020147283582,0.28194452349997
"1454",4,19,2,2,14,3,1,0,2,1.19019516953236,1.59520105865304
"1455",4,23,2,2,15,2,2,1,4,0.41890378592393,0.376560672551718
"1456",4,36,2,2,16,3,1,0,1,0.40217651654556,0.350131586933894
"1457",4,22,2,2,17,3,2,1,2,0.516735701791263,0.531135099622105
"1458",4,39,2,2,18,2,2,1,3,0.605880598077586,0.671984035754496
"1459",4,24,2,1,19,2,2,0,2,0.612726290975285,0.682800230532859
"1460",4,18,2,1,20,2,2,0,2,0.731863290613291,0.871036689960909
"1461",4,23,2,2,21,1,2,1,5,0.357266768919558,0.279174185684811
"1462",4,33,2,2,22,2,2,1,4,0.689941719568779,0.80480060771058
"1463",4,32,2,1,23,3,1,1,2,0.679002627078985,0.787516841576706
"1464",4,19,2,1,24,1,1,1,4,0.308161245582246,0.201587458811858
"1465",4,23,2,1,25,3,1,1,3,0.939725964724026,1.19945971505587
"1466",4,36,2,2,26,3,1,0,1,1.06892862375964,1.40359991633214
"1467",4,22,2,1,27,1,1,1,5,0.50812087801479,0.517523678055278
"1468",4,39,2,1,28,3,2,0,2,1.03893272255093,1.35620639242238
"1469",4,24,2,1,29,3,1,1,2,1.03496571441792,1.34993851957222
"1470",4,18,2,1,30,2,2,0,2,0.510535554006608,0.521338866122351
"1471",4,23,2,1,31,2,2,0,3,0.609053735414593,0.676997592746967
"1472",4,33,2,2,32,2,1,0,2,0.907089848814579,1.14789465191894
"1473",4,32,2,1,33,1,1,1,4,0.434343178888927,0.400954913436414
"1474",4,19,2,2,34,2,2,1,4,0.73650864739854,0.878376353681602
"1475",4,23,2,1,35,3,1,1,2,0.619684261014196,0.693793823194339
"1476",4,36,2,1,36,1,1,1,4,0.384352093136771,0.321968997948007
"1477",4,22,2,2,37,1,2,1,4,0.406550540985545,0.357042545549071
"1478",4,39,2,2,38,3,1,0,1,1.257440299831,1.70144836452488
"1479",4,24,2,1,39,1,1,1,5,0.377676502223165,0.31142156430451
"1480",4,18,2,1,40,3,1,1,2,1.16874897815793,1.56131607628144
"1481",4,23,2,2,41,3,1,0,1,0.703646653378025,0.826454403129189
"1482",4,33,2,2,42,3,2,1,2,0.861390804517252,1.07569016192917
"1483",4,32,2,2,43,2,2,1,4,0.4185329734219,0.375974788798512
"1484",4,19,2,1,44,3,2,0,1,1.28813364557597,1.74994385080194
"1485",4,23,2,1,45,1,1,1,4,0.455189357964039,0.433891876375091
"1486",4,36,2,1,46,1,2,0,3,0.547913448000562,0.580395938632798
"1487",4,22,2,1,47,2,2,0,3,0.528336240452268,0.549463950706492
"1488",4,39,2,1,48,3,1,1,2,0.643372427036263,0.731221125509205
"1489",4,24,2,1,49,1,1,1,4,0.418109215522329,0.375305251317189
"1490",4,18,2,2,50,2,1,0,3,0.65615891661251,0.751423779039676
"1491",4,23,2,1,51,3,2,0,1,1.09691663077072,1.44782096740965
"1492",4,33,2,1,52,1,1,1,4,0.468090256828403,0.454275296580787
"1493",4,32,2,2,53,1,2,1,4,0.328566681128091,0.233828046974294
"1494",4,19,2,1,54,1,1,1,4,0.437113708278437,0.405332349871841
"1495",4,23,2,2,55,2,2,1,3,0.447605335198972,0.421909120406285
"1496",4,36,2,2,56,2,1,0,3,0.778194950945166,0.944240713285273
"1497",4,22,2,2,57,3,1,0,2,0.830127399032492,1.02629398126325
"1498",4,39,2,2,58,2,1,0,3,0.85260925265047,1.06181530997965
"1499",4,24,2,1,59,2,2,0,3,0.960342209634626,1.23203338201462
"1500",4,18,2,2,60,1,2,1,5,0.464468044280097,0.448552200754462
"1501",4,23,2,2,61,1,2,1,4,0.416255146370529,0.372375822057345
"1502",4,33,2,1,62,3,2,0,2,1.28105690985566,1.73876260836385
"1503",4,32,2,2,63,3,2,1,3,0.722821908872166,0.856751306809932
"1504",4,19,2,2,64,3,1,0,1,0.735291423560101,0.876453140016869
"1505",4,23,2,2,65,1,2,1,4,0.44539641329608,0.418419023799715
"1506",4,36,2,1,66,3,2,0,2,1.49065403622773,2.06992606803172
"1507",4,22,2,1,67,2,2,0,3,0.764230100880609,0.922176250183271
"1508",4,39,2,2,68,3,1,0,1,0.86766375902215,1.08560143004691
"1509",4,24,2,1,69,1,1,1,5,0.429500980126736,0.393304239392153
"1510",4,18,2,2,70,1,2,1,5,0.426484532949475,0.38853825285208
"1511",4,23,2,1,71,3,1,1,2,0.894954516368553,1.12872082665422
"1512",4,33,2,1,72,2,1,1,3,0.63655690121233,0.72045259470739
"1513",4,32,2,2,73,1,2,1,5,0.297083894226456,0.18408524366971
"1514",4,19,2,2,74,2,2,1,3,0.546218983241007,0.577718684312701
"1515",4,23,2,2,75,3,2,1,3,0.819553247571662,1.00958682195514
"1516",4,36,2,2,76,2,1,0,2,0.788943807953898,0.961223907359069
"1517",4,22,2,2,77,3,2,1,3,0.703037688927713,0.825492239297696
"1518",4,39,2,1,78,2,1,1,4,0.52959835376312,0.55145808973764
"1519",4,24,2,2,79,2,2,1,4,0.607846741046853,0.675090541645937
"1520",4,18,2,1,80,2,2,0,3,0.781378016103843,0.949269956235982
"1521",4,23,2,2,81,3,2,1,2,0.724598655137244,0.859558565908755
"1522",4,33,2,1,82,1,2,0,4,0.63103301945531,0.711724861531299
"1523",4,32,2,2,83,3,1,0,1,0.865360702847624,1.08196260129116
"1524",4,19,2,2,84,2,2,1,4,0.482495276582385,0.477035227792079
"1525",4,23,2,2,85,3,2,1,3,1.12069305814603,1.48538772266264
"1526",4,36,2,2,86,3,2,1,3,0.652938694292451,0.746335827773983
"1527",4,22,2,1,87,1,1,1,5,0.484042217157347,0.479479393900517
"1528",4,39,2,1,88,3,2,0,1,0.908912358221723,1.15077421678223
"1529",4,24,2,1,89,1,2,0,3,0.705728163059789,0.829743188426376
"1530",4,18,2,1,90,2,2,0,2,0.710951708658909,0.837996390472987
"1531",4,23,2,2,91,3,1,0,1,0.932880809545341,1.18864436987355
"1532",4,33,2,2,92,1,1,0,3,0.585276848155333,0.639430110877335
"1533",4,32,2,1,93,2,2,0,2,0.714668769708262,0.843869346930963
"1534",4,19,2,2,94,1,2,1,5,0.403236711096532,0.35180669432443
"1535",4,23,2,1,95,1,2,0,4,0.570331696743496,0.615816771646634
"1536",4,36,2,1,96,3,2,0,1,0.844578118777999,1.04912611846115
"1537",4,22,2,2,97,2,2,1,4,0.565102758592696,0.607555049368369
"1538",4,39,2,2,98,3,2,1,2,0.874843086470974,1.09694476741605
"1539",4,24,2,1,99,3,1,1,2,0.548772813965618,0.581753736857586
"1540",4,18,2,1,100,2,1,1,4,0.699597702664625,0.820057061002016
"1541",4,23,2,1,101,3,1,1,3,0.86718609042508,1.08484671366354
"1542",4,33,2,1,102,1,1,1,5,0.294682939629946,0.180291735407224
"1543",4,32,2,1,103,1,1,1,5,0.345670266193498,0.260851711377637
"1544",4,19,2,2,104,2,2,1,3,0.541712691398525,0.57059874320158
"1545",4,23,2,2,105,1,2,1,4,0.376750108826039,0.309957862737051
"1546",4,36,2,2,106,3,1,0,1,1.17092429971094,1.5647530843352
"1547",4,22,2,1,107,3,1,1,3,1.14757411676463,1.52785979528003
"1548",4,39,2,2,108,1,2,1,5,0.385196545186964,0.323303232187312
"1549",4,24,2,1,109,1,1,1,4,0.28686220620728,0.167934976599412
"1550",4,18,2,2,110,3,1,0,2,1.55963690048573,2.17891899355937
"1551",4,23,2,2,111,2,2,1,3,0.653820757000878,0.747729486853296
"1552",4,33,2,2,112,2,2,1,4,0.638170023353393,0.723001327690271
"1553",4,32,2,1,113,3,1,1,2,1.05364191418261,1.37944691520044
"1554",4,19,2,2,114,1,2,1,5,0.387238811868593,0.326530013544287
"1555",4,23,2,2,115,3,2,1,3,0.617048883193952,0.689629926238354
"1556",4,36,2,1,116,3,1,1,3,0.559543533429837,0.598771473611052
"1557",4,22,2,2,117,3,2,1,3,0.983766266199238,1.26904339138671
"1558",4,39,2,2,118,3,2,1,2,0.860155211800376,1.0737379254365
"1559",4,24,2,2,119,3,1,0,1,1.50589808549094,2.09401166586759
"1560",4,18,2,1,120,1,1,1,4,0.458069088675148,0.438441850898644
"1561",4,23,2,1,121,1,1,1,5,0.239333730284652,0.0928399846416591
"1562",4,33,2,1,122,1,1,1,5,0.397297963946282,0.342423473827035
"1563",4,32,2,2,123,2,2,1,4,0.79768253909286,0.975031102558629
"1564",4,19,2,2,124,2,2,1,3,0.610136321663396,0.678708079020076
"1565",4,23,2,1,125,1,1,1,4,0.307409273798329,0.20039934339327
"1566",4,36,2,1,126,1,1,1,4,0.384507844502957,0.322215085106582
"1567",4,22,2,1,127,1,1,1,5,0.370614430122024,0.300263490384708
"1568",4,39,2,1,128,1,1,1,4,0.394364080818131,0.337787938484557
"1569",4,24,2,1,129,1,2,0,4,0.604766476292415,0.670223723333925
"1570",4,18,2,1,130,2,1,1,4,0.59038912774789,0.647507512633576
"1571",4,23,2,2,131,2,2,1,4,0.85223308966151,1.06122097245709
"1572",4,33,2,2,132,1,2,1,5,0.390213910945422,0.331230670085677
"1573",4,32,2,2,133,3,1,0,1,1.29815228478199,1.76577330074745
"1574",4,19,2,2,134,2,1,0,2,0.53057493107361,0.553001081888213
"1575",4,23,2,1,135,2,2,0,2,0.874125817027124,1.09581148169477
"1576",4,36,2,1,136,2,1,1,3,0.386792482711055,0.325824813475377
"1577",4,22,2,1,137,2,2,0,2,0.623032602634279,0.699084202954071
"1578",4,39,2,1,138,2,1,1,3,0.758708099140172,0.913451487433381
"1579",4,24,2,2,139,3,2,1,3,1.14952962836823,1.53094950361372
"1580",4,18,2,1,140,2,1,1,4,0.590062935863335,0.646992129455978
"1581",4,23,2,1,141,1,1,1,5,0.495252592491944,0.497191786929181
"1582",4,33,2,1,142,2,2,0,3,0.715584478553918,0.845316166907099
"1583",4,32,2,2,143,1,2,1,5,0.369429974078904,0.298392049836578
"1584",4,19,2,1,144,3,2,0,2,1.39813959645861,1.92375325319651
"1585",4,23,2,1,145,2,1,1,3,0.447783291567479,0.422190291468526
"1586",4,36,2,2,146,2,1,0,3,0.650233602403229,0.742061782589012
"1587",4,22,2,2,147,2,2,1,4,0.475199493307558,0.465507890217852
"1588",4,39,2,1,148,2,1,1,4,0.76675577319161,0.926166812434653
"1589",4,24,2,1,149,3,2,0,1,0.523577937100125,0.541945831410107
"1590",4,18,2,1,150,1,2,0,3,0.541970467561438,0.571006029538982
"1591",4,23,2,1,151,1,1,1,4,0.460824221490738,0.442794960747276
"1592",4,33,2,2,152,1,2,1,4,0.213849077507494,0.0525742332537506
"1593",4,32,2,2,153,2,1,0,3,0.831593535854761,1.02861047744243
"1594",4,19,2,1,154,1,1,1,4,0.349045668366253,0.266184846810589
"1595",4,23,2,1,155,3,2,0,1,1.3614341032861,1.86575857398395
"1596",4,36,2,1,156,3,2,0,1,1.10250397389565,1.45664896954704
"1597",4,22,2,2,157,1,2,1,5,0.415918627297235,0.371844121921542
"1598",4,39,2,1,158,1,1,1,5,0.304437367326916,0.195703731168437
"1599",4,24,2,1,159,1,2,0,4,0.550279133423089,0.58413372160039
"1600",4,18,2,1,160,3,1,1,3,0.854822184929961,1.06531174298125
"1601",4,23,2,2,161,3,1,0,2,0.952624102216871,1.21983877229456
"1602",4,33,2,1,162,3,1,1,3,0.557981880620452,0.596304062172224
