"","subj_no","age","group","stim","trial","difficulty","resp","corr","conf","RT_day1","RT_day2"
"1",9,34,1,2,1,1,2,1,4,0.40921431300055,0.421868872544299
"2",9,26,1,1,2,1,1,1,5,0.389465282410816,0.323201167709352
"3",9,37,1,2,3,3,1,0,2,1.56539074808952,1.64242934163671
"4",9,33,1,1,4,2,1,1,3,0.664727700581641,0.667687667521232
"5",9,38,1,2,5,2,2,1,3,0.646166908494568,0.641408969893833
"6",9,35,1,1,6,2,2,0,2,0.780621600485562,0.796283548005086
"7",9,35,1,2,7,2,2,1,4,0.48360374327249,0.560275194989441
"8",9,31,1,2,8,1,2,1,5,0.380001855458798,0.380675891832914
"9",9,28,1,2,9,2,1,0,2,0.817424787137749,0.85199198488582
"10",9,31,1,1,10,3,2,0,1,0.885659799684401,0.903352118678124
"11",9,34,1,2,11,3,1,0,1,0.785089258307602,0.775162352257551
"12",9,26,1,2,12,3,2,1,2,1.07131540478459,1.11787609704382
"13",9,37,1,1,13,3,1,1,3,0.789743931223324,0.770504594839837
"14",9,33,1,2,14,2,1,0,2,0.917101322596957,0.860682060462196
"15",9,38,1,2,15,2,1,0,3,0.47348688955752,0.432041186041285
"16",9,35,1,2,16,2,1,0,3,0.531913106066788,0.554080364604284
"17",9,35,1,1,17,2,2,0,2,0.634259939702093,0.615307831964883
"18",9,31,1,1,18,1,1,1,4,0.320762019954493,0.382143622733556
"19",9,28,1,2,19,2,2,1,4,0.348192445209188,0.361500800540551
"20",9,31,1,2,20,2,2,1,3,0.661755191973678,0.680145317562247
"21",9,34,1,2,21,1,2,1,4,0.442539159292726,0.434971195712604
"22",9,26,1,2,22,3,1,0,2,0.864367458569315,0.821455735938683
"23",9,37,1,2,23,2,1,0,3,0.45508614326555,0.528147846640451
"24",9,33,1,2,24,1,1,0,3,0.550773240007784,0.576083343539786
"25",9,38,1,2,25,3,2,1,3,0.764489384801263,0.786707089556218
"26",9,35,1,2,26,1,2,1,4,0.423228894775366,0.454490739956841
"27",9,35,1,2,27,3,1,0,2,0.747788843845573,0.894752011292851
"28",9,31,1,1,28,1,2,0,3,0.443159703237753,0.470462274000946
"29",9,28,1,1,29,3,1,1,3,0.822373554837206,0.842542147036969
"30",9,31,1,2,30,3,2,1,2,0.58070863075167,0.56730973730025
"31",9,34,1,1,31,1,2,0,3,0.648357674706184,0.649852938223964
"32",9,26,1,1,32,3,2,0,2,0.364302598853308,0.301819117661564
"33",9,37,1,1,33,1,1,1,4,0.315172560953205,0.319507216546146
"34",9,33,1,2,34,2,1,0,2,0.605399868185362,0.621330251477529
"35",9,38,1,2,35,1,1,0,4,0.65769736828452,0.698418402363777
"36",9,35,1,2,36,2,1,0,3,0.793430299019759,0.754284606293602
"37",9,35,1,1,37,2,1,1,4,0.680131686732947,0.832039876771686
"38",9,31,1,1,38,3,1,1,3,1.00679174794606,1.0522275142132
"39",9,28,1,1,39,3,2,0,2,1.52565198339951,1.55210310523157
"40",9,31,1,1,40,1,1,1,5,0.424528740800203,0.425861904683901
"41",9,34,1,2,41,1,2,1,5,0.409240817580505,0.323255551564772
"42",9,26,1,2,42,1,2,1,4,0.434237515372834,0.488721729127413
"43",9,37,1,1,43,2,1,1,4,0.558496420182479,0.640861846293967
"44",9,33,1,1,44,1,1,1,4,0.424367804842972,0.448832401165951
"45",9,38,1,1,45,2,1,1,3,0.595207311976853,0.608909994102494
"46",9,35,1,2,46,3,1,0,1,1.12367625783622,1.08359221008812
"47",9,35,1,1,47,2,1,1,4,0.504135379090654,0.425228051028155
"48",9,31,1,1,48,2,1,1,3,0.722687760825814,0.762138679151614
"49",9,28,1,1,49,2,1,1,4,0.605950215294634,0.609356376736994
"50",9,31,1,1,50,2,1,1,4,0.672192475417841,0.703581590059494
"51",9,34,1,2,51,1,2,1,5,0.457080809929412,0.409840192414118
"52",9,26,1,1,52,3,1,1,2,0.878425939575066,0.903622911533463
"53",9,37,1,2,53,1,1,0,4,0.562620200248107,0.546134668160225
"54",9,33,1,2,54,1,2,1,4,0.461929868145489,0.447409149362636
"55",9,38,1,2,55,2,2,1,3,0.714296605817244,0.670329190375058
"56",9,35,1,1,56,1,1,1,5,0.480769475077991,0.532173223586902
"57",9,35,1,2,57,1,2,1,5,0.454920384896033,0.385568090585764
"58",9,31,1,2,58,3,1,0,2,0.680329505875203,0.620525266911828
"59",9,28,1,2,59,2,1,0,2,0.474502573971494,0.539286099232127
"60",9,31,1,2,60,1,2,1,5,0.384985939862256,0.359014975124853
"61",9,34,1,1,61,2,1,1,4,0.847481509877825,0.827538409496521
"62",9,26,1,1,62,1,1,1,4,0.479818008661691,0.43301845203765
"63",9,37,1,2,63,2,2,1,4,0.44795260227435,0.486538795405826
"64",9,33,1,2,64,1,2,1,4,0.412280212281196,0.45443043097641
"65",9,38,1,2,65,2,1,0,2,0.63343061852344,0.710094790683337
"66",9,35,1,1,66,1,1,1,5,0.283963578607964,0.234174408669097
"67",9,35,1,1,67,1,1,1,4,0.492754129422205,0.587143382874835
"68",9,31,1,1,68,1,1,1,4,0.536409147769662,0.494914883471726
"69",9,28,1,1,69,1,2,0,4,0.585989380525384,0.562531325217536
"70",9,31,1,2,70,3,2,1,3,0.650788619628215,0.719630549719131
"71",9,34,1,2,71,2,2,1,3,0.787352365375945,0.854616877952655
"72",9,26,1,1,72,3,1,1,3,0.975155950136123,0.934530611018634
"73",9,37,1,1,73,3,1,1,2,0.608708179064822,0.526243328371131
"74",9,33,1,1,74,3,2,0,2,0.94515695316692,0.967887777488016
"75",9,38,1,1,75,1,1,1,5,0.372600273372629,0.347739262767933
"76",9,35,1,2,76,3,1,0,1,0.734815334774344,0.828525611894218
"77",9,35,1,1,77,2,2,0,2,0.689972032267292,0.708436988165414
"78",9,31,1,1,78,1,2,0,4,0.358893579879812,0.33036204779307
"79",9,28,1,2,79,1,2,1,5,0.384573029653662,0.48265506826223
"80",9,31,1,1,80,2,1,1,3,0.647117519254539,0.562534441459859
"81",9,34,1,1,81,1,2,0,3,0.477742285607759,0.442100607426053
"82",9,26,1,1,82,3,1,1,2,0.753273943541372,0.726133483155539
"83",9,37,1,2,83,2,2,1,3,0.706905485470421,0.703869089100677
"84",9,33,1,2,84,1,2,1,5,0.36485741521864,0.338543513996154
"85",9,38,1,1,85,3,1,1,3,0.635858635884041,0.58775716013927
"86",9,35,1,2,86,2,2,1,4,0.761429828565165,0.832867638420357
"87",9,35,1,1,87,2,2,0,3,0.921054068714529,0.777912567099294
"88",9,31,1,2,88,3,1,0,1,1.10139356068382,1.13852856442212
"89",9,28,1,2,89,1,2,1,4,0.289822031282893,0.312334069092424
"90",9,31,1,2,90,1,2,1,4,0.466107064746587,0.395100706993466
"91",9,34,1,2,91,2,2,1,4,0.371859038386296,0.425611670199617
"92",9,26,1,1,92,1,1,1,5,0.376537946645845,0.370077839946889
"93",9,37,1,2,93,3,1,0,2,1.05002795054019,1.03431315825579
"94",9,33,1,1,94,2,1,1,3,0.68007610829393,0.68286276164671
"95",9,38,1,2,95,3,1,0,1,0.615819290565858,0.554020208844065
"96",9,35,1,1,96,1,2,0,3,0.577031455547167,0.621873469139778
"97",9,35,1,1,97,2,1,1,4,0.453782982342313,0.489858007346677
"98",9,31,1,2,98,1,2,1,5,0.341483018337294,0.326471897722431
"99",9,28,1,2,99,3,1,0,1,1.38830866367751,1.38213945501206
"100",9,31,1,2,100,3,2,1,2,1.00671690309627,0.983329055616963
"101",9,34,1,2,101,1,2,1,5,0.370457848930047,0.309635798598473
"102",9,26,1,1,102,3,2,0,2,1.27697075157028,1.2207596821935
"103",9,37,1,1,103,2,2,0,2,0.590395298054482,0.625454782039744
"104",9,33,1,2,104,1,2,1,5,0.449911278543516,0.39260572245332
"105",9,38,1,2,105,3,1,0,2,0.864499371301029,0.839051185690332
"106",9,35,1,1,106,3,1,1,3,1.27787582251944,1.30377728689376
"107",9,35,1,1,107,3,1,1,3,0.720126288473341,0.80136404648911
"108",9,31,1,2,108,1,1,0,3,0.560125056458413,0.620946234266934
"109",9,28,1,1,109,3,1,1,3,0.916331553617964,0.859187560727428
"110",9,31,1,1,110,1,2,0,4,0.575354355594258,0.578576655577823
"111",9,34,1,2,111,2,2,1,4,0.733303957619012,0.747976552678161
"112",9,26,1,1,112,1,1,1,5,0.310007663390504,0.331501595204123
"113",9,37,1,2,113,3,2,1,2,0.871566588485151,0.921155443037337
"114",9,33,1,1,114,3,2,0,1,0.861620953019539,0.853198859901031
"115",9,38,1,1,115,3,1,1,3,0.7784369772482,0.806849873875204
"116",9,35,1,2,116,3,2,1,2,0.594099073087862,0.617668581009521
"117",9,35,1,1,117,3,2,0,2,1.4546984647819,1.5395705171995
"118",9,31,1,2,118,3,2,1,3,0.814488841511893,0.737205430344582
"119",9,28,1,2,119,3,1,0,2,0.705681954789075,0.744081885705048
"120",9,31,1,1,120,1,1,1,4,0.431708567577186,0.550041622507127
"121",9,34,1,2,121,1,1,0,4,0.649997395744501,0.603579375771517
"122",9,26,1,2,122,3,2,1,3,0.701580612161511,0.676051552874139
"123",9,37,1,2,123,1,1,0,4,0.613497562469934,0.528759567666028
"124",9,33,1,1,124,3,1,1,3,0.600689210572479,0.557002645048399
"125",9,38,1,1,125,3,2,0,1,0.755129265052797,0.765575678053845
"126",9,35,1,2,126,3,2,1,3,0.546301647699585,0.607083652057661
"127",9,35,1,1,127,2,2,0,2,0.619643530675943,0.570256351582058
"128",9,31,1,1,128,2,1,1,3,0.598374363071816,0.636937935329606
"129",9,28,1,2,129,2,2,1,3,0.551647120093657,0.548486467983209
"130",9,31,1,1,130,3,1,1,2,0.87947430558278,0.915467428268557
"131",9,34,1,1,131,2,1,1,4,0.570299669226794,0.53914710404723
"132",9,26,1,1,132,1,1,1,5,0.562769790750784,0.584711332691836
"133",9,37,1,2,133,1,2,1,4,0.297375757208761,0.344764447342943
"134",9,33,1,1,134,1,1,1,4,0.337029934723431,0.347010616032072
"135",9,38,1,2,135,2,2,1,3,0.742699154711364,0.728103557225272
"136",9,35,1,2,136,2,2,1,4,0.536127826584313,0.513167216405734
"137",9,35,1,1,137,1,1,1,4,0.407054565433327,0.415963437151993
"138",9,31,1,2,138,1,2,1,4,0.463933776893161,0.505258831749139
"139",9,28,1,2,139,3,2,1,2,1.0156241970873,0.935771724066488
"140",9,31,1,1,140,3,1,1,3,0.573377037322188,0.559126659242116
"141",9,34,1,1,141,1,1,1,5,0.337519253927322,0.335066050194152
"142",9,26,1,1,142,3,2,0,1,1.25914782425969,1.28747465328466
"143",9,37,1,2,143,2,1,0,2,0.630585005465354,0.716231367521507
"144",9,33,1,1,144,2,1,1,4,0.768202165553973,0.79774581511817
"145",9,38,1,2,145,3,2,1,3,0.916718825089287,0.915071570142138
"146",9,35,1,2,146,2,2,1,3,0.86474229299876,0.801298007444564
"147",9,35,1,2,147,1,2,1,4,0.448211098326213,0.466452535736977
"148",9,31,1,2,148,1,2,1,4,0.383804475655562,0.403555421593391
"149",9,28,1,1,149,1,1,1,4,0.51124318504053,0.513514727603791
"150",9,31,1,1,150,1,1,1,4,0.462600924143273,0.50691493990303
"151",9,34,1,1,151,2,1,1,3,0.482289505477094,0.413561843910673
"152",9,26,1,2,152,2,2,1,3,0.561175332943329,0.484221813806773
"153",9,37,1,1,153,2,1,1,3,0.549699935588465,0.611073258390677
"154",9,33,1,1,154,1,1,1,5,0.31672162277429,0.286209220672838
"155",9,38,1,1,155,1,2,0,4,0.439249413356576,0.394139621940065
"156",9,35,1,2,156,1,2,1,4,0.436125133812053,0.525831905320797
"157",9,35,1,2,157,3,1,0,2,0.999791623542008,0.900736157328591
"158",9,31,1,2,158,2,1,0,3,0.517903708259344,0.505096016185889
"159",9,28,1,2,159,1,2,1,5,0.48148145455384,0.485782702772651
"160",9,31,1,2,160,1,2,1,5,0.501460833837673,0.479542671678622
"161",9,34,1,1,161,2,1,1,4,0.759260699245593,0.806551772997719
"162",9,26,1,1,162,3,2,0,1,0.530802036592991,0.587778507844289
"163",9,37,1,1,163,3,1,1,2,0.872461765795082,0.961419995388655
"164",9,33,1,2,164,1,2,1,5,0.473328376009809,0.459523204851169
"165",9,38,1,1,165,2,2,0,3,0.711410048320572,0.669086213815549
"166",9,35,1,2,166,3,2,1,3,0.957297565051239,0.894952997517807
"167",9,35,1,2,167,3,1,0,1,1.04170529169336,0.988713733363606
"168",9,31,1,1,168,2,2,0,3,0.64000721333421,0.566277349447853
"169",9,28,1,1,169,2,1,1,3,0.717831108773983,0.793138305200696
"170",9,31,1,1,170,2,2,0,2,0.905626669670716,0.840119203468582
"171",9,34,1,1,171,1,2,0,4,0.452689274631852,0.523008104612629
"172",9,26,1,1,172,3,2,0,2,1.13564817423351,1.16640995577231
"173",9,37,1,1,173,3,1,1,3,0.985236252134981,0.960576044814165
"174",9,33,1,2,174,1,1,0,4,0.598462708474997,0.517042088292472
"175",9,38,1,1,175,3,2,0,2,1.02365142994281,0.95210867469279
"176",9,35,1,2,176,1,2,1,5,0.364325293841832,0.378064780094404
"177",9,35,1,2,177,2,1,0,3,0.634856605472275,0.746322501433813
"178",9,31,1,1,178,2,1,1,4,0.746062146821659,0.742889187548094
"179",9,28,1,2,179,2,2,1,4,0.494031593375859,0.502578644322391
"180",9,31,1,1,180,2,1,1,4,0.526895036094818,0.49485813988213
"181",9,34,1,1,181,3,1,1,2,0.816532790655948,0.898877207902502
"182",9,26,1,1,182,1,1,1,5,0.405919284377478,0.367829631072895
"183",9,37,1,1,183,2,1,1,4,0.399718441914483,0.361521616066014
"184",9,33,1,2,184,2,2,1,3,0.627242775750349,0.620510110564897
"185",9,38,1,2,185,3,1,0,1,0.50621102135294,0.573740644026891
"186",9,35,1,1,186,1,1,1,4,0.438763456217654,0.343174285139158
"187",9,35,1,2,187,1,2,1,5,0.428912580416428,0.424274201632015
"188",9,31,1,2,188,3,1,0,2,0.917888634064157,0.949261459312654
"189",9,28,1,1,189,1,1,1,4,0.421672764546982,0.440561884314728
"190",9,31,1,1,190,1,2,0,4,0.494584070861175,0.503660335078198
"191",9,34,1,2,191,3,2,1,3,0.760145358568128,0.769133151915433
"192",9,26,1,1,192,2,1,1,3,0.582259512898753,0.618454272630966
"193",9,37,1,1,193,3,1,1,2,0.722333176060388,0.722458562703694
"194",9,33,1,1,194,2,2,0,2,0.662260613392062,0.658419805078426
"195",9,38,1,1,195,1,1,1,4,0.317001467184311,0.364873489138949
"196",9,35,1,1,196,3,1,1,2,0.913572201930913,1.00787607397595
"197",9,35,1,1,197,3,1,1,3,0.490605292264037,0.386168956219064
"198",9,31,1,2,198,3,1,0,2,1.40863882415817,1.39338388101
"199",9,28,1,1,199,2,1,1,4,0.682790758132305,0.729326234914673
"200",9,31,1,2,200,3,1,0,2,0.906702200212268,0.806726483609334
"201",9,34,1,2,201,1,2,1,4,0.301304395883226,0.28775211489179
"202",9,26,1,1,202,3,1,1,2,0.981540086638295,0.997961462449291
"203",9,37,1,2,203,1,2,1,4,0.365085579227053,0.320210663187052
"204",9,33,1,2,204,3,2,1,2,0.928101852720482,0.919201813448145
"205",9,38,1,1,205,1,1,1,5,0.43264667516846,0.428688938902933
"206",9,35,1,2,206,3,1,0,2,0.191600528174509,0.216301219254864
"207",9,35,1,2,207,2,1,0,3,0.650203026376951,0.71733293142608
"208",9,31,1,1,208,3,1,1,2,0.740728686758278,0.706689736346177
"209",9,28,1,2,209,2,2,1,4,0.355884437315666,0.380558966064122
"210",9,31,1,1,210,2,2,0,3,0.7111020443295,0.781783347962159
"211",9,34,1,2,211,1,1,0,3,0.576665678434572,0.540114468081951
"212",9,26,1,1,212,1,1,1,5,0.370821454908997,0.387521483688629
"213",9,37,1,2,213,1,2,1,5,0.46192634299622,0.407161601914307
"214",9,33,1,2,214,2,2,1,3,0.695603964089587,0.625376529184302
"215",9,38,1,2,215,3,2,1,2,0.704623246710269,0.68756779886981
"216",9,35,1,1,216,3,2,0,2,0.860594572943382,0.861507053397322
"217",9,35,1,1,217,2,2,0,2,0.792345594401236,0.818847233364317
"218",9,31,1,2,218,2,2,1,3,0.702267771377838,0.799955320464247
"219",9,28,1,1,219,3,1,1,3,0.83353596435711,0.828826816678607
"220",9,31,1,2,220,1,2,1,5,0.371596186782295,0.427253948258298
"221",9,34,1,1,221,2,1,1,4,0.521027671503374,0.557348599951818
"222",9,26,1,1,222,3,2,0,1,1.3225685491927,1.32764152847076
"223",9,37,1,1,223,2,2,0,3,0.529488130132584,0.575749383973842
"224",9,33,1,1,224,2,1,1,4,0.693647503058273,0.653492062773434
"225",9,38,1,2,225,2,2,1,4,0.709687007719907,0.728948418265778
"226",9,35,1,2,226,3,2,1,3,0.587262975798313,0.507914925842128
"227",9,35,1,1,227,2,1,1,4,0.485230522350918,0.520172754384963
"228",9,31,1,2,228,2,2,1,4,0.528916075876278,0.62308776398085
"229",9,28,1,1,229,1,1,1,5,0.383318192854738,0.362229627239618
"230",9,31,1,1,230,1,1,1,4,0.449742072146827,0.470824772778182
"231",9,34,1,1,231,1,1,1,5,0.397494530842126,0.407443789101906
"232",9,26,1,1,232,2,1,1,3,0.609873700377943,0.677493589840108
"233",9,37,1,2,233,3,1,0,1,0.881010126355324,0.913555479998315
"234",9,33,1,2,234,2,2,1,4,0.530919099809197,0.500679335655257
"235",9,38,1,2,235,3,1,0,1,1.2659872511281,1.24772817516138
"236",9,35,1,1,236,3,2,0,2,1.21972013823692,1.23414623908218
"237",9,35,1,2,237,2,1,0,3,0.560513937361963,0.476075805694323
"238",9,31,1,2,238,3,1,0,2,1.15439608708857,1.09003696235772
"239",9,28,1,2,239,2,2,1,3,0.672361965726496,0.684844607374404
"240",9,31,1,2,240,3,2,1,2,0.935790586754091,1.05002107738576
"241",8,25,2,2,1,1,2,1,5,0.447355194779502,0.435185673387758
"242",8,29,2,1,2,2,1,1,3,0.501894175351073,0.516238061816859
"243",8,36,2,1,3,3,1,1,2,0.647452861696636,0.592442105440995
"244",8,24,2,2,4,1,2,1,5,0.379689013232585,0.36635424851274
"245",8,26,2,1,5,2,1,1,4,0.440398841701087,0.516735792021698
"246",8,24,2,1,6,3,2,0,1,0.507858144242385,0.569484687806798
"247",8,18,2,2,7,2,2,1,4,0.586282917925728,0.621139702024015
"248",8,29,2,2,8,2,2,1,4,0.59791173191676,0.54861238283483
"249",8,26,2,1,9,3,2,0,1,0.925466239206447,0.963302096655656
"250",8,40,2,1,10,3,2,0,1,1.90348341894872,1.90968663720606
"251",8,25,2,1,11,2,2,0,2,0.440279385266187,0.501279546194949
"252",8,29,2,2,12,1,1,0,3,0.606427428726431,0.633454634996147
"253",8,36,2,2,13,2,1,0,2,0.940016981057062,0.924244400451584
"254",8,24,2,1,14,3,2,0,1,1.15845609091502,1.13242203392792
"255",8,26,2,2,15,2,1,0,3,0.728771160439023,0.729343612528954
"256",8,24,2,2,16,2,2,1,4,0.505526127079105,0.495635933903531
"257",8,18,2,2,17,1,2,1,4,0.609194504873378,0.585629961849806
"258",8,29,2,2,18,1,2,1,5,0.389464256162636,0.317284592535981
"259",8,26,2,1,19,3,1,1,3,0.634386775805567,0.654542191424583
"260",8,40,2,2,20,1,2,1,5,0.343922586603336,0.373628665247031
"261",8,25,2,1,21,2,1,1,3,0.531271404261042,0.569478368945902
"262",8,29,2,1,22,2,1,1,3,0.515391163812925,0.516532722371175
"263",8,36,2,2,23,3,2,1,2,0.501261315554868,0.50192544083842
"264",8,24,2,2,24,2,2,1,4,0.585983792493868,0.562715503002204
"265",8,26,2,1,25,3,2,0,1,0.591302884358714,0.616603486543898
"266",8,24,2,1,26,2,2,0,2,0.697668585656101,0.749526605286621
"267",8,18,2,1,27,2,2,0,2,1.01819048161914,0.977482109187783
"268",8,29,2,2,28,3,2,1,2,0.914271410659162,0.83729513290107
"269",8,26,2,1,29,3,2,0,1,0.404019724221067,0.459647999336913
"270",8,40,2,2,30,1,2,1,5,0.356099707289722,0.305452590889567
"271",8,25,2,1,31,2,1,1,4,0.392575217700998,0.370823748098441
"272",8,29,2,2,32,2,2,1,3,0.663137368569141,0.595109020997462
"273",8,36,2,2,33,2,2,1,3,0.625780471045837,0.714882184041426
"274",8,24,2,2,34,1,2,1,4,0.370000890378865,0.329936558432351
"275",8,26,2,1,35,3,1,1,2,0.560253732991497,0.681132782776033
"276",8,24,2,1,36,2,2,0,3,0.778216558124218,0.789820901517849
"277",8,18,2,2,37,3,2,1,3,0.618315022314984,0.676800525366936
"278",8,29,2,1,38,1,1,1,4,0.420333110416713,0.397124556174992
"279",8,26,2,1,39,3,2,0,1,1.37346336545174,1.44286433845982
"280",8,40,2,1,40,1,1,1,4,0.467367553689032,0.506693444097519
"281",8,25,2,1,41,1,1,1,5,0.375926858541547,0.408484300444797
"282",8,29,2,2,42,2,1,0,2,0.931230260225897,0.904361560249584
"283",8,36,2,1,43,2,1,1,3,0.645828099792656,0.646435068072739
"284",8,24,2,2,44,3,2,1,3,0.83556495791918,0.916692926319606
"285",8,26,2,1,45,3,2,0,2,1.23330952003239,1.20438488153527
"286",8,24,2,2,46,2,2,1,4,0.793621487007659,0.716172107517705
"287",8,18,2,1,47,1,1,1,5,0.538220212945384,0.595341866538349
"288",8,29,2,1,48,2,1,1,4,0.652948935351025,0.660017202516517
"289",8,26,2,1,49,2,2,0,3,0.577754105596341,0.549182374910527
"290",8,40,2,1,50,2,1,1,3,0.662617792328292,0.683699714993023
"291",8,25,2,2,51,1,2,1,5,0.537981488509203,0.533207561012038
"292",8,29,2,2,52,1,2,1,5,0.417672991010284,0.438920264691193
"293",8,36,2,1,53,3,2,0,2,1.72443428044018,1.7677133229947
"294",8,24,2,2,54,1,2,1,5,0.341813683850917,0.357291610616741
"295",8,26,2,2,55,2,1,0,3,0.561714867482602,0.512762847227437
"296",8,24,2,1,56,2,1,1,3,0.613266042360486,0.540178250490268
"297",8,18,2,1,57,3,2,0,1,0.940270815884429,1.02240999721771
"298",8,29,2,1,58,2,1,1,3,0.626635398847689,0.644564911138921
"299",8,26,2,2,59,1,1,0,3,0.438802112489629,0.407328381789253
"300",8,40,2,1,60,2,1,1,3,0.475939806738888,0.5089102571859
"301",8,25,2,2,61,2,1,0,2,0.745232839267564,0.770086094417666
"302",8,29,2,2,62,2,2,1,3,0.477791066070191,0.494921650810822
"303",8,36,2,1,63,3,1,1,3,1.14362683625875,1.11529035299409
"304",8,24,2,1,64,3,1,1,3,0.502394023750084,0.546437420372125
"305",8,26,2,2,65,2,1,0,3,0.668902154524443,0.657183344844729
"306",8,24,2,1,66,3,1,1,2,0.813767838472413,0.773963163562223
"307",8,18,2,2,67,2,2,1,3,0.490908454812801,0.452311344176246
"308",8,29,2,2,68,1,1,0,3,0.544736154736409,0.715964230443846
"309",8,26,2,1,69,3,1,1,2,0.677158445124841,0.676195760127592
"310",8,40,2,1,70,2,1,1,4,0.709374420607403,0.818011174804222
"311",8,25,2,2,71,3,1,0,2,1.3301435073135,1.38847035126371
"312",8,29,2,1,72,1,1,1,4,0.506180139815885,0.536246552633793
"313",8,36,2,1,73,3,2,0,2,1.97960907189574,1.99394748599309
"314",8,24,2,2,74,3,2,1,3,0.825169436477175,0.74101155037829
"315",8,26,2,2,75,1,2,1,4,0.588609329923316,0.606936558671978
"316",8,24,2,1,76,3,1,1,2,0.709057722076699,0.70255148475462
"317",8,18,2,1,77,3,2,0,2,1.22170140714539,1.16935524331636
"318",8,29,2,2,78,3,1,0,1,0.907762354232288,0.95869229558043
"319",8,26,2,1,79,3,2,0,1,0.282113766633115,0.240344862749923
"320",8,40,2,2,80,1,2,1,4,0.468504582113313,0.445847751261371
"321",8,25,2,2,81,3,2,1,3,0.834278921942316,0.815154107830798
"322",8,29,2,2,82,1,1,0,4,0.461626227542265,0.48143477771817
"323",8,36,2,2,83,3,1,0,1,1.29242293962277,1.34585532767705
"324",8,24,2,2,84,1,1,0,3,0.509122407319641,0.521160712398566
"325",8,26,2,1,85,3,1,1,3,0.893970410229266,0.989391721241342
"326",8,24,2,2,86,2,2,1,3,0.616920604521232,0.641896111171976
"327",8,18,2,2,87,2,2,1,3,0.503102296855253,0.55321834228968
"328",8,29,2,2,88,3,1,0,2,0.458857111277517,0.45876244097127
"329",8,26,2,1,89,2,2,0,2,0.49311288016718,0.488690576125992
"330",8,40,2,1,90,3,2,0,2,0.500256954113519,0.48772183341016
"331",8,25,2,1,91,1,1,1,5,0.401089082858463,0.382067144866102
"332",8,29,2,1,92,1,1,1,5,0.43565686757108,0.442679778842227
"333",8,36,2,2,93,1,2,1,5,0.355273785584596,0.400623034037569
"334",8,24,2,1,94,3,2,0,1,1.01424639867563,0.999312981883384
"335",8,26,2,1,95,2,1,1,4,0.59414771269608,0.567317814810201
"336",8,24,2,1,96,1,1,1,4,0.459464116397264,0.499451758124037
"337",8,18,2,2,97,3,2,1,2,0.82701209743223,0.86185283489994
"338",8,29,2,2,98,1,2,1,4,0.4328353025597,0.311304593619222
"339",8,26,2,2,99,1,2,1,5,0.442978319583477,0.328655507659121
"340",8,40,2,1,100,1,1,1,5,0.400902101677776,0.431826775490472
"341",8,25,2,2,101,2,2,1,4,0.597817572440092,0.633631168558085
"342",8,29,2,2,102,2,2,1,4,0.53294080474654,0.548455447333106
"343",8,36,2,2,103,2,2,1,4,0.529446958373694,0.544284551838894
"344",8,24,2,2,104,3,1,0,2,1.5132675889515,1.38133741361564
"345",8,26,2,2,105,1,2,1,4,0.365147543180565,0.401314259673055
"346",8,24,2,2,106,3,1,0,1,1.35330739389971,1.39177303367817
"347",8,18,2,1,107,3,1,1,2,1.16115892065534,1.12829813638141
"348",8,29,2,1,108,1,1,1,5,0.256090698852642,0.356669234437719
"349",8,26,2,1,109,2,2,0,2,0.756362607780273,0.709991880822487
"350",8,40,2,1,110,1,1,1,4,0.412619210013442,0.401265410688075
"351",8,25,2,2,111,3,2,1,3,0.971267672761889,0.923833197811246
"352",8,29,2,1,112,1,1,1,4,0.46836413482391,0.485082172881049
"353",8,36,2,2,113,2,2,1,3,0.359288041558526,0.403652303879073
"354",8,24,2,1,114,2,2,0,3,0.555571497294243,0.589298266544882
"355",8,26,2,1,115,2,1,1,4,0.543177639934075,0.588460879734583
"356",8,24,2,2,116,2,2,1,4,0.638066180369477,0.632988882495356
"357",8,18,2,1,117,1,2,0,3,0.497506037598912,0.432552699954712
"358",8,29,2,1,118,3,1,1,2,0.87991562039797,0.92515534693274
"359",8,26,2,2,119,3,2,1,2,0.874181782921385,0.831507969735616
"360",8,40,2,1,120,1,1,1,5,0.31570163790316,0.168116344813977
"361",8,25,2,1,121,1,1,1,4,0.394022411448637,0.400591506492161
"362",8,29,2,2,122,3,1,0,2,1.17392461834834,1.27096286299174
"363",8,36,2,2,123,1,2,1,5,0.523534560382486,0.547167756403458
"364",8,24,2,2,124,2,2,1,4,0.86091730371759,0.930073663752056
"365",8,26,2,1,125,1,1,1,5,0.411068815572306,0.419782912587058
"366",8,24,2,1,126,3,2,0,1,0.887802504376871,0.886481043942604
"367",8,18,2,2,127,3,2,1,3,1.02433981807411,1.08018493951372
"368",8,29,2,2,128,1,2,1,5,0.475778060765422,0.562998155228529
"369",8,26,2,2,129,1,2,1,4,0.347368094439281,0.317357595392851
"370",8,40,2,2,130,1,2,1,4,0.287065759343853,0.295975111896649
"371",8,25,2,2,131,3,2,1,2,0.895962084965728,0.938338480403261
"372",8,29,2,2,132,1,2,1,4,0.354112656052486,0.363234661445691
"373",8,36,2,2,133,2,2,1,4,0.70030157364186,0.75454848877776
"374",8,24,2,2,134,2,2,1,3,0.605933624120547,0.590104993251656
"375",8,26,2,2,135,2,2,1,4,0.302651889480622,0.325030773295859
"376",8,24,2,2,136,1,2,1,4,0.34781450732564,0.330988503268593
"377",8,18,2,2,137,1,2,1,4,0.514399829560869,0.42485385084177
"378",8,29,2,1,138,1,1,1,5,0.344054852683698,0.281979895189459
"379",8,26,2,1,139,1,1,1,4,0.430323792696465,0.553643420027153
"380",8,40,2,2,140,1,2,1,4,0.24585815505533,0.28401203313301
"381",8,25,2,2,141,3,2,1,3,1.02230704438542,0.9652435558593
"382",8,29,2,1,142,2,1,1,3,0.503081495025328,0.55273369142125
"383",8,36,2,2,143,1,2,1,4,0.426939213641537,0.368730548093955
"384",8,24,2,1,144,1,2,0,3,0.550970083133601,0.498100568783377
"385",8,26,2,2,145,2,1,0,2,0.778759023486518,0.731357822138392
"386",8,24,2,1,146,3,1,1,2,0.948321740069682,1.00707855864207
"387",8,18,2,1,147,2,1,1,3,0.631777080961858,0.77019084529959
"388",8,29,2,2,148,1,1,0,4,0.569959569417338,0.590373550446681
"389",8,26,2,2,149,1,2,1,5,0.357874567308009,0.401679770823211
"390",8,40,2,1,150,3,2,0,2,0.652871271783723,0.709031017862734
"391",8,25,2,1,151,3,1,1,2,0.887189943111652,0.921650168076909
"392",8,29,2,1,152,1,1,1,5,0.378930293629456,0.288081551508042
"393",8,36,2,2,153,1,2,1,4,0.358849520361469,0.383008420467066
"394",8,24,2,1,154,1,1,1,5,0.280694341849357,0.262692403226558
"395",8,26,2,1,155,3,1,1,2,0.403951765400643,0.509558823571452
"396",8,24,2,1,156,2,1,1,4,0.552467883964853,0.581720305847251
"397",8,18,2,1,157,1,1,1,4,0.503838043382249,0.589007776995276
"398",8,29,2,1,158,2,1,1,4,0.600187445909798,0.582608426554717
"399",8,26,2,2,159,2,1,0,3,0.747928385422762,0.794444248795817
"400",8,40,2,2,160,1,1,0,4,0.751403105753448,0.771222384018085
"401",8,25,2,2,161,2,1,0,3,0.588318368857612,0.596560737163674
"402",8,29,2,1,162,1,1,1,4,0.351857134361,0.282991426968115
"403",8,36,2,2,163,2,1,0,3,0.826553722772596,0.842398269416401
"404",8,24,2,1,164,3,2,0,2,0.703875453200761,0.710478527309166
"405",8,26,2,2,165,1,2,1,4,0.458629480525408,0.466056256109116
"406",8,24,2,2,166,3,1,0,2,0.960480332525888,0.957390342027986
"407",8,18,2,1,167,3,2,0,1,1.28472746649312,1.25933094783912
"408",8,29,2,1,168,2,2,0,3,1.03623817707491,1.0718262864028
"409",8,26,2,1,169,2,1,1,4,0.593149032163002,0.50690224915934
"410",8,40,2,1,170,1,2,0,4,0.390339307746261,0.411736773220502
"411",8,25,2,2,171,3,2,1,3,1.04545730994697,0.943774276875753
"412",8,29,2,1,172,1,1,1,4,0.464869867524482,0.410193376568058
"413",8,36,2,2,173,2,1,0,3,0.703857723416131,0.773571321717561
"414",8,24,2,2,174,2,2,1,3,0.593533706651842,0.685640378448827
"415",8,26,2,1,175,1,2,0,4,0.623774967129582,0.689882954911253
"416",8,24,2,2,176,3,2,1,3,0.737379619705466,0.741862412896906
"417",8,18,2,1,177,3,1,1,3,0.901190757952735,0.896443442203246
"418",8,29,2,1,178,2,2,0,3,0.796517349116661,0.76736538565063
"419",8,26,2,1,179,1,1,1,5,0.360764788799683,0.401787525464603
"420",8,40,2,1,180,2,1,1,4,0.646336100387512,0.738331867707778
"421",8,25,2,1,181,2,2,0,3,0.76626481341667,0.756142075254816
"422",8,29,2,2,182,3,2,1,3,0.452443419502724,0.397304338044458
"423",8,36,2,1,183,3,2,0,1,0.829503378246545,0.847642030429694
"424",8,24,2,1,184,2,1,1,3,0.726423660073513,0.743379452664702
"425",8,26,2,1,185,1,1,1,5,0.380291936211686,0.444922963493648
"426",8,24,2,1,186,2,1,1,3,0.536559477647242,0.474633825717097
"427",8,18,2,1,187,2,2,0,3,0.741078838657062,0.710424009004013
"428",8,29,2,2,188,2,2,1,4,0.698992269052947,0.633704801752729
"429",8,26,2,2,189,3,1,0,2,1.09209211696707,1.01295618323555
"430",8,40,2,1,190,1,1,1,5,0.373334204823981,0.488108882586822
"431",8,25,2,2,191,3,2,1,3,0.910860539305415,0.887590201943453
"432",8,29,2,1,192,2,2,0,3,0.584202660013638,0.572847394307756
"433",8,36,2,1,193,2,2,0,3,0.815872487021943,0.838893448390328
"434",8,24,2,2,194,3,1,0,1,0.922270863242305,0.931206048448566
"435",8,26,2,2,195,3,2,1,3,0.89945450214336,0.831198749629082
"436",8,24,2,1,196,1,2,0,3,0.583738659076814,0.670310179468915
"437",8,18,2,2,197,1,2,1,4,0.457734033136205,0.468394448601428
"438",8,29,2,2,198,2,2,1,4,0.241765441474859,0.368911756060693
"439",8,26,2,2,199,1,2,1,5,0.253145003344356,0.255130458849931
"440",8,40,2,1,200,3,1,1,2,0.95894313498766,0.922782458801335
"441",8,25,2,1,201,1,1,1,5,0.262651284205141,0.304026052098582
"442",8,29,2,1,202,1,2,0,4,0.584684035312062,0.579890622298879
"443",8,36,2,1,203,3,2,0,1,0.749017606611517,0.836206082759988
"444",8,24,2,2,204,3,1,0,1,0.908956853968664,0.888703279702688
"445",8,26,2,1,205,3,2,0,1,1.39303355243112,1.44470510011941
"446",8,24,2,1,206,2,1,1,3,0.434174862026252,0.505845800784392
"447",8,18,2,2,207,1,2,1,4,0.4264980020802,0.348494221829439
"448",8,29,2,1,208,3,2,0,1,0.90947100472802,0.922368326046569
"449",8,26,2,2,209,3,2,1,3,0.889718272686289,0.896463269155504
"450",8,40,2,1,210,1,1,1,4,0.496054449349722,0.617353617860125
"451",8,25,2,2,211,1,2,1,5,0.489153105423598,0.488718828550249
"452",8,29,2,2,212,1,2,1,5,0.44367119947944,0.364817574924628
"453",8,36,2,2,213,2,2,1,4,0.646847203008385,0.701295594412305
"454",8,24,2,1,214,1,1,1,5,0.310344862165222,0.327772087008449
"455",8,26,2,1,215,1,1,1,5,0.350085749160311,0.334046159754821
"456",8,24,2,2,216,2,2,1,4,0.688788572894213,0.753663917563623
"457",8,18,2,2,217,3,1,0,1,0.831883791819577,0.808211692163294
"458",8,29,2,2,218,1,2,1,4,0.370232265475411,0.394194067957408
"459",8,26,2,2,219,1,2,1,5,0.44597139465753,0.456172949523269
"460",8,40,2,1,220,3,1,1,2,0.754884870583915,0.691100857237437
"461",8,25,2,1,221,3,2,0,1,0.830134013725719,0.764657545579487
"462",8,29,2,2,222,3,2,1,3,0.792882722055749,0.817524777278109
"463",8,36,2,2,223,2,1,0,2,0.782709486272879,0.85030447082542
"464",8,24,2,1,224,3,2,0,2,0.804243582173378,0.792082525188879
"465",8,26,2,2,225,3,2,1,2,0.648750525323384,0.543744354763841
"466",8,24,2,2,226,3,1,0,2,1.02080584395785,1.0524776701755
"467",8,18,2,2,227,3,1,0,1,1.08794619077527,1.09570021355003
"468",8,29,2,2,228,3,2,1,2,0.883074155591711,0.930873681638643
"469",8,26,2,1,229,1,1,1,4,0.267201373863107,0.238718760352165
"470",8,40,2,2,230,1,2,1,4,0.517153923700359,0.51766754664645
"471",8,25,2,1,231,3,2,0,1,0.455068172775007,0.470378214230881
"472",8,29,2,2,232,3,1,0,2,1.28697939764584,1.34480042068096
"473",8,36,2,2,233,2,1,0,3,0.519746987257192,0.50238489932429
"474",8,24,2,2,234,3,2,1,3,1.17362731134724,1.1694813280487
"475",8,26,2,2,235,2,1,0,2,0.748763001107284,0.830237840534248
"476",8,24,2,2,236,2,2,1,4,0.474182219402259,0.484105342483068
"477",8,18,2,1,237,2,1,1,3,0.606255362385484,0.590805057534723
"478",8,29,2,1,238,1,1,1,5,0.398876476460736,0.322088872390726
"479",8,26,2,1,239,2,2,0,3,0.618727004670933,0.612732827109044
"480",8,40,2,1,240,2,1,1,3,0.699108663874083,0.742009985071085
"481",7,25,1,2,1,1,1,0,3,0.674650458103023,0.645068596139425
"482",7,21,1,2,2,2,1,0,3,0.916274799446267,0.762510583941606
"483",7,22,1,1,3,3,2,0,2,0.0624557059715228,-0.00741029133811043
"484",7,38,1,2,4,3,2,1,2,0.689730641844946,0.699724898262371
"485",7,22,1,1,5,2,1,1,3,0.464209125582957,0.445170750878776
"486",7,20,1,1,6,1,1,1,5,0.284664030004402,0.399888287507002
"487",7,30,1,1,7,3,1,1,2,0.855944494282443,0.851111562023323
"488",7,23,1,1,8,1,2,0,3,0.623112658175899,0.635993464306322
"489",7,34,1,1,9,3,2,0,1,1.14308313534451,1.15046806903497
"490",7,38,1,1,10,2,2,0,3,0.86749416466,0.852645712306647
"491",7,25,1,1,11,2,2,0,2,0.784130290381065,0.766092042588847
"492",7,21,1,2,12,1,2,1,5,0.261133739594462,0.223997629025206
"493",7,22,1,2,13,2,2,1,3,0.439994888125023,0.482015531023103
"494",7,38,1,1,14,2,1,1,4,0.399728115725416,0.362835930838332
"495",7,22,1,2,15,1,2,1,5,0.396950046806984,0.485116607496365
"496",7,20,1,2,16,3,2,1,2,0.554418679354026,0.573238304822605
"497",7,30,1,1,17,1,1,1,4,0.424498106377637,0.281304700998199
"498",7,23,1,2,18,1,2,1,5,0.32034541763552,0.294030489004784
"499",7,34,1,2,19,1,2,1,4,0.333367760246219,0.207806385997952
"500",7,38,1,1,20,1,1,1,5,0.481830844069339,0.483921132072852
"501",7,25,1,1,21,2,1,1,3,0.771287089795918,0.760823947094857
"502",7,21,1,1,22,3,2,0,1,0.761564456725552,0.764697158849615
"503",7,22,1,2,23,3,2,1,2,0.653426120457971,0.684967240510888
"504",7,38,1,2,24,3,1,0,2,0.995083498678059,0.948393101092202
"505",7,22,1,2,25,3,2,1,2,0.818692823341687,0.758047216163279
"506",7,20,1,2,26,2,1,0,3,0.946919376458828,0.968258578764756
"507",7,30,1,1,27,1,2,0,4,0.448100321256458,0.431713238174332
"508",7,23,1,2,28,2,1,0,2,0.611252780776858,0.573302622106388
"509",7,34,1,1,29,1,1,1,5,0.327166064690082,0.254607772167632
"510",7,38,1,2,30,3,1,0,2,0.243958212888956,0.303219396348172
"511",7,25,1,2,31,1,2,1,4,0.378579470468459,0.358525156421181
"512",7,21,1,1,32,1,1,1,4,0.390083328825271,0.426070319315555
"513",7,22,1,2,33,2,2,1,3,0.556220715301603,0.640741495496265
"514",7,38,1,2,34,3,1,0,2,1.35495043382481,1.47701139698025
"515",7,22,1,1,35,2,1,1,3,0.420013607935369,0.321696742404489
"516",7,20,1,2,36,1,1,0,4,0.559307967802981,0.626073536919545
"517",7,30,1,1,37,2,2,0,2,0.79898868351116,0.757655541994363
"518",7,23,1,2,38,1,1,0,4,0.665733269855283,0.711233055559598
"519",7,34,1,2,39,1,1,0,4,0.464949646187919,0.511579456205086
"520",7,38,1,2,40,1,2,1,4,0.301217628090768,0.286323196904582
"521",7,25,1,2,41,3,2,1,3,0.481867424188238,0.467033502520218
"522",7,21,1,1,42,3,1,1,3,0.631571680126034,0.667636760880477
"523",7,22,1,2,43,1,1,0,3,0.581588000297861,0.537150614828939
"524",7,38,1,2,44,1,1,0,4,0.6781934354922,0.649792231760399
"525",7,22,1,2,45,1,2,1,5,0.466136158759821,0.533989026349033
"526",7,20,1,1,46,2,1,1,3,0.680896128570058,0.633062675326708
"527",7,30,1,2,47,3,2,1,3,1.13031920384238,1.16168218938566
"528",7,23,1,2,48,3,1,0,1,0.331632073766928,0.359002654657561
"529",7,34,1,2,49,3,1,0,2,0.802556986214027,0.762135082690003
"530",7,38,1,1,50,2,1,1,4,0.732660904280798,0.794137594934271
"531",7,25,1,2,51,2,2,1,3,0.569815442830982,0.550745673064276
"532",7,21,1,2,52,1,2,1,4,0.447117046895566,0.404497429402499
"533",7,22,1,1,53,2,2,0,3,0.766982496920935,0.837193198018442
"534",7,38,1,2,54,3,2,1,2,0.635359375758455,0.695615815096305
"535",7,22,1,2,55,1,1,0,3,0.5222231689731,0.504881067620147
"536",7,20,1,1,56,1,1,1,4,0.405552329986564,0.42934549887652
"537",7,30,1,2,57,1,2,1,5,0.362950215378816,0.33745166649269
"538",7,23,1,2,58,2,1,0,3,0.600840597358612,0.664484807555078
"539",7,34,1,2,59,2,2,1,3,0.669780585134789,0.667577413411896
"540",7,38,1,1,60,2,2,0,2,0.650495944117157,0.683135782390837
"541",7,25,1,2,61,2,2,1,3,0.47065187066312,0.433070785437801
"542",7,21,1,1,62,1,2,0,3,0.602755315886537,0.598279067256206
"543",7,22,1,2,63,2,1,0,2,0.644218599078207,0.607003412426859
"544",7,38,1,1,64,3,1,1,3,0.724633118956832,0.710457835120469
"545",7,22,1,1,65,2,2,0,2,0.726527818921799,0.715465331357481
"546",7,20,1,1,66,1,1,1,4,0.487249548960601,0.483323714111301
"547",7,30,1,1,67,3,1,1,2,0.441027905685045,0.518543417219971
"548",7,23,1,2,68,3,2,1,2,0.728108957129379,0.755090696081553
"549",7,34,1,1,69,1,1,1,5,0.338055373199081,0.314039164463541
"550",7,38,1,2,70,1,2,1,5,0.413247615307163,0.451445118763215
"551",7,25,1,1,71,1,1,1,5,0.310339913637503,0.225809461676489
"552",7,21,1,1,72,3,2,0,1,1.17430250186025,1.19941226493685
"553",7,22,1,2,73,1,2,1,4,0.536911185675625,0.608273442181405
"554",7,38,1,2,74,2,2,1,3,0.578497278461932,0.584708484273798
"555",7,22,1,2,75,2,2,1,3,0.571440921123179,0.535818601798256
"556",7,20,1,1,76,1,1,1,4,0.43119413492136,0.404848241050777
"557",7,30,1,2,77,2,1,0,2,0.656133979858573,0.694013131352183
"558",7,23,1,1,78,1,1,1,4,0.334798425430192,0.343890974103865
"559",7,34,1,2,79,3,2,1,2,0.776770976406359,0.813890139439292
"560",7,38,1,1,80,2,1,1,3,0.751048551153987,0.823546379757735
"561",7,25,1,1,81,2,2,0,3,0.474077967869436,0.466377610495686
"562",7,21,1,2,82,1,2,1,4,0.242436821229565,0.312245747678687
"563",7,22,1,1,83,1,1,1,5,0.533781239265837,0.567819083725817
"564",7,38,1,2,84,1,2,1,5,0.325067415906203,0.379165573789141
"565",7,22,1,1,85,1,1,1,5,0.316063226797277,0.361469154190755
"566",7,20,1,2,86,2,1,0,2,1.04530508646229,1.16748199617339
"567",7,30,1,2,87,2,2,1,4,0.4382726225257,0.463587726256194
"568",7,23,1,1,88,3,1,1,2,0.572627658837634,0.529383015675468
"569",7,34,1,2,89,3,2,1,3,0.681595673025845,0.698992546243298
"570",7,38,1,1,90,1,1,1,5,0.354415418799224,0.407490601360792
"571",7,25,1,2,91,2,1,0,2,0.812400831537665,0.857265903060796
"572",7,21,1,1,92,3,1,1,3,0.686359427792364,0.656207430030201
"573",7,22,1,2,93,3,1,0,2,0.15170333985423,0.0918797922070946
"574",7,38,1,1,94,1,2,0,4,0.575504864012776,0.563910705710836
"575",7,22,1,2,95,1,2,1,5,0.289951030107781,0.223322985056512
"576",7,20,1,2,96,3,2,1,3,0.833300312935575,0.80028901912214
"577",7,30,1,2,97,2,2,1,3,0.439216167791632,0.433600168874637
"578",7,23,1,1,98,3,1,1,3,0.742685288965402,0.697032258391113
"579",7,34,1,2,99,2,1,0,3,0.732121887935091,0.718727772479267
"580",7,38,1,2,100,1,2,1,4,0.345714503398856,0.39193141320494
"581",7,25,1,1,101,1,2,0,3,0.305866668374236,0.423957481299695
"582",7,21,1,1,102,3,1,1,3,0.628992525535681,0.650524838863734
"583",7,22,1,1,103,3,1,1,2,1.160340144804,1.09997542263886
"584",7,38,1,1,104,2,1,1,4,0.577618402370791,0.642109303869155
"585",7,22,1,2,105,3,1,0,1,0.825178938947426,0.875616147760141
"586",7,20,1,2,106,3,2,1,3,0.881115966030917,0.845333557283028
"587",7,30,1,1,107,3,2,0,1,1.1576975838784,1.13114766532604
"588",7,23,1,1,108,1,1,1,5,0.213289473179679,0.165985420474523
"589",7,34,1,1,109,2,2,0,2,0.804785811677614,0.722917503944125
"590",7,38,1,1,110,3,1,1,2,0.814613937065962,0.786195879768899
"591",7,25,1,1,111,1,1,1,4,0.507021624897344,0.41635280219521
"592",7,21,1,2,112,2,2,1,3,0.719321259817653,0.63230933980253
"593",7,22,1,2,113,3,2,1,2,0.644755431008049,0.630709070677889
"594",7,38,1,1,114,2,2,0,3,0.31536716050409,0.324505600749596
"595",7,22,1,1,115,1,1,1,4,0.299399410170708,0.328279912438657
"596",7,20,1,1,116,2,1,1,4,0.7346051131986,0.807934338591005
"597",7,30,1,1,117,3,2,0,2,0.612609622122194,0.622538974912277
"598",7,23,1,2,118,2,2,1,3,0.735338664340817,0.718134372700205
"599",7,34,1,1,119,2,1,1,3,0.839752251022365,0.95452948507065
"600",7,38,1,1,120,3,1,1,2,0.8560930270758,0.738931762369834
"601",7,25,1,1,121,3,2,0,2,1.33874226884531,1.32337606568881
"602",7,21,1,1,122,1,2,0,3,0.651064628292485,0.609407149692492
"603",7,22,1,1,123,2,1,1,4,0.388180027359731,0.390690546492851
"604",7,38,1,2,124,3,1,0,1,1.15764177067523,1.12960856048511
"605",7,22,1,1,125,2,1,1,4,0.629401029627519,0.643900379121075
"606",7,20,1,2,126,1,2,1,5,0.477276504407721,0.597715297052618
"607",7,30,1,1,127,1,2,0,3,0.546351936927193,0.592551476030684
"608",7,23,1,1,128,2,1,1,3,0.364785447897512,0.330779134597521
"609",7,34,1,1,129,1,1,1,4,0.454245692988195,0.400541582284736
"610",7,38,1,2,130,2,2,1,3,0.374936684750078,0.321493738176158
"611",7,25,1,2,131,2,2,1,4,0.739834532501929,0.819473623182179
"612",7,21,1,2,132,1,2,1,5,0.380024009707388,0.421852513075666
"613",7,22,1,2,133,3,1,0,1,1.38214467825374,1.44793396773953
"614",7,38,1,2,134,3,1,0,1,1.07047526756401,1.08857506912023
"615",7,22,1,1,135,3,1,1,3,0.512800764313409,0.572766371574754
"616",7,20,1,2,136,2,2,1,4,0.696111386875759,0.685928094326058
"617",7,30,1,1,137,1,1,1,5,0.48968271412239,0.486219088404638
"618",7,23,1,1,138,3,2,0,2,0.987144930095319,0.95248977787121
"619",7,34,1,2,139,3,2,1,2,1.20573078853536,1.09563593479239
"620",7,38,1,1,140,2,2,0,2,0.826040031199273,0.837593444302384
"621",7,25,1,1,141,2,2,0,2,0.748471891108322,0.875313417698756
"622",7,21,1,1,142,3,1,1,2,0.923124806547839,0.959469239929275
"623",7,22,1,2,143,2,1,0,2,0.731387101104778,0.665140293504617
"624",7,38,1,1,144,2,2,0,3,0.83001738672561,0.864388145219854
"625",7,22,1,2,145,2,1,0,2,0.917892124785743,0.999287460687053
"626",7,20,1,1,146,1,1,1,5,0.342805812726156,0.308802923187508
"627",7,30,1,2,147,3,2,1,2,0.553106343996507,0.505324031866102
"628",7,23,1,2,148,1,2,1,4,0.397798761396958,0.421412069601875
"629",7,34,1,1,149,1,1,1,4,0.467532372394586,0.500400382622096
"630",7,38,1,1,150,1,1,1,5,0.458992494007152,0.364332474452517
"631",7,25,1,1,151,2,2,0,2,0.775673436526688,0.822787783162154
"632",7,21,1,1,152,3,1,1,3,0.777694705932389,0.79286991898705
"633",7,22,1,2,153,2,2,1,3,0.672721930905124,0.615258306912913
"634",7,38,1,2,154,1,2,1,4,0.585794896980498,0.644977184263603
"635",7,22,1,1,155,1,1,1,4,0.310507343858544,0.32525691857018
"636",7,20,1,1,156,2,2,0,3,0.936188199598686,0.869546918030806
"637",7,30,1,2,157,3,2,1,3,0.551684646815696,0.488448094328052
"638",7,23,1,1,158,2,1,1,3,0.44122143251311,0.366217265176581
"639",7,34,1,2,159,3,2,1,2,0.819517765144173,0.789758172286399
"640",7,38,1,2,160,2,2,1,4,0.523331346602372,0.542181303774069
"641",7,25,1,2,161,3,1,0,2,0.900733816982342,0.812153034232418
"642",7,21,1,1,162,1,1,1,5,0.448456487461028,0.524049510329138
"643",7,22,1,2,163,3,1,0,2,0.80409465496503,0.830689922497077
"644",7,38,1,1,164,1,1,1,4,0.613234288962199,0.611086463407448
"645",7,22,1,2,165,1,2,1,5,0.29764857284194,0.219641136503351
"646",7,20,1,1,166,3,2,0,2,1.43366848873477,1.41338598611865
"647",7,30,1,2,167,2,2,1,4,0.576150143780315,0.598874181410908
"648",7,23,1,1,168,3,2,0,1,0.874867983117073,0.914822103455419
"649",7,34,1,1,169,3,2,0,1,1.44163760654005,1.47845107153999
"650",7,38,1,1,170,3,1,1,3,0.908617638291351,0.903686327465632
"651",7,25,1,1,171,1,1,1,5,0.361852744541636,0.385131954368915
"652",7,21,1,2,172,3,1,0,2,0.424506636540621,0.39852688142267
"653",7,22,1,1,173,2,2,0,3,0.746972245551078,0.708838627476885
"654",7,38,1,2,174,3,1,0,1,0.790907927688731,0.868803776735422
"655",7,22,1,2,175,2,1,0,3,0.847881365329221,0.867370289663942
"656",7,20,1,2,176,2,1,0,2,0.496602464660703,0.573134405171118
"657",7,30,1,2,177,2,1,0,2,0.773872839237303,0.738997114830181
"658",7,23,1,2,178,2,2,1,3,0.561585492595319,0.539915070252142
"659",7,34,1,2,179,2,2,1,4,0.501607077064995,0.496967475604465
"660",7,38,1,1,180,1,1,1,4,0.196522587229628,0.19520355613541
"661",7,25,1,1,181,3,2,0,2,0.292915676546289,0.416471073937938
"662",7,21,1,2,182,1,2,1,5,0.319391525878821,0.354647910008052
"663",7,22,1,1,183,2,1,1,4,0.674367438532311,0.689450522494962
"664",7,38,1,2,184,2,1,0,2,0.936611659043285,0.936382614572259
"665",7,22,1,1,185,1,1,1,4,0.391467539030302,0.410591385445709
"666",7,20,1,2,186,3,1,0,1,1.16006773691083,1.08906040880224
"667",7,30,1,2,187,2,1,0,2,0.654837927010579,0.700757100271664
"668",7,23,1,2,188,1,2,1,4,0.512468749391711,0.492388005264325
"669",7,34,1,1,189,3,2,0,1,0.473272280600756,0.550723075327385
"670",7,38,1,1,190,1,2,0,4,0.606211854036751,0.575922292251895
"671",7,25,1,2,191,2,1,0,3,0.590642534514672,0.518755353950525
"672",7,21,1,2,192,3,2,1,2,0.930677812196044,0.897453690500463
"673",7,22,1,1,193,2,1,1,3,0.682786574822486,0.754033901746185
"674",7,38,1,1,194,3,2,0,1,0.226503703503033,0.197338245115367
"675",7,22,1,2,195,1,2,1,5,0.365526363755487,0.332914280795507
"676",7,20,1,1,196,1,1,1,4,0.371480475153065,0.342339641771127
"677",7,30,1,2,197,3,2,1,2,1.12775052231653,1.03420502795069
"678",7,23,1,1,198,2,2,0,2,0.747477862117827,0.740899529152541
"679",7,34,1,2,199,2,2,1,3,0.614723751071252,0.664671001026683
"680",7,38,1,1,200,3,1,1,3,0.725905101322914,0.732997981869746
"681",7,25,1,2,201,3,1,0,1,0.633660479885451,0.648313324246342
"682",7,21,1,1,202,3,1,1,3,0.89629703019587,0.962042786495204
"683",7,22,1,2,203,3,2,1,3,0.748963155813985,0.734195951875163
"684",7,38,1,2,204,1,2,1,4,0.531483923845755,0.499619505217745
"685",7,22,1,1,205,1,2,0,4,0.597655789379961,0.659530826996598
"686",7,20,1,1,206,1,1,1,4,0.488658201554566,0.535214172217377
"687",7,30,1,1,207,2,2,0,3,0.636942200393932,0.620734682690851
"688",7,23,1,1,208,3,1,1,3,0.919457969538909,0.92678611433242
"689",7,34,1,2,209,1,2,1,5,0.516661407787501,0.48325569953602
"690",7,38,1,2,210,2,1,0,2,0.687427969135949,0.711436025640128
"691",7,25,1,1,211,1,1,1,5,0.438656561961984,0.386430623848352
"692",7,21,1,1,212,3,1,1,3,0.968708035275454,0.970696825630793
"693",7,22,1,2,213,3,2,1,3,0.854068094148,0.880099332652271
"694",7,38,1,1,214,1,1,1,5,0.240353673714328,0.344282743227491
"695",7,22,1,2,215,3,2,1,2,0.792811898323255,0.783237892301217
"696",7,20,1,2,216,1,2,1,5,0.380879146255859,0.443908732437065
"697",7,30,1,1,217,2,2,0,2,0.528734860477335,0.524480817960954
"698",7,23,1,1,218,3,1,1,3,0.890035331775893,0.798477381675919
"699",7,34,1,1,219,2,2,0,3,0.766936624375546,0.699385574742822
"700",7,38,1,1,220,1,2,0,3,0.524197975138216,0.628640999344404
"701",7,25,1,2,221,3,1,0,1,1.110918590716,1.13391623546772
"702",7,21,1,1,222,3,1,1,3,0.749207974389297,0.811812669130632
"703",7,22,1,1,223,3,1,1,3,0.980711778659274,0.930324851234409
"704",7,38,1,2,224,2,1,0,2,0.59429059490441,0.623904254364259
"705",7,22,1,1,225,3,2,0,2,1.77343222443418,1.78038416851246
"706",7,20,1,2,226,2,1,0,3,0.556373821493325,0.548181038570775
"707",7,30,1,2,227,2,2,1,3,0.623012189471347,0.562278211482913
"708",7,23,1,1,228,2,1,1,3,0.529006470706386,0.633107087303399
"709",7,34,1,2,229,2,1,0,2,0.610013791861983,0.556108939507936
"710",7,38,1,1,230,2,1,1,3,0.696851548495721,0.70126124687254
"711",7,25,1,2,231,1,2,1,5,0.283877817149879,0.282754445275765
"712",7,21,1,1,232,1,1,1,4,0.449122940126095,0.421774795847091
"713",7,22,1,1,233,3,1,1,2,0.476340633596247,0.596482216151334
"714",7,38,1,2,234,3,2,1,3,0.725864474885561,0.713758277692896
"715",7,22,1,2,235,2,2,1,4,0.586347895398427,0.529964078994043
"716",7,20,1,2,236,1,2,1,4,0.22263760367082,0.247080751675521
"717",7,30,1,1,237,1,1,1,4,0.428478470369383,0.448102672721173
"718",7,23,1,2,238,3,2,1,3,0.623948149865029,0.707468112312291
"719",7,34,1,2,239,1,1,0,3,0.603691098841103,0.548287273478951
"720",7,38,1,1,240,3,2,0,1,1.13581379160399,1.10298707182675
"721",6,33,2,1,1,3,1,1,3,1.03824039679244,1.06510589070156
"722",6,27,2,1,2,1,1,1,5,0.349931701345092,0.35082002864078
"723",6,18,2,2,3,1,2,1,4,0.299125265587015,0.293954575308023
"724",6,37,2,1,4,2,1,1,4,0.776161733023447,0.824338903772419
"725",6,31,2,2,5,1,2,1,5,0.290418058261035,0.301700227614356
"726",6,21,2,2,6,2,1,0,2,0.6504007374516,0.635213297492402
"727",6,38,2,1,7,2,2,0,2,0.627808517082233,0.548391234645745
"728",6,35,2,2,8,2,1,0,3,0.766796372384394,0.657370844678483
"729",6,38,2,1,9,3,2,0,2,0.995625823377756,0.967143927392465
"730",6,34,2,2,10,2,1,0,2,0.621866409004176,0.55556827632152
"731",6,33,2,2,11,2,2,1,3,0.549378812924114,0.456072320790366
"732",6,27,2,2,12,3,2,1,2,0.997157027098263,0.968079359073155
"733",6,18,2,2,13,2,2,1,3,0.461695967552611,0.48219892580756
"734",6,37,2,1,14,2,1,1,4,0.584360107268247,0.550847985924487
"735",6,31,2,2,15,3,1,0,1,0.618288381579448,0.638646881647415
"736",6,21,2,1,16,1,1,1,4,0.231353660564811,0.175027222922454
"737",6,38,2,1,17,2,2,0,3,0.458945828838854,0.458004013879282
"738",6,35,2,1,18,3,2,0,2,1.44946236398301,1.45706184913004
"739",6,38,2,2,19,3,1,0,1,0.657187823116472,0.676085473315758
"740",6,34,2,2,20,1,2,1,5,0.4815217878756,0.47439744019194
"741",6,33,2,1,21,2,2,0,2,0.638837135420905,0.590351187691894
"742",6,27,2,2,22,1,2,1,5,0.41239216485885,0.384847609970081
"743",6,18,2,1,23,2,2,0,3,0.832181525553572,0.825169321660106
"744",6,37,2,1,24,2,2,0,2,1.00923526992783,0.983214610627652
"745",6,31,2,2,25,2,2,1,3,0.582797450187622,0.559576117797385
"746",6,21,2,1,26,2,2,0,3,0.666012481759335,0.617993660293144
"747",6,38,2,2,27,3,1,0,2,0.633155392625956,0.655100008231066
"748",6,35,2,1,28,2,1,1,4,0.69198254080852,0.72911932325063
"749",6,38,2,2,29,2,2,1,4,0.480062623800568,0.493464515889184
"750",6,34,2,1,30,3,1,1,3,0.93484498034414,0.996336670799279
"751",6,33,2,2,31,3,2,1,3,0.990357638829902,1.05796532898844
"752",6,27,2,2,32,1,2,1,5,0.353269091816329,0.321116822962521
"753",6,18,2,1,33,3,1,1,3,0.736678127187188,0.685546368486118
"754",6,37,2,2,34,3,2,1,3,1.1228518563864,1.04125374253197
"755",6,31,2,2,35,1,2,1,4,0.539191112810538,0.528262245905969
"756",6,21,2,2,36,1,2,1,4,0.253242186257427,0.233472958372231
"757",6,38,2,2,37,2,1,0,2,0.630695893949033,0.61375076012668
"758",6,35,2,1,38,3,1,1,2,0.937247040574658,0.985128853402522
"759",6,38,2,2,39,3,2,1,2,0.889576788119703,0.901392348546712
"760",6,34,2,2,40,1,2,1,4,0.501043844418538,0.501720408146335
"761",6,33,2,1,41,3,1,1,2,0.649822579629056,0.656082585342076
"762",6,27,2,2,42,3,2,1,3,1.07881237415338,1.07726407548356
"763",6,18,2,1,43,2,1,1,4,0.911332880671903,0.84517436814751
"764",6,37,2,2,44,2,2,1,4,0.659858816094364,0.690027442719406
"765",6,31,2,1,45,2,2,0,2,0.77499669458995,0.834666413570906
"766",6,21,2,1,46,1,1,1,4,0.393186065291051,0.387775063249805
"767",6,38,2,2,47,3,2,1,3,0.927339781327421,0.994384472984084
"768",6,35,2,2,48,2,2,1,3,0.608425325799533,0.603877794721995
"769",6,38,2,2,49,1,1,0,3,0.538995332602547,0.554002195294895
"770",6,34,2,2,50,2,1,0,2,0.409029664241605,0.453496794564663
"771",6,33,2,2,51,1,2,1,5,0.388983271178758,0.336620481412693
"772",6,27,2,1,52,1,1,1,5,0.444918700838451,0.595002596122087
"773",6,18,2,1,53,3,2,0,2,1.20545085587611,1.25608764787427
"774",6,37,2,2,54,2,1,0,3,0.54526113418241,0.612570389242949
"775",6,31,2,2,55,3,2,1,3,0.450778661252667,0.594890828266716
"776",6,21,2,2,56,3,1,0,1,0.465365164103059,0.349538787749296
"777",6,38,2,2,57,2,2,1,3,0.583187822553,0.611429054918409
"778",6,35,2,1,58,3,2,0,1,0.556139780828632,0.526659440845769
"779",6,38,2,2,59,3,2,1,2,0.469657803139499,0.512130805305085
"780",6,34,2,1,60,1,1,1,4,0.44842055771046,0.536762039532831
"781",6,33,2,2,61,2,2,1,4,0.584656346129393,0.605860662397332
"782",6,27,2,1,62,1,2,0,4,0.709068274247987,0.752968381022114
"783",6,18,2,2,63,2,2,1,3,0.505298028107118,0.414651976511749
"784",6,37,2,1,64,1,1,1,4,0.379060582154364,0.326609819336076
"785",6,31,2,2,65,3,1,0,2,0.800299475355103,0.848697511846852
"786",6,21,2,2,66,1,2,1,4,0.423135206186609,0.384332848040955
"787",6,38,2,2,67,3,1,0,2,0.823807036126807,0.772787675107327
"788",6,35,2,1,68,1,1,1,5,0.467988863705388,0.560947705979848
"789",6,38,2,1,69,2,2,0,3,0.63907970938211,0.61263863511029
"790",6,34,2,2,70,3,1,0,1,1.25693464128644,1.22227646777044
"791",6,33,2,2,71,3,2,1,2,1.15702412410349,1.22014852597907
"792",6,27,2,1,72,3,1,1,3,0.666471712150941,0.655784194501611
"793",6,18,2,2,73,2,2,1,3,0.806674422412019,0.780247607087884
"794",6,37,2,1,74,1,1,1,4,0.505809253081548,0.424988994981197
"795",6,31,2,1,75,1,2,0,3,0.443060768727824,0.43047682840719
"796",6,21,2,2,76,1,2,1,5,0.496552547884305,0.416944650453249
"797",6,38,2,2,77,2,1,0,3,0.668160997384419,0.567070778513305
"798",6,35,2,2,78,2,1,0,3,0.443170779754518,0.466826665580121
"799",6,38,2,2,79,2,2,1,3,0.593440421266239,0.56804997319501
"800",6,34,2,2,80,3,1,0,1,1.31523444684973,1.20215546459469
"801",6,33,2,1,81,1,2,0,4,0.582431502671152,0.534250182033243
"802",6,27,2,1,82,1,2,0,3,0.63744221427708,0.670691594227592
"803",6,18,2,1,83,1,1,1,4,0.485369656688211,0.529529023031685
"804",6,37,2,1,84,3,1,1,2,0.85011707555027,0.791712595491998
"805",6,31,2,1,85,2,2,0,3,0.781171324912079,0.742076310314178
"806",6,21,2,2,86,1,2,1,4,0.445729573240984,0.48795960065467
"807",6,38,2,2,87,1,2,1,5,0.37117800006891,0.379022145464665
"808",6,35,2,2,88,3,1,0,2,0.960856287625555,0.960726693039078
"809",6,38,2,2,89,3,1,0,1,0.292780639073467,0.336912301631555
"810",6,34,2,2,90,3,1,0,2,1.188282266727,1.17795844867212
"811",6,33,2,1,91,3,1,1,2,1.08213849017359,1.06172617292739
"812",6,27,2,1,92,2,2,0,3,0.733543889199399,0.725807224285299
"813",6,18,2,1,93,1,1,1,4,0.350094413818698,0.389685764744422
"814",6,37,2,1,94,3,1,1,3,0.843284367095503,0.932890834159181
"815",6,31,2,2,95,3,1,0,1,0.981898250625864,1.00465617686551
"816",6,21,2,2,96,3,1,0,2,1.09727924361732,1.09592588821863
"817",6,38,2,1,97,1,1,1,4,0.365537056901511,0.346316184887041
"818",6,35,2,1,98,1,1,1,5,0.489617762401573,0.462236775378444
"819",6,38,2,2,99,1,2,1,5,0.359775134475616,0.333511342413256
"820",6,34,2,1,100,1,2,0,3,0.561109296111588,0.608205066317669
"821",6,33,2,1,101,3,1,1,3,0.47221238079325,0.527207003844611
"822",6,27,2,1,102,2,2,0,2,0.672338738345904,0.718155579422482
"823",6,18,2,2,103,3,1,0,2,1.20079600306021,1.25140191339563
"824",6,37,2,2,104,1,2,1,4,0.543315116450589,0.545128787159619
"825",6,31,2,2,105,2,2,1,4,0.577420393553489,0.598586674472592
"826",6,21,2,2,106,2,2,1,4,0.635798677832187,0.734623369695689
"827",6,38,2,1,107,1,1,1,4,0.417069746159717,0.524380720244012
"828",6,35,2,2,108,1,1,0,3,0.561639400455706,0.546991758846541
"829",6,38,2,1,109,2,2,0,2,0.729348259417464,0.750503957330132
"830",6,34,2,2,110,3,1,0,1,0.714177483253376,0.747500679561866
"831",6,33,2,1,111,2,1,1,3,0.44788726548984,0.330147961458665
"832",6,27,2,1,112,2,1,1,4,0.673418164440661,0.669963738107711
"833",6,18,2,1,113,3,2,0,1,1.64934168372303,1.58828248755953
"834",6,37,2,1,114,3,1,1,3,0.392204866285938,0.411943206199695
"835",6,31,2,2,115,3,2,1,3,0.858940794707269,0.861281911974048
"836",6,21,2,2,116,2,1,0,2,0.696438966985921,0.68432195938617
"837",6,38,2,1,117,1,1,1,4,0.293274487513971,0.319230838695178
"838",6,35,2,2,118,3,2,1,3,0.545859006619132,0.500199938758618
"839",6,38,2,1,119,3,2,0,1,1.12127677747221,1.10588354391455
"840",6,34,2,1,120,3,1,1,3,0.425511187682777,0.361448784292717
"841",6,33,2,1,121,2,1,1,3,0.710928132730733,0.740505511922503
"842",6,27,2,1,122,2,1,1,4,0.475165878690085,0.49374902413669
"843",6,18,2,1,123,3,2,0,2,1.48735228163522,1.37617180304822
"844",6,37,2,1,124,1,1,1,4,0.356896118082042,0.306475083865314
"845",6,31,2,2,125,2,1,0,3,0.723386031472775,0.79399421427057
"846",6,21,2,1,126,2,1,1,4,0.418143895224357,0.382480471373817
"847",6,38,2,1,127,1,1,1,5,0.360512865851039,0.357843854859561
"848",6,35,2,1,128,1,1,1,4,0.55933819738095,0.626129954064588
"849",6,38,2,1,129,2,2,0,2,0.684704246692626,0.683181603682682
"850",6,34,2,1,130,1,1,1,4,0.316824604930207,0.317777814687775
"851",6,33,2,1,131,2,1,1,4,0.761261835021647,0.798603423045738
"852",6,27,2,2,132,1,2,1,4,0.386266343777847,0.430098760819692
"853",6,18,2,2,133,1,2,1,4,0.366843375787272,0.323690246496971
"854",6,37,2,2,134,1,2,1,5,0.354114796671236,0.374052281387049
"855",6,31,2,2,135,3,2,1,3,0.498679118741025,0.48568781366103
"856",6,21,2,1,136,2,1,1,4,0.661751995290277,0.709001454169576
"857",6,38,2,1,137,3,2,0,2,0.879192271758916,0.901991765703062
"858",6,35,2,2,138,1,2,1,5,0.422699820887377,0.324353966123612
"859",6,38,2,1,139,1,1,1,5,0.433099859289096,0.393379990213543
"860",6,34,2,1,140,2,2,0,2,0.882790134872455,0.894153784703605
"861",6,33,2,1,141,2,2,0,2,0.869760265231231,0.840502426369268
"862",6,27,2,2,142,2,2,1,4,0.866527472973808,0.897817489625824
"863",6,18,2,2,143,3,1,0,1,0.16058712511662,0.197800139895925
"864",6,37,2,2,144,3,2,1,2,0.678513293068906,0.76659324760857
"865",6,31,2,2,145,2,1,0,3,0.159429622997681,0.173922242355041
"866",6,21,2,1,146,1,1,1,5,0.376815976206802,0.383743394287473
"867",6,38,2,2,147,1,2,1,5,0.350137006869499,0.403351549069651
"868",6,35,2,1,148,3,1,1,3,0.754067211469087,0.750357398490844
"869",6,38,2,2,149,3,1,0,2,0.676671860034727,0.693143201056949
"870",6,34,2,2,150,1,2,1,4,0.432303153247797,0.458669558556457
"871",6,33,2,1,151,1,1,1,5,0.453013793087476,0.461965521053255
"872",6,27,2,1,152,3,2,0,1,0.944019554973171,0.962488105970631
"873",6,18,2,2,153,1,1,0,3,0.423208963921113,0.364518980015549
"874",6,37,2,1,154,2,1,1,4,0.780763784000444,0.780852791137786
"875",6,31,2,2,155,2,1,0,2,0.581324685228717,0.58560752468758
"876",6,21,2,1,156,2,1,1,4,0.507668674795024,0.538025662124416
"877",6,38,2,1,157,1,1,1,5,0.439027595431222,0.419269916921556
"878",6,35,2,2,158,3,2,1,3,0.864302446421781,0.795368136422868
"879",6,38,2,2,159,2,1,0,3,0.8107378615465,0.827281472134056
"880",6,34,2,2,160,2,1,0,2,0.691137311925585,0.646604316404601
"881",6,33,2,2,161,3,2,1,3,0.7996202052556,0.776375822068644
"882",6,27,2,1,162,1,1,1,4,0.417680672509649,0.458313732321001
"883",6,18,2,2,163,3,2,1,3,0.975698257955844,1.01744955505797
"884",6,37,2,2,164,2,1,0,3,0.798244795832979,0.832217102310021
"885",6,31,2,1,165,1,1,1,5,0.329603463741773,0.431137165513908
"886",6,21,2,2,166,3,1,0,2,0.712793678875002,0.704581164202595
"887",6,38,2,1,167,1,1,1,5,0.414349965064145,0.431752628254002
"888",6,35,2,1,168,1,1,1,4,0.312768518418006,0.320301331411963
"889",6,38,2,2,169,3,1,0,1,0.732827019966061,0.756075097647215
"890",6,34,2,1,170,1,2,0,4,0.467298630312516,0.47550739136935
"891",6,33,2,1,171,3,2,0,1,0.67576913295173,0.732328403679291
"892",6,27,2,2,172,2,2,1,3,0.617470284522803,0.59690907207442
"893",6,18,2,1,173,1,1,1,4,0.343008015558071,0.303045594981243
"894",6,37,2,2,174,1,2,1,4,0.391116863916972,0.382486418660286
"895",6,31,2,1,175,2,2,0,2,0.658629316205074,0.662973979327777
"896",6,21,2,1,176,2,1,1,4,0.59524472588983,0.531497396691206
"897",6,38,2,2,177,3,2,1,3,1.05207526809425,0.994350802387017
"898",6,35,2,1,178,2,1,1,3,0.532528754446279,0.514538719634133
"899",6,38,2,1,179,1,2,0,4,0.514637992491172,0.51416636576741
"900",6,34,2,2,180,2,2,1,3,0.746093684418643,0.731272801345557
"901",6,33,2,2,181,2,1,0,3,0.604944374094875,0.55528112696345
"902",6,27,2,2,182,1,2,1,5,0.495908919298338,0.544307330701331
"903",6,18,2,1,183,1,1,1,5,0.327364659752822,0.336851954032835
"904",6,37,2,2,184,1,2,1,5,0.43683630015368,0.476126232648688
"905",6,31,2,1,185,3,2,0,1,1.2187755286342,1.11079766365855
"906",6,21,2,2,186,2,2,1,3,0.403893981707733,0.444619080767785
"907",6,38,2,1,187,2,1,1,4,0.566294647356747,0.474042944316499
"908",6,35,2,1,188,2,1,1,3,0.638443845338112,0.600726052032935
"909",6,38,2,1,189,2,2,0,3,0.711951467508976,0.724693596630252
"910",6,34,2,1,190,2,1,1,4,0.546289590773656,0.554826115088647
"911",6,33,2,1,191,3,1,1,2,0.972125137675919,1.01544441103752
"912",6,27,2,2,192,1,2,1,4,0.460554252624795,0.394343927113836
"913",6,18,2,2,193,3,1,0,1,1.00710841131838,1.01480202895491
"914",6,37,2,2,194,3,2,1,3,0.930263695594861,0.85460350485632
"915",6,31,2,2,195,2,1,0,3,0.658632621297003,0.714106765802188
"916",6,21,2,1,196,3,1,1,3,0.810840047859052,0.873206846787296
"917",6,38,2,2,197,3,2,1,2,0.844188328203684,0.791041035585391
"918",6,35,2,1,198,1,1,1,5,0.416744530722904,0.484346433306093
"919",6,38,2,2,199,2,2,1,3,0.42030142360304,0.434461970502085
"920",6,34,2,1,200,1,1,1,4,0.353316318298955,0.365087316313082
"921",6,33,2,1,201,2,1,1,3,0.506638009972306,0.496452054894099
"922",6,27,2,1,202,2,2,0,2,0.739870449039718,0.70613651745863
"923",6,18,2,1,203,1,1,1,5,0.405176977087846,0.351621556407533
"924",6,37,2,1,204,3,2,0,2,1.28473204648538,1.3100023672472
"925",6,31,2,2,205,1,1,0,4,0.446024350459496,0.414022504819188
"926",6,21,2,1,206,3,2,0,2,0.273218897857104,0.371113355823706
"927",6,38,2,2,207,1,2,1,5,0.377755642042531,0.427576831307045
"928",6,35,2,1,208,2,1,1,4,0.594521695088792,0.528207899556307
"929",6,38,2,1,209,3,2,0,1,0.375980841692928,0.414600342222527
"930",6,34,2,2,210,1,2,1,4,0.463082377450251,0.483539976098866
"931",6,33,2,2,211,1,2,1,5,0.40802644008315,0.401329307532214
"932",6,27,2,1,212,3,1,1,2,1.21608199578592,1.20451668411956
"933",6,18,2,2,213,1,2,1,5,0.457668872477503,0.541923408962617
"934",6,37,2,2,214,2,2,1,3,0.844614287964925,0.839004742372319
"935",6,31,2,1,215,3,2,0,1,1.02171116240491,1.03694873501806
"936",6,21,2,1,216,2,1,1,4,0.554455144239287,0.602350469958257
"937",6,38,2,2,217,2,2,1,3,0.482985670376132,0.567275525732927
"938",6,35,2,2,218,3,2,1,2,0.723619326403066,0.742497546758112
"939",6,38,2,2,219,2,2,1,3,0.419324944084236,0.479798426397003
"940",6,34,2,2,220,2,2,1,3,0.555836192249387,0.495239479647039
"941",6,33,2,1,221,1,1,1,5,0.347693813110601,0.385915238317895
"942",6,27,2,1,222,1,1,1,5,0.340544436616311,0.314568879214588
"943",6,18,2,1,223,3,2,0,1,1.46010831993494,1.43123698129062
"944",6,37,2,2,224,3,2,1,3,0.847831542264908,0.890221713120005
"945",6,31,2,1,225,3,2,0,1,1.04821612890547,1.02348801063568
"946",6,21,2,1,226,1,1,1,4,0.448365496174411,0.445514360295514
"947",6,38,2,1,227,1,1,1,4,0.425494362147744,0.431539692856561
"948",6,35,2,2,228,2,1,0,3,0.875061731126681,0.791572800997912
"949",6,38,2,2,229,3,1,0,2,0.842150621754288,0.965014121685308
"950",6,34,2,2,230,3,2,1,3,0.485809799193683,0.451127291489917
"951",6,33,2,1,231,1,2,0,4,0.587274048032101,0.62138524044474
"952",6,27,2,2,232,3,2,1,2,0.661329198949467,0.602643480480845
"953",6,18,2,1,233,3,2,0,2,1.62121830900062,1.62048782559864
"954",6,37,2,2,234,3,1,0,1,0.968122001596814,0.965240859607324
"955",6,31,2,2,235,1,2,1,5,0.280825336069487,0.232794221433386
"956",6,21,2,1,236,1,2,0,4,0.669112226199599,0.689384725945762
"957",6,38,2,2,237,1,2,1,5,0.426998778348062,0.441925422610255
"958",6,35,2,1,238,2,2,0,3,0.51912187917926,0.55716675214333
"959",6,38,2,1,239,3,2,0,1,0.848783072913074,0.714132013710066
"960",6,34,2,1,240,1,1,1,5,0.327115124057836,0.372145924067948
"961",5,31,1,2,1,2,1,0,3,0.453007417594605,0.385012433501047
"962",5,32,1,2,2,2,2,1,4,0.615512037120161,0.613402875224354
"963",5,24,1,2,3,2,2,1,4,0.468516044606558,0.530790174017446
"964",5,37,1,2,4,2,2,1,4,0.716352792584234,0.762324622919692
"965",5,19,1,2,5,1,2,1,5,0.3031626253707,0.314780373960688
"966",5,38,1,2,6,1,1,0,4,0.62924232300726,0.596954034552569
"967",5,33,1,2,7,3,1,0,2,0.683713614819782,0.71037019180832
"968",5,24,1,1,8,3,1,1,3,0.880394505735528,0.876709783315578
"969",5,30,1,2,9,2,2,1,3,0.291179663727054,0.240212521277396
"970",5,37,1,2,10,2,2,1,3,0.75183648500899,0.775830277656621
"971",5,31,1,2,11,2,2,1,3,0.586922851132247,0.643745538224123
"972",5,32,1,1,12,1,2,0,3,0.499462199661743,0.50268972922205
"973",5,24,1,2,13,1,2,1,5,0.272532660256892,0.256540764930021
"974",5,37,1,2,14,3,2,1,3,0.678454917517359,0.643149290659215
"975",5,19,1,1,15,3,1,1,2,0.793432244769265,0.873846400813409
"976",5,38,1,1,16,3,1,1,3,0.665894281908457,0.720806743631099
"977",5,33,1,2,17,3,2,1,3,0.914683491375875,0.862930789486309
"978",5,24,1,1,18,3,1,1,2,0.248789931659605,0.291956419608407
"979",5,30,1,2,19,1,2,1,5,0.534101290565317,0.528945253634409
"980",5,37,1,2,20,2,1,0,2,0.683320667764236,0.633377007045884
"981",5,31,1,2,21,3,2,1,3,1.06252199138265,1.04804153108887
"982",5,32,1,2,22,1,2,1,5,0.488267218480129,0.5157148831352
"983",5,24,1,2,23,1,2,1,5,0.504203982930992,0.399455820908023
"984",5,37,1,1,24,1,1,1,5,0.29780285238023,0.318876355491624
"985",5,19,1,2,25,1,2,1,5,0.246474627136455,0.21730320073803
"986",5,38,1,1,26,1,2,0,4,0.296127483224334,0.38159547961199
"987",5,33,1,1,27,3,1,1,3,0.710277257330969,0.668501994299129
"988",5,24,1,1,28,1,1,1,4,0.402578892662655,0.407038262804489
"989",5,30,1,1,29,1,2,0,4,0.661649185982652,0.623310908056132
"990",5,37,1,2,30,2,2,1,3,0.57060489864789,0.650546705547833
"991",5,31,1,1,31,3,2,0,1,1.64605947883202,1.52530804626717
"992",5,32,1,2,32,1,2,1,4,0.318330068950833,0.383770578542198
"993",5,24,1,1,33,3,1,1,3,0.695929166204405,0.646043718535735
"994",5,37,1,1,34,2,1,1,4,0.498490852591887,0.528687240732038
"995",5,19,1,2,35,2,2,1,3,0.507693011442929,0.39870750880241
"996",5,38,1,1,36,2,2,0,2,0.567345212493142,0.601815272037692
"997",5,33,1,1,37,3,1,1,2,1.19564791058239,1.24045454875104
"998",5,24,1,2,38,1,1,0,3,0.476580995122917,0.423088546966593
"999",5,30,1,2,39,1,2,1,5,0.410199788332385,0.371592880207489
"1000",5,37,1,1,40,3,1,1,3,0.902665827002397,0.873765330327106
"1001",5,31,1,1,41,2,1,1,3,0.792103871046817,0.763167942574119
"1002",5,32,1,2,42,3,1,0,1,0.703607023290633,0.709949774956959
"1003",5,24,1,2,43,2,2,1,3,0.518902938816934,0.576386010153584
"1004",5,37,1,2,44,2,1,0,2,0.602635540643482,0.612963919299578
"1005",5,19,1,2,45,3,1,0,2,0.893482777213326,0.874755117216253
"1006",5,38,1,1,46,1,1,1,4,0.243446190488541,0.269419076739325
"1007",5,33,1,2,47,2,2,1,4,0.576527617699607,0.531052848916297
"1008",5,24,1,1,48,3,1,1,2,0.788623682320221,0.841257301188245
"1009",5,30,1,2,49,2,2,1,4,0.602124765413162,0.672030133830741
"1010",5,37,1,1,50,1,1,1,5,0.276231423708257,0.296394363445731
"1011",5,31,1,2,51,2,2,1,3,0.745451670606446,0.727614542056266
"1012",5,32,1,2,52,3,2,1,2,0.873351830472918,0.830608278934664
"1013",5,24,1,1,53,3,2,0,1,1.33765652533451,1.33165662824462
"1014",5,37,1,2,54,3,2,1,3,0.941288282416913,0.917831831117339
"1015",5,19,1,2,55,1,2,1,4,0.510607751715549,0.489176469655373
"1016",5,38,1,2,56,2,1,0,2,0.89485223999122,0.90619052922992
"1017",5,33,1,2,57,3,2,1,2,1.08778281149666,1.04335540914691
"1018",5,24,1,2,58,3,1,0,2,1.05012319100503,1.07635393718605
"1019",5,30,1,1,59,3,1,1,3,0.639553204221574,0.689849473403186
"1020",5,37,1,2,60,1,2,1,4,0.500051104916561,0.537407607665233
"1021",5,31,1,1,61,1,1,1,4,0.517701137838306,0.525322034584696
"1022",5,32,1,2,62,2,2,1,3,0.560922187842661,0.591717059259187
"1023",5,24,1,2,63,1,2,1,5,0.381695899554554,0.379033476390301
"1024",5,37,1,1,64,2,1,1,4,0.75657475747406,0.722611984978246
"1025",5,19,1,2,65,1,2,1,4,0.372026061578258,0.343968121684305
"1026",5,38,1,2,66,1,2,1,5,0.38586464893245,0.418637272603915
"1027",5,33,1,1,67,2,1,1,4,0.540831546895048,0.539929710405577
"1028",5,24,1,2,68,3,1,0,1,1.23558030507569,1.23654681291616
"1029",5,30,1,1,69,3,1,1,3,0.846245034408336,0.785177494607868
"1030",5,37,1,1,70,3,2,0,2,0.606703586388162,0.536736750168182
"1031",5,31,1,1,71,3,1,1,3,0.957752078036014,0.971926772583454
"1032",5,32,1,2,72,2,1,0,2,0.777976324799986,0.768433074277947
"1033",5,24,1,1,73,1,1,1,5,0.447149211916497,0.416514601242006
"1034",5,37,1,1,74,3,2,0,2,1.52817269543202,1.45925875465482
"1035",5,19,1,1,75,3,1,1,2,0.57799849231002,0.633350942215147
"1036",5,38,1,1,76,1,1,1,4,0.300855775459977,0.221024552879939
"1037",5,33,1,2,77,3,2,1,2,0.724017539384578,0.738540002311038
"1038",5,24,1,1,78,1,1,1,5,0.329470688910858,0.356116529323848
"1039",5,30,1,2,79,1,1,0,4,0.594172509966116,0.670924015026163
"1040",5,37,1,1,80,2,2,0,3,0.703511634149873,0.656270960811645
"1041",5,31,1,2,81,1,2,1,5,0.432630249805049,0.445338265905749
"1042",5,32,1,1,82,3,2,0,1,1.21218983819761,1.19088385621647
"1043",5,24,1,1,83,2,2,0,2,0.746308299861437,0.739803085804071
"1044",5,37,1,2,84,3,1,0,1,0.983889764422634,1.04953754878111
"1045",5,19,1,2,85,2,2,1,3,0.689711364268613,0.684104624126034
"1046",5,38,1,1,86,1,1,1,5,0.43898337688891,0.422785330785303
"1047",5,33,1,1,87,2,2,0,3,0.562076273174443,0.613215541599442
"1048",5,24,1,2,88,3,2,1,3,0.580519259336781,0.525740864331217
"1049",5,30,1,1,89,2,1,1,4,0.401209720603638,0.477978134471256
"1050",5,37,1,1,90,2,1,1,3,0.748258499462617,0.728105634821012
"1051",5,31,1,1,91,2,2,0,2,0.698514866876269,0.689202195013592
"1052",5,32,1,1,92,2,2,0,3,0.798811058665075,0.861337173057629
"1053",5,24,1,1,93,3,1,1,3,0.973068612901538,0.879695092785725
"1054",5,37,1,2,94,3,2,1,3,0.697694769085012,0.679276668784686
"1055",5,19,1,2,95,1,2,1,4,0.353199763777235,0.361849741078475
"1056",5,38,1,2,96,3,1,0,1,1.12956988410326,1.15906720378114
"1057",5,33,1,1,97,1,1,1,4,0.527892091900163,0.574834882518449
"1058",5,24,1,1,98,1,1,1,4,0.398260059693893,0.443868695903521
"1059",5,30,1,1,99,1,2,0,3,0.512697042672339,0.498718836616148
"1060",5,37,1,1,100,3,1,1,2,0.681973834143873,0.654733578617372
"1061",5,31,1,1,101,1,1,1,4,0.534463264927475,0.567821209023211
"1062",5,32,1,1,102,2,2,0,3,1.00733659732623,1.10977311966315
"1063",5,24,1,2,103,1,2,1,4,0.272320733319638,0.26152424046202
"1064",5,37,1,2,104,1,2,1,4,0.504845030133099,0.591633095516367
"1065",5,19,1,2,105,1,2,1,5,0.376931037296066,0.387681538159083
"1066",5,38,1,1,106,3,1,1,3,0.811993908949612,0.862205039780267
"1067",5,33,1,1,107,2,1,1,4,0.737391652303238,0.738290351000262
"1068",5,24,1,1,108,3,2,0,2,1.39649278484908,1.44248302120635
"1069",5,30,1,1,109,1,1,1,5,0.299298995612781,0.272831308689591
"1070",5,37,1,2,110,1,2,1,5,0.479075175922228,0.456912696753248
"1071",5,31,1,2,111,3,2,1,3,0.720929756702798,0.780829962083283
"1072",5,32,1,1,112,2,1,1,4,0.526957129481977,0.527116259706544
"1073",5,24,1,2,113,2,2,1,4,0.515699251626578,0.504983582590784
"1074",5,37,1,2,114,1,1,0,4,0.454829321701694,0.409762623419492
"1075",5,19,1,2,115,1,2,1,4,0.306307756026748,0.340772526667843
"1076",5,38,1,1,116,2,2,0,2,0.818298772420395,0.763168393896752
"1077",5,33,1,1,117,2,1,1,3,0.601256261074197,0.600339011833047
"1078",5,24,1,1,118,2,2,0,2,0.486916883373757,0.507123553094504
"1079",5,30,1,2,119,2,1,0,3,0.835124463630216,0.838594468239173
"1080",5,37,1,2,120,3,1,0,2,1.01694029240889,1.08086356886679
"1081",5,31,1,1,121,2,2,0,3,0.521906726134632,0.595037351581999
"1082",5,32,1,2,122,1,2,1,5,0.441098396791266,0.496890719334709
"1083",5,24,1,2,123,2,1,0,2,0.968293429978257,0.863905158030966
"1084",5,37,1,2,124,1,1,0,4,0.652613922366401,0.689556225315027
"1085",5,19,1,2,125,1,2,1,4,0.593855482368004,0.607103642286024
"1086",5,38,1,1,126,2,1,1,4,0.369518319616391,0.327277201344936
"1087",5,33,1,1,127,3,1,1,3,0.734552121475569,0.697052737872431
"1088",5,24,1,1,128,3,1,1,3,1.06563168395482,1.03453423521815
"1089",5,30,1,1,129,3,2,0,2,0.97091526694006,0.990916720156991
"1090",5,37,1,1,130,3,2,0,1,0.553907388894931,0.569586254599026
"1091",5,31,1,2,131,2,2,1,3,0.589687277741711,0.488403927004653
"1092",5,32,1,2,132,2,1,0,2,0.662948899893924,0.595364063247811
"1093",5,24,1,2,133,2,2,1,3,0.707166320356499,0.745849231494701
"1094",5,37,1,2,134,1,2,1,4,0.487696609222044,0.413888676946939
"1095",5,19,1,2,135,3,2,1,2,0.682759464516478,0.671697527265423
"1096",5,38,1,2,136,3,1,0,2,1.33275836589485,1.29561415699668
"1097",5,33,1,1,137,2,1,1,4,0.585808058583846,0.577190200816851
"1098",5,24,1,2,138,3,2,1,2,0.658259748843853,0.607230165657928
"1099",5,30,1,1,139,3,1,1,2,0.66981835000772,0.655802307960555
"1100",5,37,1,1,140,1,1,1,5,0.508511175431446,0.457068810683807
"1101",5,31,1,1,141,2,2,0,2,0.827154504058315,0.780536863286865
"1102",5,32,1,1,142,3,1,1,3,0.767746457223606,0.794181680366263
"1103",5,24,1,1,143,3,2,0,2,0.868487347149308,0.939638648090512
"1104",5,37,1,1,144,2,2,0,2,0.700041474579912,0.723813041748671
"1105",5,19,1,2,145,2,1,0,3,0.960442359994863,0.896141417783591
"1106",5,38,1,1,146,2,1,1,3,0.655560655052104,0.552857587504004
"1107",5,33,1,2,147,1,2,1,5,0.47867850161803,0.455883093227607
"1108",5,24,1,1,148,2,2,0,3,0.625221561332575,0.674414623513487
"1109",5,30,1,1,149,2,1,1,3,0.699242681852156,0.724568261551946
"1110",5,37,1,2,150,3,1,0,1,0.976368131562776,0.882545746158308
"1111",5,31,1,1,151,2,1,1,3,0.684723350955352,0.650461704749403
"1112",5,32,1,2,152,1,1,0,4,0.407921839799676,0.400420490166589
"1113",5,24,1,2,153,2,2,1,4,0.578276458102528,0.508512574345218
"1114",5,37,1,2,154,2,2,1,4,0.513437952251278,0.518573306320485
"1115",5,19,1,2,155,3,1,0,1,0.904733862307668,0.923507918954161
"1116",5,38,1,2,156,2,1,0,3,0.563329454264778,0.513027793962222
"1117",5,33,1,1,157,2,2,0,3,0.661244931894339,0.624929070407089
"1118",5,24,1,1,158,1,2,0,3,0.505205688381232,0.548543866634078
"1119",5,30,1,1,159,1,1,1,5,0.520140994638072,0.645260171877291
"1120",5,37,1,1,160,1,1,1,4,0.543037475796815,0.515213929341874
"1121",5,31,1,2,161,3,1,0,1,0.940839912199281,0.913539553349566
"1122",5,32,1,2,162,3,1,0,1,1.02974122268356,1.04747127829022
"1123",5,24,1,2,163,1,2,1,5,0.23825760171526,0.196379597539696
"1124",5,37,1,1,164,3,1,1,3,0.827297877190229,0.84570720850238
"1125",5,19,1,1,165,3,2,0,2,1.22891361045038,1.30646049919535
"1126",5,38,1,1,166,2,2,0,2,1.00718503839718,0.994642961345043
"1127",5,33,1,1,167,2,2,0,2,1.02378981212802,0.978226004833725
"1128",5,24,1,2,168,1,2,1,4,0.444351488679223,0.401858824122345
"1129",5,30,1,2,169,3,1,0,1,0.995848477549638,0.980102646956395
"1130",5,37,1,2,170,1,2,1,5,0.418921946458027,0.440613039628893
"1131",5,31,1,2,171,2,2,1,3,0.76184866860444,0.714438924433267
"1132",5,32,1,1,172,1,1,1,4,0.265484396879018,0.30906087694165
"1133",5,24,1,2,173,1,2,1,5,0.141660642044619,0.105196508413067
"1134",5,37,1,1,174,2,2,0,3,0.573520960540417,0.585746722553032
"1135",5,19,1,1,175,1,1,1,4,0.3158980345438,0.333952060303871
"1136",5,38,1,1,176,3,1,1,3,1.10823798321468,1.00250625618132
"1137",5,33,1,1,177,3,1,1,3,0.756490603601633,0.793784734566678
"1138",5,24,1,1,178,1,1,1,5,0.487774562005156,0.393404570886812
"1139",5,30,1,1,179,2,2,0,3,0.910173807338226,0.818546663132571
"1140",5,37,1,1,180,1,2,0,3,0.63354955089375,0.666120861475819
"1141",5,31,1,1,181,1,1,1,4,0.369661854542688,0.266776345111226
"1142",5,32,1,2,182,2,2,1,3,0.422099894040261,0.391171144466942
"1143",5,24,1,2,183,2,1,0,2,0.944555314537308,1.01171892150632
"1144",5,37,1,1,184,2,1,1,4,0.529559020059364,0.585690280865538
"1145",5,19,1,1,185,2,2,0,2,0.877170778620036,0.906451433492509
"1146",5,38,1,2,186,2,2,1,3,0.788694836838262,0.882817206674306
"1147",5,33,1,1,187,3,2,0,1,1.77029231422012,1.78097378923063
"1148",5,24,1,1,188,1,1,1,5,0.419341713493393,0.448129392090364
"1149",5,30,1,2,189,3,2,1,3,0.815444919968383,0.77201949957702
"1150",5,37,1,2,190,2,2,1,4,0.607051516673495,0.664583472526831
"1151",5,31,1,2,191,3,2,1,2,0.814224536180334,0.8870336241454
"1152",5,32,1,1,192,3,2,0,1,-0.0519645231242893,-0.0649649677924959
"1153",5,24,1,2,193,2,1,0,3,0.565179926265813,0.585786870493541
"1154",5,37,1,2,194,1,1,0,4,0.464570573810851,0.478435283735725
"1155",5,19,1,1,195,3,1,1,3,0.674229853909647,0.647086687661618
"1156",5,38,1,1,196,1,1,1,5,0.472382643329509,0.45878669309806
"1157",5,33,1,1,197,2,2,0,2,0.622261732296996,0.657314107621329
"1158",5,24,1,2,198,1,2,1,4,0.550489284421345,0.57180884813296
"1159",5,30,1,2,199,3,1,0,1,1.49279923686823,1.57458621156405
"1160",5,37,1,2,200,1,1,0,3,0.42324183113988,0.467888915740641
"1161",5,31,1,2,201,1,2,1,4,0.38839427632173,0.42676948299901
"1162",5,32,1,2,202,1,2,1,5,0.259142222502092,0.314942472491554
"1163",5,24,1,1,203,1,1,1,5,0.401143142159168,0.476215670704935
"1164",5,37,1,1,204,1,2,0,3,0.419530445378847,0.339411560222903
"1165",5,19,1,2,205,3,1,0,2,0.286115426728246,0.271387714032371
"1166",5,38,1,1,206,3,2,0,1,0.248139773273486,0.204566754215881
"1167",5,33,1,2,207,3,1,0,2,0.282635505595719,0.28408948579233
"1168",5,24,1,2,208,3,2,1,3,0.797062318524358,0.733848238384511
"1169",5,30,1,2,209,2,2,1,3,0.478064738455978,0.494290094568101
"1170",5,37,1,1,210,1,1,1,4,0.282437521800447,0.278206321280817
"1171",5,31,1,1,211,2,2,0,3,0.531641299364223,0.58065830998007
"1172",5,32,1,2,212,1,2,1,5,0.307192980553586,0.222413907399552
"1173",5,24,1,2,213,2,1,0,3,0.699573367032444,0.667933198237923
"1174",5,37,1,2,214,1,1,0,4,0.65098251385063,0.718639759212322
"1175",5,19,1,1,215,2,1,1,3,0.545848986102501,0.571302370089687
"1176",5,38,1,1,216,3,1,1,3,0.698598203022506,0.697080636848544
"1177",5,33,1,1,217,2,1,1,3,0.555773276235561,0.46717515998412
"1178",5,24,1,1,218,3,1,1,2,0.76033888701009,0.800840537769945
"1179",5,30,1,1,219,2,1,1,4,0.686453420437564,0.685364047351149
"1180",5,37,1,1,220,1,1,1,4,0.429302339761391,0.331234914752145
"1181",5,31,1,2,221,1,2,1,5,0.39078977738633,0.365532505591745
"1182",5,32,1,1,222,2,2,0,2,0.814479551403532,0.817467804270437
"1183",5,24,1,1,223,2,1,1,4,0.856626289301528,0.855334229074275
"1184",5,37,1,2,224,3,1,0,1,1.17557624486907,1.22101620263323
"1185",5,19,1,1,225,3,2,0,1,1.01981747608428,0.984863176460358
"1186",5,38,1,1,226,3,2,0,1,1.75349836780281,1.75327019011251
"1187",5,33,1,2,227,1,2,1,5,0.408446295787234,0.407905860585645
"1188",5,24,1,1,228,2,1,1,3,0.447918897061203,0.46634998480918
"1189",5,30,1,2,229,1,2,1,5,0.409035615916775,0.450800691668003
"1190",5,37,1,1,230,3,1,1,2,1.05467312875007,1.0520515964262
"1191",5,31,1,2,231,1,2,1,4,0.235079048253511,0.174344304407582
"1192",5,32,1,1,232,1,1,1,5,0.44345489114016,0.293916256993275
"1193",5,24,1,2,233,1,2,1,5,0.389522444814802,0.441687342230161
"1194",5,37,1,1,234,3,2,0,1,1.06097792154508,1.13770353342145
"1195",5,19,1,1,235,3,2,0,2,0.906995771785513,0.895089668457674
"1196",5,38,1,1,236,3,2,0,1,1.21468133373556,1.23157035138598
"1197",5,33,1,2,237,1,2,1,5,0.467844256749701,0.466743180189251
"1198",5,24,1,2,238,3,1,0,2,1.21573903903914,1.28821619853088
"1199",5,30,1,2,239,2,2,1,4,0.477062168116997,0.535977271487957
"1200",5,37,1,2,240,3,2,1,2,0.68009078213779,0.652846763908022
"1201",4,23,2,1,1,1,1,1,5,0.493059492341796,0.475547735689903
"1202",4,33,2,2,2,2,2,1,3,0.508186495220846,0.535755839483012
"1203",4,32,2,1,3,3,2,0,2,1.09907422160386,1.06980943261466
"1204",4,19,2,2,4,2,2,1,4,0.641546990021829,0.614455252508825
"1205",4,23,2,2,5,1,2,1,5,0.400291167808732,0.342776904098199
"1206",4,36,2,1,6,2,2,0,2,0.78613241756159,0.799686836830033
"1207",4,22,2,2,7,1,1,0,3,0.603933555524593,0.680323105680719
"1208",4,39,2,2,8,3,2,1,3,0.785700173341339,0.758474364850145
"1209",4,24,2,2,9,1,2,1,5,0.518701588664621,0.471551662367027
"1210",4,18,2,2,10,1,2,1,4,0.483270925811658,0.565815060600028
"1211",4,23,2,1,11,2,1,1,3,0.502232076550323,0.479462612175568
"1212",4,33,2,1,12,1,1,1,5,0.450338531020307,0.495084628014577
"1213",4,32,2,2,13,1,2,1,4,0.359020147283582,0.34126241273695
"1214",4,19,2,2,14,3,1,0,2,1.19019516953236,1.10825239326248
"1215",4,23,2,2,15,2,2,1,4,0.41890378592393,0.46510932366848
"1216",4,36,2,2,16,3,1,0,1,0.40217651654556,0.416677887256716
"1217",4,22,2,2,17,3,2,1,2,0.516735701791263,0.472224283705265
"1218",4,39,2,2,18,2,2,1,3,0.605880598077586,0.605278067101887
"1219",4,24,2,1,19,2,2,0,2,0.612726290975285,0.645761964854031
"1220",4,18,2,1,20,2,2,0,2,0.731863290613291,0.730050483637115
"1221",4,23,2,2,21,1,2,1,5,0.357266768919558,0.402677143040663
"1222",4,33,2,2,22,2,2,1,4,0.689941719568779,0.689127743730584
"1223",4,32,2,1,23,3,1,1,2,0.679002627078985,0.703952020115721
"1224",4,19,2,1,24,1,1,1,4,0.308161245582246,0.362486938187832
"1225",4,23,2,1,25,3,1,1,3,0.939725964724026,0.889394023844498
"1226",4,36,2,2,26,3,1,0,1,1.06892862375964,1.13443435108534
"1227",4,22,2,1,27,1,1,1,5,0.50812087801479,0.525405203801369
"1228",4,39,2,1,28,3,2,0,2,1.03893272255093,1.07193449888705
"1229",4,24,2,1,29,3,1,1,2,1.03496571441792,1.01447318834251
"1230",4,18,2,1,30,2,2,0,2,0.510535554006608,0.518075298820716
"1231",4,23,2,1,31,2,2,0,3,0.609053735414593,0.612361047851339
"1232",4,33,2,2,32,2,1,0,2,0.907089848814579,0.91631113260056
"1233",4,32,2,1,33,1,1,1,4,0.434343178888927,0.42828493180325
"1234",4,19,2,2,34,2,2,1,4,0.73650864739854,0.690583098879329
"1235",4,23,2,1,35,3,1,1,2,0.619684261014196,0.608216187049042
"1236",4,36,2,1,36,1,1,1,4,0.384352093136771,0.362150207534625
"1237",4,22,2,2,37,1,2,1,4,0.406550540985545,0.446083806516051
"1238",4,39,2,2,38,3,1,0,1,1.257440299831,1.28560974379952
"1239",4,24,2,1,39,1,1,1,5,0.377676502223165,0.345642201168023
"1240",4,18,2,1,40,3,1,1,2,1.16874897815793,1.08813570021719
"1241",4,23,2,2,41,3,1,0,1,0.703646653378025,0.79254226445669
"1242",4,33,2,2,42,3,2,1,2,0.861390804517252,0.873947466027094
"1243",4,32,2,2,43,2,2,1,4,0.4185329734219,0.426641435910263
"1244",4,19,2,1,44,3,2,0,1,1.28813364557597,1.29052263939696
"1245",4,23,2,1,45,1,1,1,4,0.455189357964039,0.49117586706906
"1246",4,36,2,1,46,1,2,0,3,0.547913448000562,0.517991455880471
"1247",4,22,2,1,47,2,2,0,3,0.528336240452268,0.543370017244572
"1248",4,39,2,1,48,3,1,1,2,0.643372427036263,0.546171637436487
"1249",4,24,2,1,49,1,1,1,4,0.418109215522329,0.553100126836385
"1250",4,18,2,2,50,2,1,0,3,0.65615891661251,0.593827381444142
"1251",4,23,2,1,51,3,2,0,1,1.09691663077072,1.10871382124721
"1252",4,33,2,1,52,1,1,1,4,0.468090256828403,0.417881592832251
"1253",4,32,2,2,53,1,2,1,4,0.328566681128091,0.278151705185172
"1254",4,19,2,1,54,1,1,1,4,0.437113708278437,0.479846358057746
"1255",4,23,2,2,55,2,2,1,3,0.447605335198972,0.456786808528096
"1256",4,36,2,2,56,2,1,0,3,0.778194950945166,0.775002196748435
"1257",4,22,2,2,57,3,1,0,2,0.830127399032492,0.851376625677924
"1258",4,39,2,2,58,2,1,0,3,0.85260925265047,0.871892826171425
"1259",4,24,2,1,59,2,2,0,3,0.960342209634626,1.04572786888269
"1260",4,18,2,2,60,1,2,1,5,0.464468044280097,0.462111073356031
"1261",4,23,2,2,61,1,2,1,4,0.416255146370529,0.491790752057711
"1262",4,33,2,1,62,3,2,0,2,1.28105690985566,1.40267962257755
"1263",4,32,2,2,63,3,2,1,3,0.722821908872166,0.799771257533838
"1264",4,19,2,2,64,3,1,0,1,0.735291423560101,0.731788395725015
"1265",4,23,2,2,65,1,2,1,4,0.44539641329608,0.39278637733631
"1266",4,36,2,1,66,3,2,0,2,1.49065403622773,1.52824036190405
"1267",4,22,2,1,67,2,2,0,3,0.764230100880609,0.737758320320551
"1268",4,39,2,2,68,3,1,0,1,0.86766375902215,0.824161152111226
"1269",4,24,2,1,69,1,1,1,5,0.429500980126736,0.474002356497448
"1270",4,18,2,2,70,1,2,1,5,0.426484532949475,0.450504868206811
"1271",4,23,2,1,71,3,1,1,2,0.894954516368553,0.880647207955712
"1272",4,33,2,1,72,2,1,1,3,0.63655690121233,0.581593670968113
"1273",4,32,2,2,73,1,2,1,5,0.297083894226456,0.284307145200347
"1274",4,19,2,2,74,2,2,1,3,0.546218983241007,0.632869920221016
"1275",4,23,2,2,75,3,2,1,3,0.819553247571662,0.869039909896498
"1276",4,36,2,2,76,2,1,0,2,0.788943807953898,0.752178653495422
"1277",4,22,2,2,77,3,2,1,3,0.703037688927713,0.733353080149044
"1278",4,39,2,1,78,2,1,1,4,0.52959835376312,0.519936395067107
"1279",4,24,2,2,79,2,2,1,4,0.607846741046853,0.591287918768435
"1280",4,18,2,1,80,2,2,0,3,0.781378016103843,0.865755901989234
"1281",4,23,2,2,81,3,2,1,2,0.724598655137244,0.733917709941544
"1282",4,33,2,1,82,1,2,0,4,0.63103301945531,0.683101052828216
"1283",4,32,2,2,83,3,1,0,1,0.865360702847624,0.910380569224
"1284",4,19,2,2,84,2,2,1,4,0.482495276582385,0.551450644660177
"1285",4,23,2,2,85,3,2,1,3,1.12069305814603,1.17436823741466
"1286",4,36,2,2,86,3,2,1,3,0.652938694292451,0.650113845131499
"1287",4,22,2,1,87,1,1,1,5,0.484042217157347,0.465162563824828
"1288",4,39,2,1,88,3,2,0,1,0.908912358221723,0.90568291035768
"1289",4,24,2,1,89,1,2,0,3,0.705728163059789,0.724118243554525
"1290",4,18,2,1,90,2,2,0,2,0.710951708658909,0.674390118568908
"1291",4,23,2,2,91,3,1,0,1,0.932880809545341,0.875388490091641
"1292",4,33,2,2,92,1,1,0,3,0.585276848155333,0.558684811157375
"1293",4,32,2,1,93,2,2,0,2,0.714668769708262,0.674767476042489
"1294",4,19,2,2,94,1,2,1,5,0.403236711096532,0.339039822488578
"1295",4,23,2,1,95,1,2,0,4,0.570331696743496,0.602659150119209
"1296",4,36,2,1,96,3,2,0,1,0.844578118777999,0.752368391982212
"1297",4,22,2,2,97,2,2,1,4,0.565102758592696,0.599215439891676
"1298",4,39,2,2,98,3,2,1,2,0.874843086470974,0.880617144819152
"1299",4,24,2,1,99,3,1,1,2,0.548772813965618,0.580704632201911
"1300",4,18,2,1,100,2,1,1,4,0.699597702664625,0.813543791960388
"1301",4,23,2,1,101,3,1,1,3,0.86718609042508,0.839713049697442
"1302",4,33,2,1,102,1,1,1,5,0.294682939629946,0.308021000343416
"1303",4,32,2,1,103,1,1,1,5,0.345670266193498,0.300095513841669
"1304",4,19,2,2,104,2,2,1,3,0.541712691398525,0.619083827141649
"1305",4,23,2,2,105,1,2,1,4,0.376750108826039,0.320121666120873
"1306",4,36,2,2,106,3,1,0,1,1.17092429971094,1.19229189793409
"1307",4,22,2,1,107,3,1,1,3,1.14757411676463,1.15663421190547
"1308",4,39,2,2,108,1,2,1,5,0.385196545186964,0.320714321282869
"1309",4,24,2,1,109,1,1,1,4,0.28686220620728,0.269704694826291
"1310",4,18,2,2,110,3,1,0,2,1.55963690048573,1.69419061466013
"1311",4,23,2,2,111,2,2,1,3,0.653820757000878,0.639053300445402
"1312",4,33,2,2,112,2,2,1,4,0.638170023353393,0.716294849587002
"1313",4,32,2,1,113,3,1,1,2,1.05364191418261,1.10979799684351
"1314",4,19,2,2,114,1,2,1,5,0.387238811868593,0.490653690331073
"1315",4,23,2,2,115,3,2,1,3,0.617048883193952,0.594641363904074
"1316",4,36,2,1,116,3,1,1,3,0.559543533429837,0.567529551099347
"1317",4,22,2,2,117,3,2,1,3,0.983766266199238,1.06428803434807
"1318",4,39,2,2,118,3,2,1,2,0.860155211800376,0.828968350458579
"1319",4,24,2,2,119,3,1,0,1,1.50589808549094,1.56514612258111
"1320",4,18,2,1,120,1,1,1,4,0.458069088675148,0.460100735635576
"1321",4,23,2,1,121,1,1,1,5,0.239333730284652,0.267321375961834
"1322",4,33,2,1,122,1,1,1,5,0.397297963946282,0.410944390821146
"1323",4,32,2,2,123,2,2,1,4,0.79768253909286,0.829196265520827
"1324",4,19,2,2,124,2,2,1,3,0.610136321663396,0.645141791738406
"1325",4,23,2,1,125,1,1,1,4,0.307409273798329,0.386683219013625
"1326",4,36,2,1,126,1,1,1,4,0.384507844502957,0.400942386559026
"1327",4,22,2,1,127,1,1,1,5,0.370614430122024,0.426947933749455
"1328",4,39,2,1,128,1,1,1,4,0.394364080818131,0.356913676535832
"1329",4,24,2,1,129,1,2,0,4,0.604766476292415,0.529937806121594
"1330",4,18,2,1,130,2,1,1,4,0.59038912774789,0.606874276633551
"1331",4,23,2,2,131,2,2,1,4,0.85223308966151,0.816317220926838
"1332",4,33,2,2,132,1,2,1,5,0.390213910945422,0.435795571344051
"1333",4,32,2,2,133,3,1,0,1,1.29815228478199,1.3571613727838
"1334",4,19,2,2,134,2,1,0,2,0.53057493107361,0.512756155099744
"1335",4,23,2,1,135,2,2,0,2,0.874125817027124,0.876898804488519
"1336",4,36,2,1,136,2,1,1,3,0.386792482711055,0.35883330572944
"1337",4,22,2,1,137,2,2,0,2,0.623032602634279,0.593079671852248
"1338",4,39,2,1,138,2,1,1,3,0.758708099140172,0.740042923466194
"1339",4,24,2,2,139,3,2,1,3,1.14952962836823,1.1442880784344
"1340",4,18,2,1,140,2,1,1,4,0.590062935863335,0.668573731213185
"1341",4,23,2,1,141,1,1,1,5,0.495252592491944,0.508716703079771
"1342",4,33,2,1,142,2,2,0,3,0.715584478553918,0.71034941615921
"1343",4,32,2,2,143,1,2,1,5,0.369429974078904,0.376416200031324
"1344",4,19,2,1,144,3,2,0,2,1.39813959645861,1.44623304995289
"1345",4,23,2,1,145,2,1,1,3,0.447783291567479,0.354618229139662
"1346",4,36,2,2,146,2,1,0,3,0.650233602403229,0.637136126232852
"1347",4,22,2,2,147,2,2,1,4,0.475199493307558,0.570075014442527
"1348",4,39,2,1,148,2,1,1,4,0.76675577319161,0.667061499359729
"1349",4,24,2,1,149,3,2,0,1,0.523577937100125,0.545596164048284
"1350",4,18,2,1,150,1,2,0,3,0.541970467561438,0.524799610155706
"1351",4,23,2,1,151,1,1,1,4,0.460824221490738,0.504643637974206
"1352",4,33,2,2,152,1,2,1,4,0.213849077507494,0.163274605097888
"1353",4,32,2,2,153,2,1,0,3,0.831593535854761,0.917416981357678
"1354",4,19,2,1,154,1,1,1,4,0.349045668366253,0.375195807817573
"1355",4,23,2,1,155,3,2,0,1,1.3614341032861,1.35522859151416
"1356",4,36,2,1,156,3,2,0,1,1.10250397389565,1.02394246185246
"1357",4,22,2,2,157,1,2,1,5,0.415918627297235,0.404265321714116
"1358",4,39,2,1,158,1,1,1,5,0.304437367326916,0.201320719277704
"1359",4,24,2,1,159,1,2,0,4,0.550279133423089,0.578617204924235
"1360",4,18,2,1,160,3,1,1,3,0.854822184929961,0.805168102766946
"1361",4,23,2,2,161,3,1,0,2,0.952624102216871,1.009334777686
"1362",4,33,2,1,162,3,1,1,3,0.557981880620452,0.515295058396551
"1363",4,32,2,2,163,2,2,1,3,0.717222128923915,0.707933914411875
"1364",4,19,2,1,164,3,1,1,3,0.754836707422732,0.770024425033121
"1365",4,23,2,1,165,2,1,1,3,0.498871923634617,0.457535834623652
"1366",4,36,2,1,166,2,2,0,2,0.647271346276361,0.65765553692039
"1367",4,22,2,1,167,1,2,0,4,0.59609684253768,0.680096585614981
"1368",4,39,2,2,168,3,1,0,2,1.38230221290322,1.43143770423359
"1369",4,24,2,1,169,1,2,0,4,0.347842578316282,0.377962787048358
"1370",4,18,2,2,170,2,2,1,3,0.650394741828384,0.634490299109595
"1371",4,23,2,2,171,2,2,1,4,0.485367687439109,0.539641262345116
"1372",4,33,2,1,172,2,1,1,3,0.429744712048388,0.494404897669325
"1373",4,32,2,1,173,1,1,1,4,0.375100614317169,0.359338870472633
"1374",4,19,2,2,174,3,1,0,2,0.843628255241617,0.797575590267916
"1375",4,23,2,2,175,2,2,1,3,0.567650765860671,0.557426567496581
"1376",4,36,2,2,176,2,2,1,4,0.654943341927571,0.667315897496758
"1377",4,22,2,2,177,3,1,0,1,1.00286537899472,1.00913879550729
"1378",4,39,2,2,178,2,2,1,3,0.574906914413448,0.516636947157659
"1379",4,24,2,1,179,2,2,0,2,0.907675004352652,0.852745354425477
"1380",4,18,2,1,180,3,2,0,1,1.4883739070058,1.42725854119703
"1381",4,23,2,2,181,2,1,0,3,0.883512018150736,0.888668469636206
"1382",4,33,2,1,182,1,1,1,4,0.515641589940911,0.521599422477588
"1383",4,32,2,1,183,1,1,1,4,0.28469303352535,0.286517394348375
"1384",4,19,2,2,184,2,1,0,2,0.923966244228594,0.916414485818079
"1385",4,23,2,1,185,1,1,1,4,0.366075842570725,0.304708852219068
"1386",4,36,2,1,186,2,1,1,4,0.703228540750736,0.749992128304195
"1387",4,22,2,2,187,1,2,1,4,0.443548097954318,0.502437463846129
"1388",4,39,2,1,188,3,2,0,2,0.829880278542415,0.78872689721609
"1389",4,24,2,2,189,2,1,0,2,0.799775082861504,0.816089644980583
"1390",4,18,2,2,190,1,2,1,4,0.312969362565482,0.33639075472388
"1391",4,23,2,1,191,3,1,1,2,0.994920620855312,1.07846198627766
"1392",4,33,2,1,192,2,1,1,3,0.504846443673416,0.571209056849611
"1393",4,32,2,2,193,2,1,0,3,0.698053277710992,0.65796091086242
"1394",4,19,2,1,194,1,1,1,4,0.450413252384449,0.471919254442002
"1395",4,23,2,2,195,2,1,0,2,0.310345168315838,0.356206091310836
"1396",4,36,2,2,196,3,2,1,2,0.916612036141817,0.91731020521011
"1397",4,22,2,1,197,3,2,0,2,1.00235323206018,0.863192055509001
"1398",4,39,2,2,198,2,2,1,4,0.432925960737887,0.334939527245175
"1399",4,24,2,2,199,1,1,0,3,0.619433697011807,0.627180236736799
"1400",4,18,2,2,200,1,2,1,5,0.321810165369894,0.372457197373907
"1401",4,23,2,1,201,1,1,1,4,0.578628948279867,0.6272990946782
"1402",4,33,2,1,202,3,1,1,2,0.775739986774015,0.792915109922757
"1403",4,32,2,2,203,3,1,0,2,1.3300089858608,1.29349060686272
"1404",4,19,2,1,204,1,1,1,4,0.38786463887778,0.351229526193975
"1405",4,23,2,2,205,3,1,0,1,0.509437590212385,0.508787689664129
"1406",4,36,2,2,206,3,2,1,2,0.463694476174856,0.411536110409532
"1407",4,22,2,2,207,1,2,1,5,0.420133826690357,0.394706992558243
"1408",4,39,2,2,208,3,2,1,2,1.2343202304516,1.22284715414114
"1409",4,24,2,1,209,1,1,1,4,0.439416398190795,0.387493826929434
"1410",4,18,2,1,210,3,2,0,1,1.35075300227871,1.36490174366025
"1411",4,23,2,2,211,3,1,0,2,0.793405861664403,0.843905566208711
"1412",4,33,2,2,212,1,2,1,4,0.570481720520781,0.600431530830746
"1413",4,32,2,1,213,2,1,1,4,0.481935190560069,0.514591845521256
"1414",4,19,2,1,214,2,2,0,3,0.629674273988714,0.611234641889552
"1415",4,23,2,2,215,1,2,1,4,0.465489363943663,0.442977943936098
"1416",4,36,2,2,216,1,2,1,5,0.432093872610027,0.466805062109156
"1417",4,22,2,1,217,3,1,1,2,0.572176251450721,0.607703732410595
"1418",4,39,2,2,218,3,1,0,1,0.823789831016542,0.816968614085588
"1419",4,24,2,2,219,1,2,1,5,0.571843884147531,0.595095744144473
"1420",4,18,2,2,220,2,2,1,4,0.793845683425315,0.812921087532356
"1421",4,23,2,1,221,1,1,1,5,0.428958756304172,0.369464245612381
"1422",4,33,2,2,222,2,1,0,2,0.721860054653853,0.728731164183817
"1423",4,32,2,1,223,3,1,1,2,0.829366249708231,0.76585982142467
"1424",4,19,2,2,224,3,2,1,2,0.784356253331482,0.776477777366933
"1425",4,23,2,2,225,2,2,1,4,0.463574099544235,0.422856347624474
"1426",4,36,2,1,226,2,2,0,2,0.717838118421432,0.660965216280324
"1427",4,22,2,1,227,1,1,1,5,0.403255124031344,0.450594054775468
"1428",4,39,2,1,228,1,1,1,5,0.332265875385501,0.342479125889202
"1429",4,24,2,2,229,3,1,0,1,0.97784019499481,0.885993236794069
"1430",4,18,2,2,230,2,2,1,4,0.536221710973099,0.562789611709342
"1431",4,23,2,2,231,1,1,0,4,0.59797009856196,0.604439382017763
"1432",4,33,2,1,232,3,1,1,2,0.536455273248092,0.559248774250867
"1433",4,32,2,1,233,1,1,1,5,0.441928159530741,0.441471232016175
"1434",4,19,2,1,234,3,2,0,1,1.12184352326999,1.15414414155687
"1435",4,23,2,1,235,3,2,0,1,0.760702645197494,0.700983655165556
"1436",4,36,2,2,236,2,1,0,2,0.808364942285382,0.769112206656813
"1437",4,22,2,2,237,2,2,1,3,0.624703279889963,0.662791426762995
"1438",4,39,2,1,238,2,2,0,2,0.676383215680137,0.677081983682956
"1439",4,24,2,2,239,2,1,0,2,0.845335145131511,0.870283634951325
"1440",4,18,2,2,240,3,2,1,3,1.09082847278444,1.00414714993908
"1441",3,32,1,2,1,1,2,1,4,0.342558966151848,0.312363450087014
"1442",3,26,1,2,2,2,1,0,2,1.03855331857995,1.10379387487088
"1443",3,23,1,2,3,3,2,1,2,0.733121448622747,0.841750438783056
"1444",3,28,1,1,4,3,1,1,3,0.857857171963613,0.869086127935827
"1445",3,36,1,1,5,3,2,0,2,1.35506722910056,1.40067812086634
"1446",3,30,1,1,6,3,2,0,1,1.13761797054414,1.10820612807686
"1447",3,34,1,2,7,2,2,1,4,0.520482237580037,0.441771061911938
"1448",3,25,1,2,8,2,2,1,3,0.779047567180796,0.823526698990733
"1449",3,36,1,1,9,1,1,1,4,0.488848012361237,0.499023012983835
"1450",3,36,1,2,10,2,1,0,3,0.527954196284212,0.533907984259772
"1451",3,32,1,2,11,1,2,1,5,0.287084887475486,0.211232892045638
"1452",3,26,1,2,12,1,2,1,5,0.518676098970211,0.427845198369344
"1453",3,23,1,2,13,3,1,0,2,0.872160098013974,0.946263343674727
"1454",3,28,1,1,14,1,1,1,4,0.301707956624345,0.327113335401165
"1455",3,36,1,1,15,3,1,1,2,1.09507085507465,1.12314549325953
"1456",3,30,1,2,16,2,2,1,3,0.445587858262692,0.46144605698835
"1457",3,34,1,1,17,3,2,0,2,1.44942523819206,1.42743661504844
"1458",3,25,1,1,18,2,2,0,2,0.696058063784727,0.749509851749257
"1459",3,36,1,1,19,3,1,1,2,1.062568526486,1.03963839056328
"1460",3,36,1,2,20,3,2,1,2,0.696600831997187,0.710404642938316
"1461",3,32,1,1,21,3,2,0,1,0.815638037695072,0.752796715192608
"1462",3,26,1,2,22,1,2,1,4,0.486975704460307,0.491449755548595
"1463",3,23,1,1,23,1,1,1,4,0.469068891945899,0.427902445162226
"1464",3,28,1,2,24,2,2,1,4,0.708913062135858,0.780456350422954
"1465",3,36,1,2,25,1,2,1,4,0.5644399352517,0.580686344838376
"1466",3,30,1,2,26,1,2,1,4,0.259410134491047,0.219662746088071
"1467",3,34,1,2,27,2,1,0,3,0.682398249245773,0.610816109876611
"1468",3,25,1,1,28,3,1,1,2,0.929027743693385,0.876897150228444
"1469",3,36,1,1,29,3,2,0,2,1.25695572462372,1.28960939954184
"1470",3,36,1,1,30,2,2,0,2,0.454359761456062,0.485378506799102
"1471",3,32,1,2,31,1,2,1,4,0.467781703276702,0.473898954550444
"1472",3,26,1,1,32,2,1,1,3,0.469972511441298,0.444003405469066
"1473",3,23,1,2,33,2,1,0,2,0.684119628518303,0.735661349207784
"1474",3,28,1,2,34,1,1,0,4,0.704346620465226,0.702491318116631
"1475",3,36,1,1,35,3,1,1,3,1.04903070508362,1.06428571781062
"1476",3,30,1,1,36,2,2,0,3,0.792837389866524,0.830873058560802
"1477",3,34,1,2,37,1,1,0,4,0.631451028445914,0.537793525062936
"1478",3,25,1,2,38,1,2,1,4,0.534991508505425,0.435496281404505
"1479",3,36,1,2,39,2,1,0,3,0.667250836135581,0.656520559706276
"1480",3,36,1,1,40,3,1,1,3,0.617608935491446,0.613313163610767
"1481",3,32,1,2,41,2,2,1,4,0.547688973590983,0.549317273527866
"1482",3,26,1,1,42,2,2,0,3,0.84032924915304,0.985742041445044
"1483",3,23,1,2,43,3,2,1,2,0.591173426622665,0.587616004057483
"1484",3,28,1,2,44,3,1,0,1,1.36716374293745,1.38616117244945
"1485",3,36,1,2,45,2,2,1,3,0.745375539172682,0.801799193612238
"1486",3,30,1,2,46,3,2,1,2,0.688851490681365,0.840478646433994
"1487",3,34,1,2,47,1,2,1,5,0.426863379506846,0.444725019984955
"1488",3,25,1,1,48,1,1,1,5,0.476407732386773,0.445305421712444
"1489",3,36,1,1,49,2,2,0,2,0.704162074221743,0.705292912407448
"1490",3,36,1,1,50,1,1,1,4,0.38160634071562,0.444284554087223
"1491",3,32,1,1,51,1,1,1,4,0.503442391707304,0.444446101000893
"1492",3,26,1,1,52,1,2,0,3,0.50969350039678,0.451681025026093
"1493",3,23,1,2,53,3,2,1,3,1.09607225663796,1.06932398407913
"1494",3,28,1,1,54,1,1,1,5,0.389225645810161,0.448999830497416
"1495",3,36,1,1,55,1,1,1,5,0.391669994443768,0.409653486826596
"1496",3,30,1,2,56,3,2,1,3,0.82868349774869,0.761899763375864
"1497",3,34,1,2,57,1,2,1,4,0.275047066123672,0.297907111386962
"1498",3,25,1,1,58,2,1,1,4,0.42178633769301,0.366424829163625
"1499",3,36,1,1,59,3,1,1,3,0.629291145886046,0.685700193632103
"1500",3,36,1,2,60,3,2,1,3,0.475110028944023,0.433854870721542
"1501",3,32,1,1,61,3,2,0,1,2.06703076429072,1.98767071084859
"1502",3,26,1,2,62,1,2,1,5,0.462287180896891,0.40119831684925
"1503",3,23,1,2,63,3,2,1,3,1.03295355777394,1.03540045465707
"1504",3,28,1,1,64,1,1,1,4,0.417878752807232,0.422732244807211
"1505",3,36,1,1,65,2,2,0,3,0.503758534086851,0.567944075021173
"1506",3,30,1,2,66,2,1,0,2,0.738549334528011,0.726142354819769
"1507",3,34,1,1,67,3,1,1,3,0.806815277556054,0.814693278696134
"1508",3,25,1,2,68,2,2,1,3,0.624556504287791,0.696473013976809
"1509",3,36,1,2,69,3,2,1,3,0.886127473145335,0.926518292334256
"1510",3,36,1,2,70,1,1,0,3,0.509261812448659,0.476707660425899
"1511",3,32,1,1,71,3,1,1,2,0.53135017860079,0.44845328393426
"1512",3,26,1,1,72,2,1,1,3,0.751989628415194,0.707089863253726
"1513",3,23,1,1,73,3,2,0,1,0.566894104785652,0.604844622202004
"1514",3,28,1,2,74,2,2,1,4,0.595778776767359,0.545178643651397
"1515",3,36,1,1,75,3,1,1,2,0.429223324844826,0.43048634213678
"1516",3,30,1,1,76,2,1,1,3,0.570911690300744,0.614646017570746
"1517",3,34,1,1,77,2,1,1,4,0.291541508178325,0.293240212600808
"1518",3,25,1,1,78,2,1,1,4,0.486230347968484,0.482676024054542
"1519",3,36,1,2,79,2,1,0,3,0.670931763040104,0.652454671011302
"1520",3,36,1,1,80,1,2,0,4,0.69658440541639,0.657992290379827
"1521",3,32,1,1,81,1,2,0,3,0.483632243354106,0.488188976688986
"1522",3,26,1,2,82,1,1,0,3,0.506751213359824,0.4529422226845
"1523",3,23,1,2,83,3,2,1,2,0.79998467770865,0.748936503034752
"1524",3,28,1,2,84,1,2,1,4,0.340115795791694,0.383331701870618
"1525",3,36,1,1,85,2,1,1,3,0.735090451839152,0.701264015165724
"1526",3,30,1,1,86,3,2,0,2,1.27186497709173,1.29043924741359
"1527",3,34,1,2,87,2,2,1,3,0.595226681993616,0.55570619108829
"1528",3,25,1,2,88,2,2,1,4,0.620625786989515,0.728433300477712
"1529",3,36,1,2,89,2,1,0,2,0.782869533575696,0.836676501047028
"1530",3,36,1,1,90,3,2,0,2,1.38501331684497,1.39718653644584
"1531",3,32,1,2,91,2,1,0,2,0.711379471535729,0.801323482228249
"1532",3,26,1,2,92,1,1,0,3,0.586294063219064,0.560419712307011
"1533",3,23,1,2,93,3,1,0,1,0.669278942583654,0.742121977781262
"1534",3,28,1,1,94,2,2,0,3,0.785767447390571,0.686268000405593
"1535",3,36,1,1,95,1,1,1,5,0.634815608373277,0.641305769484868
"1536",3,30,1,2,96,3,1,0,1,1.31194744984607,1.35042651480331
"1537",3,34,1,1,97,1,1,1,5,0.304998533924686,0.332357055639705
"1538",3,25,1,2,98,2,1,0,2,0.851621501629479,0.797478357564446
"1539",3,36,1,1,99,2,1,1,3,0.737460352862493,0.717498652458379
"1540",3,36,1,1,100,2,1,1,3,0.545598924750196,0.599358401896361
"1541",3,32,1,2,101,1,2,1,5,0.395204738584743,0.419905790090985
"1542",3,26,1,1,102,3,2,0,1,0.928177811766037,0.934681346697007
"1543",3,23,1,2,103,3,2,1,3,1.07851948451194,1.10361402608394
"1544",3,28,1,2,104,1,2,1,5,0.516962063389389,0.473848661818492
"1545",3,36,1,2,105,3,2,1,2,0.923673975875154,0.831869181130953
"1546",3,30,1,1,106,1,2,0,4,0.359073778051616,0.347086389344601
"1547",3,34,1,1,107,2,2,0,3,0.7079244332782,0.784022335010884
"1548",3,25,1,2,108,3,1,0,2,0.669579024961309,0.675239519833195
"1549",3,36,1,1,109,1,1,1,4,0.4652730382328,0.408548760474212
"1550",3,36,1,1,110,3,1,1,2,0.781482053396421,0.773390073142212
"1551",3,32,1,2,111,2,1,0,2,0.445025574994135,0.468130347046067
"1552",3,26,1,2,112,2,1,0,3,0.846577708522646,0.854106255134162
"1553",3,23,1,2,113,3,1,0,2,0.418926658384644,0.432923427261284
"1554",3,28,1,1,114,3,1,1,3,1.02094526056836,0.956060633688922
"1555",3,36,1,2,115,1,2,1,4,0.423079528755201,0.367109939166378
"1556",3,30,1,1,116,1,2,0,3,0.619435322336823,0.558022291085746
"1557",3,34,1,1,117,2,2,0,2,0.621638476167667,0.656301869947322
"1558",3,25,1,2,118,2,2,1,4,0.596424437911184,0.504477319710139
"1559",3,36,1,1,119,3,2,0,1,1.80288703887146,1.68959555202057
"1560",3,36,1,1,120,3,2,0,1,1.56355427018191,1.53353150935908
"1561",3,32,1,1,121,1,1,1,4,0.482878314204285,0.446038643493201
"1562",3,26,1,1,122,2,1,1,3,0.48102843775194,0.484453914236772
"1563",3,23,1,2,123,3,1,0,2,0.473729585851522,0.476519586981349
"1564",3,28,1,1,124,3,2,0,1,1.07577184107908,1.06707656242196
"1565",3,36,1,1,125,1,1,1,4,0.409572742544109,0.45525617856109
"1566",3,30,1,2,126,2,2,1,4,0.447938313641145,0.411876774695647
"1567",3,34,1,1,127,1,1,1,5,0.440991468049238,0.451879697084823
"1568",3,25,1,1,128,1,1,1,5,0.531731092114965,0.475759852842408
"1569",3,36,1,1,129,2,1,1,3,0.558292854947462,0.524123097419376
"1570",3,36,1,1,130,2,1,1,4,0.552024435032093,0.595613256488116
"1571",3,32,1,2,131,1,1,0,4,0.454664184938217,0.381946488558268
"1572",3,26,1,1,132,2,1,1,3,0.732621742436412,0.663004734079737
"1573",3,23,1,2,133,2,2,1,3,0.458669296735032,0.458572875105977
"1574",3,28,1,1,134,3,1,1,2,1.00507042376977,0.988685768153832
"1575",3,36,1,2,135,2,2,1,4,0.562588532895639,0.527269303758668
"1576",3,30,1,2,136,3,2,1,3,1.08595175489465,1.10588621560896
"1577",3,34,1,2,137,1,1,0,4,0.477509383024489,0.536537429691857
"1578",3,25,1,1,138,2,1,1,3,0.78031135947639,0.79449982310889
"1579",3,36,1,2,139,3,2,1,2,0.882901778603819,0.905500324397057
"1580",3,36,1,1,140,1,1,1,5,0.334824269913553,0.354884518594897
"1581",3,32,1,1,141,3,2,0,1,0.585796697013968,0.619639590324885
"1582",3,26,1,2,142,1,1,0,3,0.507533285909425,0.5271288604828
"1583",3,23,1,2,143,3,1,0,2,0.772078638840884,0.718911605407514
"1584",3,28,1,1,144,1,1,1,5,0.43610554034965,0.34447782314449
"1585",3,36,1,2,145,1,1,0,4,0.368729246007923,0.397113681170391
"1586",3,30,1,2,146,1,2,1,4,0.366884729395447,0.514744307302879
"1587",3,34,1,1,147,3,1,1,2,0.563188632471559,0.558742663776662
"1588",3,25,1,2,148,3,1,0,1,1.17551292104403,1.21792789228653
"1589",3,36,1,2,149,2,1,0,2,0.665993286127068,0.698566400635595
"1590",3,36,1,1,150,2,2,0,3,0.663540402150435,0.595714065304706
"1591",3,32,1,2,151,1,1,0,3,0.53945252337654,0.522532949697234
"1592",3,26,1,1,152,2,1,1,3,0.528427529433157,0.461110916744679
"1593",3,23,1,1,153,3,1,1,3,0.891470313838309,0.94996900712619
"1594",3,28,1,2,154,3,1,0,1,0.53455020468223,0.457994553833844
"1595",3,36,1,2,155,2,1,0,3,0.710109323541244,0.741494691972836
"1596",3,30,1,2,156,2,2,1,3,0.863817625901718,0.909834898315706
"1597",3,34,1,1,157,2,2,0,2,0.687867203507273,0.759911062462794
"1598",3,25,1,1,158,1,2,0,3,0.486437191550637,0.413355599428384
"1599",3,36,1,2,159,2,1,0,3,0.85655877132114,0.797483809727352
"1600",3,36,1,2,160,3,1,0,1,0.71769976025106,0.685251753501755
"1601",3,32,1,2,161,2,2,1,4,0.311531622600321,0.384707240898227
