"","subj_no","age","group","stim","trial","difficulty","resp","corr","conf","RT_day1","RT_day2"
"1",10,23,2,2,1,2,1,0,2,0.607614943256334,0.644375420617055
"2",10,36,2,1,2,3,2,0,1,0.709003690648685,0.709635834402646
"3",10,38,2,2,3,2,2,1,4,0.623201343356036,0.659813796203654
"4",10,25,2,2,4,1,1,0,3,0.688075932617567,0.65884212399094
"5",10,20,2,1,5,2,1,1,4,0.729647977614218,0.690004498951564
"6",10,40,2,1,6,1,1,1,5,0.409868386653865,0.42840863431723
"7",10,23,2,2,7,3,1,0,2,0.731638088206367,0.842601544972388
"8",10,20,2,2,8,1,1,0,4,0.443952475990547,0.492088502676117
"9",10,40,2,2,9,3,1,0,1,1.34663842111463,1.30998525476369
"10",10,23,2,2,10,1,1,0,4,0.569362745180381,0.62759366203244
"11",10,23,2,1,11,1,1,1,5,0.346703072254113,0.315573030249009
"12",10,36,2,1,12,2,2,0,2,0.742877026058049,0.770711772831353
"13",10,38,2,2,13,3,1,0,1,0.99696099209907,1.03169175693058
"14",10,25,2,2,14,2,2,1,3,0.6421189212578,0.747216445777587
"15",10,20,2,1,15,2,2,0,3,0.840221102554756,0.841043305794056
"16",10,40,2,1,16,2,1,1,4,0.591093908532666,0.657109384108507
"17",10,23,2,1,17,1,1,1,4,0.611222703128785,0.647788602028269
"18",10,20,2,2,18,1,2,1,5,0.481894354998255,0.496174255862047
"19",10,40,2,1,19,1,1,1,4,0.387171006440054,0.344103568957187
"20",10,23,2,1,20,1,2,0,4,0.626453324415254,0.58210778951464
"21",10,23,2,2,21,3,2,1,3,0.327720792917462,0.357158098826698
"22",10,36,2,1,22,1,1,1,5,0.455750739300231,0.464471521984688
"23",10,38,2,2,23,1,2,1,4,0.40837268237081,0.449921589099822
"24",10,25,2,2,24,3,2,1,2,0.574115282410826,0.556022920851687
"25",10,20,2,1,25,2,2,0,3,1.01032221861057,1.03176969487761
"26",10,40,2,1,26,2,1,1,4,0.664281647685352,0.539796876446213
"27",10,23,2,1,27,3,2,0,2,0.363580392302839,0.270201450971137
"28",10,20,2,1,28,1,1,1,5,0.5618533313372,0.423211857021066
"29",10,40,2,1,29,2,2,0,2,0.738129859752472,0.657586676142396
"30",10,23,2,1,30,2,1,1,3,0.764468335022627,0.777838736497393
"31",10,23,2,1,31,1,1,1,5,0.357697176473411,0.372386335732105
"32",10,36,2,2,32,1,1,0,4,0.610569746428827,0.686348969772736
"33",10,38,2,1,33,1,1,1,4,0.325982420781719,0.33984348203935
"34",10,25,2,1,34,1,1,1,5,0.404291361346831,0.427859103047825
"35",10,20,2,2,35,1,2,1,5,0.400538388932855,0.456826677966525
"36",10,40,2,2,36,2,2,1,4,0.345243242612696,0.413131330475029
"37",10,23,2,1,37,1,1,1,4,0.400560349209375,0.409012960906922
"38",10,20,2,2,38,3,1,0,1,1.14269255315762,1.08251767446616
"39",10,40,2,1,39,1,1,1,4,0.349436275585413,0.322323975377082
"40",10,23,2,1,40,1,1,1,5,0.323634222219537,0.313288372251119
"41",10,23,2,1,41,1,2,0,4,0.476460698878079,0.459177060882036
"42",10,36,2,2,42,3,2,1,3,0.500213940072176,0.520388961493181
"43",10,38,2,1,43,2,2,0,2,0.685351504397382,0.621800431761258
"44",10,25,2,2,44,1,1,0,4,0.59257261646032,0.655364188796022
"45",10,20,2,2,45,3,1,0,1,0.597877238812866,0.627110922774536
"46",10,40,2,2,46,3,2,1,2,0.908052728715827,0.952619309709671
"47",10,23,2,1,47,3,2,0,1,0.644122677805534,0.608514708235757
"48",10,20,2,2,48,3,1,0,1,0.334055672302499,0.38838830705153
"49",10,40,2,1,49,3,1,1,2,0.624890659883099,0.645025065338988
"50",10,23,2,2,50,2,1,0,2,0.5569056333427,0.564253922055831
"51",10,23,2,2,51,3,2,1,2,0.911362285473987,0.931403252712165
"52",10,36,2,1,52,2,1,1,4,0.596018526828819,0.510733626176995
"53",10,38,2,2,53,2,1,0,2,0.883815310224645,0.892360743327089
"54",10,25,2,2,54,1,2,1,5,0.335169347723035,0.361428291904552
"55",10,20,2,2,55,2,2,1,4,0.704454726677762,0.702559141166974
"56",10,40,2,1,56,2,2,0,3,0.69476067347048,0.793781311825982
"57",10,23,2,1,57,1,1,1,5,0.445639596815912,0.453179564534058
"58",10,20,2,1,58,2,1,1,4,0.749589630923082,0.79779911840147
"59",10,40,2,1,59,3,2,0,1,0.568534597792706,0.586682876088424
"60",10,23,2,1,60,3,2,0,2,0.641264271818936,0.671123868818484
"61",10,23,2,1,61,1,1,1,4,0.312065459971303,0.32894963394767
"62",10,36,2,2,62,3,1,0,2,1.60844131414771,1.63201771027594
"63",10,38,2,1,63,2,2,0,3,0.805195829746215,0.803291825510788
"64",10,25,2,2,64,2,1,0,3,0.612223246565237,0.605593431087221
"65",10,20,2,2,65,3,2,1,2,0.678516496449543,0.623197134932529
"66",10,40,2,2,66,2,2,1,3,0.63499179334671,0.715821291636375
"67",10,23,2,2,67,2,2,1,4,0.555285806719682,0.568554839469464
"68",10,20,2,1,68,3,2,0,1,1.27402864305213,1.19883693228489
"69",10,40,2,1,69,3,1,1,2,0.219311959765489,0.116359458543236
"70",10,23,2,1,70,1,1,1,4,0.33580444498102,0.383299922017017
"71",10,23,2,2,71,1,2,1,5,0.471202742586779,0.45225452342946
"72",10,36,2,1,72,3,1,1,3,1.03017111371023,1.01562702033324
"73",10,38,2,2,73,2,1,0,3,0.703835674275394,0.695275854690947
"74",10,25,2,2,74,2,2,1,3,0.516324508713217,0.522421204740443
"75",10,20,2,1,75,1,1,1,4,0.447349020433378,0.429246448035979
"76",10,40,2,1,76,2,2,0,3,0.492185067467804,0.48364761822765
"77",10,23,2,2,77,1,2,1,5,0.383958644207931,0.330026782292318
"78",10,20,2,2,78,1,1,0,3,0.587853922597692,0.592629501816962
"79",10,40,2,1,79,3,2,0,2,0.946251901562454,0.990827687760673
"80",10,23,2,1,80,2,2,0,2,0.749904644150338,0.745266810733329
"81",10,23,2,1,81,2,2,0,3,0.485144360170986,0.433188776277427
"82",10,36,2,2,82,2,2,1,4,0.484459508000181,0.544343016548334
"83",10,38,2,2,83,3,2,1,3,0.781701098376676,0.730229915093164
"84",10,25,2,2,84,2,2,1,4,0.740147085658572,0.799642476910665
"85",10,20,2,1,85,3,2,0,2,1.91458042542412,1.88383752939241
"86",10,40,2,2,86,2,1,0,2,0.553737935501264,0.584202883383792
"87",10,23,2,2,87,2,1,0,3,0.547247347281847,0.586262046950519
"88",10,20,2,1,88,1,1,1,4,0.317610208864168,0.261788269932247
"89",10,40,2,1,89,2,1,1,3,0.540301588936584,0.482670425209992
"90",10,23,2,1,90,1,1,1,4,0.390166084604744,0.423199014623739
"91",10,23,2,1,91,1,1,1,4,0.466199135535203,0.419893301595428
"92",10,36,2,2,92,1,2,1,5,0.409720009364351,0.327022359191241
"93",10,38,2,1,93,1,1,1,5,0.336501536787141,0.345849709971051
"94",10,25,2,1,94,3,2,0,2,0.457969688319137,0.385125138403805
"95",10,20,2,1,95,1,1,1,4,0.412032398502611,0.409943616797558
"96",10,40,2,1,96,1,2,0,3,0.666323491077492,0.692660039898015
"97",10,23,2,2,97,2,1,0,3,0.795658023202606,0.818287982570988
"98",10,20,2,1,98,3,1,1,3,0.608571705140329,0.686026584830149
"99",10,40,2,1,99,1,1,1,4,0.473768287161419,0.466086563892372
"100",10,23,2,2,100,1,2,1,5,0.479980401471415,0.505041129580571
"101",10,23,2,2,101,1,2,1,5,0.439443077138936,0.416286306917378
"102",10,36,2,2,102,1,2,1,4,0.424194149764179,0.498701457671717
"103",10,38,2,2,103,1,1,0,4,0.436428708391534,0.360546020734426
"104",10,25,2,1,104,1,1,1,5,0.418444746114172,0.372403199056792
"105",10,20,2,1,105,1,1,1,5,0.293013754525174,0.30339745450116
"106",10,40,2,1,106,1,1,1,5,0.582502902193565,0.657357256197998
"107",10,23,2,1,107,2,1,1,4,0.534374711870443,0.557470441352825
"108",10,20,2,2,108,1,2,1,5,0.336064367008089,0.359906835597783
"109",10,40,2,1,109,3,2,0,1,1.29100895091868,1.23321891750019
"110",10,23,2,1,110,2,1,1,3,0.725975080822472,0.753190400665631
"111",10,23,2,2,111,2,1,0,3,0.576441647706063,0.603919585998974
"112",10,36,2,1,112,3,1,1,3,1.2973702667461,1.24971896402346
"113",10,38,2,2,113,3,2,1,2,0.832990021941063,0.91028851046002
"114",10,25,2,1,114,2,2,0,2,0.542661475890517,0.535634878942645
"115",10,20,2,1,115,3,2,0,1,1.35553840206915,1.36191455114773
"116",10,40,2,2,116,3,1,0,1,1.29315232255548,1.328906348537
"117",10,23,2,2,117,2,1,0,2,0.193095073540954,0.191327680134729
"118",10,20,2,1,118,3,1,1,3,0.602234453232209,0.624800206210683
"119",10,40,2,2,119,3,2,1,3,0.222090870059849,0.175869763500009
"120",10,23,2,2,120,1,2,1,4,0.362065425061623,0.314093094559383
"121",10,23,2,1,121,1,1,1,5,0.338201041764599,0.394323153445564
"122",10,36,2,2,122,2,2,1,4,0.670427646172276,0.725042157831882
"123",10,38,2,2,123,2,1,0,3,1.02164257708029,0.968585509052707
"124",10,25,2,2,124,2,2,1,3,0.527589524118988,0.532116941515563
"125",10,20,2,2,125,3,2,1,2,0.690219811365698,0.806042705197932
"126",10,40,2,1,126,1,1,1,5,0.489730403781178,0.536068674113533
"127",10,23,2,1,127,3,1,1,3,0.742156817525633,0.724192184367136
"128",10,20,2,1,128,3,2,0,2,1.11807141092035,1.01007532541807
"129",10,40,2,1,129,2,2,0,3,0.635707108165646,0.501851898369953
"130",10,23,2,2,130,1,2,1,5,0.380205430497236,0.369836880311648
"131",10,23,2,1,131,1,1,1,4,0.331750810185399,0.368717560878806
"132",10,36,2,1,132,2,1,1,3,0.568641322080733,0.521722102240533
"133",10,38,2,2,133,3,1,0,1,0.834445640282511,0.793514949735925
"134",10,25,2,2,134,2,1,0,3,0.517211452139499,0.607853116543782
"135",10,20,2,2,135,1,2,1,5,0.472808880258042,0.454603092903595
"136",10,40,2,2,136,3,2,1,2,0.722992831602636,0.781235429565298
"137",10,23,2,1,137,2,2,0,3,0.847214480252215,0.848024762874557
"138",10,20,2,2,138,3,2,1,3,0.715650875790844,0.748376171396751
"139",10,40,2,2,139,2,2,1,4,0.48778777776615,0.461993162257403
"140",10,23,2,1,140,3,2,0,2,0.461789122666009,0.470731462241291
"141",10,23,2,2,141,2,2,1,3,0.594193901087024,0.648936070858187
"142",10,36,2,2,142,2,1,0,3,0.323221071931271,0.355044777425046
"143",10,38,2,1,143,2,2,0,3,0.675680719374842,0.656276647012521
"144",10,25,2,2,144,1,2,1,5,0.446713702081305,0.458746098162971
"145",10,20,2,1,145,2,1,1,3,0.759247299816847,0.782252967625834
"146",10,40,2,1,146,2,2,0,2,0.910926790043365,0.832251134009114
"147",10,23,2,1,147,3,1,1,3,0.407681540262191,0.35424717968132
"148",10,20,2,2,148,3,2,1,2,0.510287537430188,0.518608388088771
"149",10,40,2,1,149,3,1,1,2,1.09781942249003,1.12627813868952
"150",10,23,2,2,150,3,2,1,2,0.552914086122541,0.54750033376591
"151",10,23,2,2,151,3,1,0,1,1.01542119289405,1.07834250674251
"152",10,36,2,1,152,3,1,1,2,0.666994748408376,0.649283997050929
"153",10,38,2,2,153,1,2,1,5,0.457113178199557,0.465528365732907
"154",10,25,2,2,154,3,1,0,2,1.03947212380859,1.01480159581561
"155",10,20,2,1,155,3,2,0,1,0.92757502554708,0.914839152815999
"156",10,40,2,2,156,3,1,0,2,1.87401849855066,1.85305039610859
"157",10,23,2,2,157,1,2,1,5,0.477071084146645,0.557865541194064
"158",10,20,2,1,158,3,1,1,2,0.914170397115113,0.930496900486278
"159",10,40,2,1,159,3,1,1,2,1.18868301233632,1.15464727842022
"160",10,23,2,2,160,1,1,0,4,0.557932424708794,0.479187163257192
"161",10,23,2,2,161,3,1,0,2,0.937677160473614,0.931796116137931
"162",10,36,2,2,162,1,2,1,5,0.429393745151196,0.431117482225241
"163",10,38,2,1,163,2,1,1,4,0.526725480095653,0.570821398981994
"164",10,25,2,1,164,1,1,1,4,0.434591809550306,0.411498870460353
"165",10,20,2,2,165,3,2,1,2,0.684042290792983,0.623863238051741
"166",10,40,2,2,166,1,2,1,5,0.339181170728668,0.359192756474645
"167",10,23,2,1,167,1,2,0,4,0.535676456740113,0.533067450406284
"168",10,20,2,1,168,1,1,1,5,0.376046054876379,0.378858256728902
"169",10,40,2,2,169,2,2,1,3,0.806902566471629,0.765979023285008
"170",10,23,2,2,170,3,1,0,2,0.855112919567227,0.926508275021911
"171",10,23,2,1,171,3,1,1,3,0.741193841290214,0.725157853937828
"172",10,36,2,1,172,2,2,0,3,0.964202138934949,0.873730926167823
"173",10,38,2,2,173,1,2,1,4,0.469057604913454,0.490506614743264
"174",10,25,2,2,174,2,1,0,3,0.879890963375822,0.925766440169248
"175",10,20,2,2,175,2,2,1,4,0.728949610586162,0.661241030457389
"176",10,40,2,2,176,3,2,1,2,0.620190847530879,0.607938686796984
"177",10,23,2,2,177,2,1,0,2,0.639304680060488,0.697928052975532
"178",10,20,2,1,178,1,2,0,3,0.467570269383394,0.404976627463404
"179",10,40,2,1,179,1,1,1,5,0.426299497946765,0.459008202081269
"180",10,23,2,2,180,1,2,1,5,0.330614179094453,0.256791189401766
"181",10,23,2,1,181,3,1,1,3,0.83658215282336,0.816824187865686
"182",10,36,2,2,182,3,2,1,3,0.922727832348167,0.923894909464734
"183",10,38,2,2,183,2,1,0,2,0.566726215573437,0.57527802861946
"184",10,25,2,1,184,1,2,0,4,0.566248843625115,0.543125179199453
"185",10,20,2,2,185,3,1,0,1,0.941515787522662,0.930748134951527
"186",10,40,2,1,186,2,2,0,2,0.832893224991899,0.827346190202017
"187",10,23,2,1,187,2,1,1,4,0.667254257763472,0.787253447354669
"188",10,20,2,2,188,1,2,1,4,0.301439309586135,0.254705941614149
"189",10,40,2,2,189,3,2,1,3,0.848160817230081,0.922046469951626
"190",10,23,2,1,190,2,1,1,4,0.496157219158736,0.489343137952939
"191",10,23,2,1,191,2,1,1,3,0.586845406160137,0.599698062533184
"192",10,36,2,2,192,3,1,0,2,1.42471140496307,1.42558715772728
"193",10,38,2,1,193,2,1,1,3,0.535854853374363,0.477239619233211
"194",10,25,2,2,194,1,2,1,4,0.459649595221168,0.414863034155811
"195",10,20,2,1,195,3,1,1,2,0.774746042101871,0.746814861755516
"196",10,40,2,2,196,3,1,0,2,1.28726758227933,1.25942271077066
"197",10,23,2,2,197,3,2,1,3,0.904819528778006,0.785131815343387
"198",10,20,2,1,198,2,2,0,2,0.816467389082345,0.905918087995954
"199",10,40,2,2,199,1,2,1,5,0.445509205555596,0.460229655389613
"200",10,23,2,1,200,3,1,1,2,0.983236590934209,0.872030543723186
"201",10,23,2,2,201,1,2,1,4,0.254005036220431,0.313164741467547
"202",10,36,2,2,202,1,2,1,4,0.273323352154941,0.233323425327531
"203",10,38,2,2,203,3,2,1,3,0.949226948678084,0.918796917285508
"204",10,25,2,1,204,3,2,0,2,1.39494000851202,1.39219533061467
"205",10,20,2,2,205,2,1,0,3,0.858222033590337,0.836735710006786
"206",10,40,2,2,206,2,1,0,3,0.703372376116182,0.724600451115583
"207",10,23,2,2,207,2,1,0,2,0.54769291634373,0.538744427863781
"208",10,20,2,1,208,3,1,1,2,0.570355656967762,0.588643998168114
"209",10,40,2,2,209,2,2,1,3,0.706353489623875,0.749250623985601
"210",10,23,2,2,210,3,1,0,2,0.981922533638404,1.01298561043442
"211",10,23,2,2,211,2,1,0,2,0.671686434269943,0.639841964589454
"212",10,36,2,2,212,2,1,0,2,0.699719880363334,0.619896125409732
"213",10,38,2,2,213,2,2,1,4,0.574769627411864,0.582860033091761
"214",10,25,2,1,214,3,2,0,1,0.97306355595806,1.01429027891221
"215",10,20,2,2,215,3,2,1,3,0.91020537231494,0.943329540306477
"216",10,40,2,2,216,1,2,1,5,0.429907942066246,0.453169642778507
"217",10,23,2,1,217,3,1,1,2,0.723650069397173,0.75477333208769
"218",10,20,2,1,218,3,1,1,3,0.802430814824303,0.878334391613871
"219",10,40,2,1,219,2,1,1,4,0.523903635374852,0.547155211749648
"220",10,23,2,2,220,2,2,1,3,0.467086912324669,0.492270956702563
"221",10,23,2,1,221,1,1,1,5,0.387664873471317,0.376231962754709
"222",10,36,2,2,222,1,2,1,5,0.503718536533976,0.444588065591688
"223",10,38,2,2,223,2,2,1,3,0.570387071302855,0.545811018716612
"224",10,25,2,1,224,1,1,1,5,0.473269780455384,0.398538046145716
"225",10,20,2,1,225,3,1,1,3,0.69918013878324,0.717013924288811
"226",10,40,2,1,226,1,1,1,5,0.416538342112573,0.391568821650417
"227",10,23,2,2,227,2,2,1,3,0.417188384801378,0.378370072943806
"228",10,20,2,1,228,2,1,1,3,0.529460662662655,0.504377557949861
"229",10,40,2,1,229,3,2,0,2,0.993038526826201,1.00079741262425
"230",10,23,2,2,230,1,2,1,5,0.232439803409586,0.175206782425145
"231",10,23,2,1,231,1,1,1,5,0.457681401647672,0.520509919111424
"232",10,36,2,2,232,3,1,0,2,0.362783386171308,0.299466912173158
"233",10,38,2,2,233,3,1,0,2,0.737894768201262,0.726301273561449
"234",10,25,2,1,234,1,1,1,4,0.420214983243723,0.432105139315837
"235",10,20,2,1,235,2,2,0,2,0.613570557821651,0.66104434343655
"236",10,40,2,1,236,3,2,0,1,1.36973695243014,1.35160308624999
"237",10,23,2,2,237,2,2,1,4,0.524990174239759,0.385077193645985
"238",10,20,2,1,238,3,1,1,3,0.829970837347903,0.898203856265522
"239",10,40,2,1,239,2,1,1,4,0.610758377581147,0.597785864281855
"240",10,23,2,1,240,1,1,1,5,0.436070959495963,0.444225949250955
"241",9,34,1,2,1,1,2,1,4,0.40921431300055,0.421868872544299
"242",9,26,1,1,2,1,1,1,5,0.389465282410816,0.323201167709352
"243",9,37,1,2,3,3,1,0,2,1.56539074808952,1.64242934163671
"244",9,33,1,1,4,2,1,1,3,0.664727700581641,0.667687667521232
"245",9,38,1,2,5,2,2,1,3,0.646166908494568,0.641408969893833
"246",9,35,1,1,6,2,2,0,2,0.780621600485562,0.796283548005086
"247",9,35,1,2,7,2,2,1,4,0.48360374327249,0.560275194989441
"248",9,31,1,2,8,1,2,1,5,0.380001855458798,0.380675891832914
"249",9,28,1,2,9,2,1,0,2,0.817424787137749,0.85199198488582
"250",9,31,1,1,10,3,2,0,1,0.885659799684401,0.903352118678124
"251",9,34,1,2,11,3,1,0,1,0.785089258307602,0.775162352257551
"252",9,26,1,2,12,3,2,1,2,1.07131540478459,1.11787609704382
"253",9,37,1,1,13,3,1,1,3,0.789743931223324,0.770504594839837
"254",9,33,1,2,14,2,1,0,2,0.917101322596957,0.860682060462196
"255",9,38,1,2,15,2,1,0,3,0.47348688955752,0.432041186041285
"256",9,35,1,2,16,2,1,0,3,0.531913106066788,0.554080364604284
"257",9,35,1,1,17,2,2,0,2,0.634259939702093,0.615307831964883
"258",9,31,1,1,18,1,1,1,4,0.320762019954493,0.382143622733556
"259",9,28,1,2,19,2,2,1,4,0.348192445209188,0.361500800540551
"260",9,31,1,2,20,2,2,1,3,0.661755191973678,0.680145317562247
"261",9,34,1,2,21,1,2,1,4,0.442539159292726,0.434971195712604
"262",9,26,1,2,22,3,1,0,2,0.864367458569315,0.821455735938683
"263",9,37,1,2,23,2,1,0,3,0.45508614326555,0.528147846640451
"264",9,33,1,2,24,1,1,0,3,0.550773240007784,0.576083343539786
"265",9,38,1,2,25,3,2,1,3,0.764489384801263,0.786707089556218
"266",9,35,1,2,26,1,2,1,4,0.423228894775366,0.454490739956841
"267",9,35,1,2,27,3,1,0,2,0.747788843845573,0.894752011292851
"268",9,31,1,1,28,1,2,0,3,0.443159703237753,0.470462274000946
"269",9,28,1,1,29,3,1,1,3,0.822373554837206,0.842542147036969
"270",9,31,1,2,30,3,2,1,2,0.58070863075167,0.56730973730025
"271",9,34,1,1,31,1,2,0,3,0.648357674706184,0.649852938223964
"272",9,26,1,1,32,3,2,0,2,0.364302598853308,0.301819117661564
"273",9,37,1,1,33,1,1,1,4,0.315172560953205,0.319507216546146
"274",9,33,1,2,34,2,1,0,2,0.605399868185362,0.621330251477529
"275",9,38,1,2,35,1,1,0,4,0.65769736828452,0.698418402363777
"276",9,35,1,2,36,2,1,0,3,0.793430299019759,0.754284606293602
"277",9,35,1,1,37,2,1,1,4,0.680131686732947,0.832039876771686
"278",9,31,1,1,38,3,1,1,3,1.00679174794606,1.0522275142132
"279",9,28,1,1,39,3,2,0,2,1.52565198339951,1.55210310523157
"280",9,31,1,1,40,1,1,1,5,0.424528740800203,0.425861904683901
"281",9,34,1,2,41,1,2,1,5,0.409240817580505,0.323255551564772
"282",9,26,1,2,42,1,2,1,4,0.434237515372834,0.488721729127413
"283",9,37,1,1,43,2,1,1,4,0.558496420182479,0.640861846293967
"284",9,33,1,1,44,1,1,1,4,0.424367804842972,0.448832401165951
"285",9,38,1,1,45,2,1,1,3,0.595207311976853,0.608909994102494
"286",9,35,1,2,46,3,1,0,1,1.12367625783622,1.08359221008812
"287",9,35,1,1,47,2,1,1,4,0.504135379090654,0.425228051028155
"288",9,31,1,1,48,2,1,1,3,0.722687760825814,0.762138679151614
"289",9,28,1,1,49,2,1,1,4,0.605950215294634,0.609356376736994
"290",9,31,1,1,50,2,1,1,4,0.672192475417841,0.703581590059494
"291",9,34,1,2,51,1,2,1,5,0.457080809929412,0.409840192414118
"292",9,26,1,1,52,3,1,1,2,0.878425939575066,0.903622911533463
"293",9,37,1,2,53,1,1,0,4,0.562620200248107,0.546134668160225
"294",9,33,1,2,54,1,2,1,4,0.461929868145489,0.447409149362636
"295",9,38,1,2,55,2,2,1,3,0.714296605817244,0.670329190375058
"296",9,35,1,1,56,1,1,1,5,0.480769475077991,0.532173223586902
"297",9,35,1,2,57,1,2,1,5,0.454920384896033,0.385568090585764
"298",9,31,1,2,58,3,1,0,2,0.680329505875203,0.620525266911828
"299",9,28,1,2,59,2,1,0,2,0.474502573971494,0.539286099232127
"300",9,31,1,2,60,1,2,1,5,0.384985939862256,0.359014975124853
"301",9,34,1,1,61,2,1,1,4,0.847481509877825,0.827538409496521
"302",9,26,1,1,62,1,1,1,4,0.479818008661691,0.43301845203765
"303",9,37,1,2,63,2,2,1,4,0.44795260227435,0.486538795405826
"304",9,33,1,2,64,1,2,1,4,0.412280212281196,0.45443043097641
"305",9,38,1,2,65,2,1,0,2,0.63343061852344,0.710094790683337
"306",9,35,1,1,66,1,1,1,5,0.283963578607964,0.234174408669097
"307",9,35,1,1,67,1,1,1,4,0.492754129422205,0.587143382874835
"308",9,31,1,1,68,1,1,1,4,0.536409147769662,0.494914883471726
"309",9,28,1,1,69,1,2,0,4,0.585989380525384,0.562531325217536
"310",9,31,1,2,70,3,2,1,3,0.650788619628215,0.719630549719131
"311",9,34,1,2,71,2,2,1,3,0.787352365375945,0.854616877952655
"312",9,26,1,1,72,3,1,1,3,0.975155950136123,0.934530611018634
"313",9,37,1,1,73,3,1,1,2,0.608708179064822,0.526243328371131
"314",9,33,1,1,74,3,2,0,2,0.94515695316692,0.967887777488016
"315",9,38,1,1,75,1,1,1,5,0.372600273372629,0.347739262767933
"316",9,35,1,2,76,3,1,0,1,0.734815334774344,0.828525611894218
"317",9,35,1,1,77,2,2,0,2,0.689972032267292,0.708436988165414
"318",9,31,1,1,78,1,2,0,4,0.358893579879812,0.33036204779307
"319",9,28,1,2,79,1,2,1,5,0.384573029653662,0.48265506826223
"320",9,31,1,1,80,2,1,1,3,0.647117519254539,0.562534441459859
"321",9,34,1,1,81,1,2,0,3,0.477742285607759,0.442100607426053
"322",9,26,1,1,82,3,1,1,2,0.753273943541372,0.726133483155539
"323",9,37,1,2,83,2,2,1,3,0.706905485470421,0.703869089100677
"324",9,33,1,2,84,1,2,1,5,0.36485741521864,0.338543513996154
"325",9,38,1,1,85,3,1,1,3,0.635858635884041,0.58775716013927
"326",9,35,1,2,86,2,2,1,4,0.761429828565165,0.832867638420357
"327",9,35,1,1,87,2,2,0,3,0.921054068714529,0.777912567099294
"328",9,31,1,2,88,3,1,0,1,1.10139356068382,1.13852856442212
"329",9,28,1,2,89,1,2,1,4,0.289822031282893,0.312334069092424
"330",9,31,1,2,90,1,2,1,4,0.466107064746587,0.395100706993466
"331",9,34,1,2,91,2,2,1,4,0.371859038386296,0.425611670199617
"332",9,26,1,1,92,1,1,1,5,0.376537946645845,0.370077839946889
"333",9,37,1,2,93,3,1,0,2,1.05002795054019,1.03431315825579
"334",9,33,1,1,94,2,1,1,3,0.68007610829393,0.68286276164671
"335",9,38,1,2,95,3,1,0,1,0.615819290565858,0.554020208844065
"336",9,35,1,1,96,1,2,0,3,0.577031455547167,0.621873469139778
"337",9,35,1,1,97,2,1,1,4,0.453782982342313,0.489858007346677
"338",9,31,1,2,98,1,2,1,5,0.341483018337294,0.326471897722431
"339",9,28,1,2,99,3,1,0,1,1.38830866367751,1.38213945501206
"340",9,31,1,2,100,3,2,1,2,1.00671690309627,0.983329055616963
"341",9,34,1,2,101,1,2,1,5,0.370457848930047,0.309635798598473
"342",9,26,1,1,102,3,2,0,2,1.27697075157028,1.2207596821935
"343",9,37,1,1,103,2,2,0,2,0.590395298054482,0.625454782039744
"344",9,33,1,2,104,1,2,1,5,0.449911278543516,0.39260572245332
"345",9,38,1,2,105,3,1,0,2,0.864499371301029,0.839051185690332
"346",9,35,1,1,106,3,1,1,3,1.27787582251944,1.30377728689376
"347",9,35,1,1,107,3,1,1,3,0.720126288473341,0.80136404648911
"348",9,31,1,2,108,1,1,0,3,0.560125056458413,0.620946234266934
"349",9,28,1,1,109,3,1,1,3,0.916331553617964,0.859187560727428
"350",9,31,1,1,110,1,2,0,4,0.575354355594258,0.578576655577823
"351",9,34,1,2,111,2,2,1,4,0.733303957619012,0.747976552678161
"352",9,26,1,1,112,1,1,1,5,0.310007663390504,0.331501595204123
"353",9,37,1,2,113,3,2,1,2,0.871566588485151,0.921155443037337
"354",9,33,1,1,114,3,2,0,1,0.861620953019539,0.853198859901031
"355",9,38,1,1,115,3,1,1,3,0.7784369772482,0.806849873875204
"356",9,35,1,2,116,3,2,1,2,0.594099073087862,0.617668581009521
"357",9,35,1,1,117,3,2,0,2,1.4546984647819,1.5395705171995
"358",9,31,1,2,118,3,2,1,3,0.814488841511893,0.737205430344582
"359",9,28,1,2,119,3,1,0,2,0.705681954789075,0.744081885705048
"360",9,31,1,1,120,1,1,1,4,0.431708567577186,0.550041622507127
"361",9,34,1,2,121,1,1,0,4,0.649997395744501,0.603579375771517
"362",9,26,1,2,122,3,2,1,3,0.701580612161511,0.676051552874139
"363",9,37,1,2,123,1,1,0,4,0.613497562469934,0.528759567666028
"364",9,33,1,1,124,3,1,1,3,0.600689210572479,0.557002645048399
"365",9,38,1,1,125,3,2,0,1,0.755129265052797,0.765575678053845
"366",9,35,1,2,126,3,2,1,3,0.546301647699585,0.607083652057661
"367",9,35,1,1,127,2,2,0,2,0.619643530675943,0.570256351582058
"368",9,31,1,1,128,2,1,1,3,0.598374363071816,0.636937935329606
"369",9,28,1,2,129,2,2,1,3,0.551647120093657,0.548486467983209
"370",9,31,1,1,130,3,1,1,2,0.87947430558278,0.915467428268557
"371",9,34,1,1,131,2,1,1,4,0.570299669226794,0.53914710404723
"372",9,26,1,1,132,1,1,1,5,0.562769790750784,0.584711332691836
"373",9,37,1,2,133,1,2,1,4,0.297375757208761,0.344764447342943
"374",9,33,1,1,134,1,1,1,4,0.337029934723431,0.347010616032072
"375",9,38,1,2,135,2,2,1,3,0.742699154711364,0.728103557225272
"376",9,35,1,2,136,2,2,1,4,0.536127826584313,0.513167216405734
"377",9,35,1,1,137,1,1,1,4,0.407054565433327,0.415963437151993
"378",9,31,1,2,138,1,2,1,4,0.463933776893161,0.505258831749139
"379",9,28,1,2,139,3,2,1,2,1.0156241970873,0.935771724066488
"380",9,31,1,1,140,3,1,1,3,0.573377037322188,0.559126659242116
"381",9,34,1,1,141,1,1,1,5,0.337519253927322,0.335066050194152
"382",9,26,1,1,142,3,2,0,1,1.25914782425969,1.28747465328466
"383",9,37,1,2,143,2,1,0,2,0.630585005465354,0.716231367521507
"384",9,33,1,1,144,2,1,1,4,0.768202165553973,0.79774581511817
"385",9,38,1,2,145,3,2,1,3,0.916718825089287,0.915071570142138
"386",9,35,1,2,146,2,2,1,3,0.86474229299876,0.801298007444564
"387",9,35,1,2,147,1,2,1,4,0.448211098326213,0.466452535736977
"388",9,31,1,2,148,1,2,1,4,0.383804475655562,0.403555421593391
"389",9,28,1,1,149,1,1,1,4,0.51124318504053,0.513514727603791
"390",9,31,1,1,150,1,1,1,4,0.462600924143273,0.50691493990303
"391",9,34,1,1,151,2,1,1,3,0.482289505477094,0.413561843910673
"392",9,26,1,2,152,2,2,1,3,0.561175332943329,0.484221813806773
"393",9,37,1,1,153,2,1,1,3,0.549699935588465,0.611073258390677
"394",9,33,1,1,154,1,1,1,5,0.31672162277429,0.286209220672838
"395",9,38,1,1,155,1,2,0,4,0.439249413356576,0.394139621940065
"396",9,35,1,2,156,1,2,1,4,0.436125133812053,0.525831905320797
"397",9,35,1,2,157,3,1,0,2,0.999791623542008,0.900736157328591
"398",9,31,1,2,158,2,1,0,3,0.517903708259344,0.505096016185889
"399",9,28,1,2,159,1,2,1,5,0.48148145455384,0.485782702772651
"400",9,31,1,2,160,1,2,1,5,0.501460833837673,0.479542671678622
"401",9,34,1,1,161,2,1,1,4,0.759260699245593,0.806551772997719
"402",9,26,1,1,162,3,2,0,1,0.530802036592991,0.587778507844289
"403",9,37,1,1,163,3,1,1,2,0.872461765795082,0.961419995388655
"404",9,33,1,2,164,1,2,1,5,0.473328376009809,0.459523204851169
"405",9,38,1,1,165,2,2,0,3,0.711410048320572,0.669086213815549
"406",9,35,1,2,166,3,2,1,3,0.957297565051239,0.894952997517807
"407",9,35,1,2,167,3,1,0,1,1.04170529169336,0.988713733363606
"408",9,31,1,1,168,2,2,0,3,0.64000721333421,0.566277349447853
"409",9,28,1,1,169,2,1,1,3,0.717831108773983,0.793138305200696
"410",9,31,1,1,170,2,2,0,2,0.905626669670716,0.840119203468582
"411",9,34,1,1,171,1,2,0,4,0.452689274631852,0.523008104612629
"412",9,26,1,1,172,3,2,0,2,1.13564817423351,1.16640995577231
"413",9,37,1,1,173,3,1,1,3,0.985236252134981,0.960576044814165
"414",9,33,1,2,174,1,1,0,4,0.598462708474997,0.517042088292472
"415",9,38,1,1,175,3,2,0,2,1.02365142994281,0.95210867469279
"416",9,35,1,2,176,1,2,1,5,0.364325293841832,0.378064780094404
"417",9,35,1,2,177,2,1,0,3,0.634856605472275,0.746322501433813
"418",9,31,1,1,178,2,1,1,4,0.746062146821659,0.742889187548094
"419",9,28,1,2,179,2,2,1,4,0.494031593375859,0.502578644322391
"420",9,31,1,1,180,2,1,1,4,0.526895036094818,0.49485813988213
"421",9,34,1,1,181,3,1,1,2,0.816532790655948,0.898877207902502
"422",9,26,1,1,182,1,1,1,5,0.405919284377478,0.367829631072895
"423",9,37,1,1,183,2,1,1,4,0.399718441914483,0.361521616066014
"424",9,33,1,2,184,2,2,1,3,0.627242775750349,0.620510110564897
"425",9,38,1,2,185,3,1,0,1,0.50621102135294,0.573740644026891
"426",9,35,1,1,186,1,1,1,4,0.438763456217654,0.343174285139158
"427",9,35,1,2,187,1,2,1,5,0.428912580416428,0.424274201632015
"428",9,31,1,2,188,3,1,0,2,0.917888634064157,0.949261459312654
"429",9,28,1,1,189,1,1,1,4,0.421672764546982,0.440561884314728
"430",9,31,1,1,190,1,2,0,4,0.494584070861175,0.503660335078198
"431",9,34,1,2,191,3,2,1,3,0.760145358568128,0.769133151915433
"432",9,26,1,1,192,2,1,1,3,0.582259512898753,0.618454272630966
"433",9,37,1,1,193,3,1,1,2,0.722333176060388,0.722458562703694
"434",9,33,1,1,194,2,2,0,2,0.662260613392062,0.658419805078426
"435",9,38,1,1,195,1,1,1,4,0.317001467184311,0.364873489138949
"436",9,35,1,1,196,3,1,1,2,0.913572201930913,1.00787607397595
"437",9,35,1,1,197,3,1,1,3,0.490605292264037,0.386168956219064
"438",9,31,1,2,198,3,1,0,2,1.40863882415817,1.39338388101
"439",9,28,1,1,199,2,1,1,4,0.682790758132305,0.729326234914673
"440",9,31,1,2,200,3,1,0,2,0.906702200212268,0.806726483609334
"441",9,34,1,2,201,1,2,1,4,0.301304395883226,0.28775211489179
"442",9,26,1,1,202,3,1,1,2,0.981540086638295,0.997961462449291
"443",9,37,1,2,203,1,2,1,4,0.365085579227053,0.320210663187052
"444",9,33,1,2,204,3,2,1,2,0.928101852720482,0.919201813448145
"445",9,38,1,1,205,1,1,1,5,0.43264667516846,0.428688938902933
"446",9,35,1,2,206,3,1,0,2,0.191600528174509,0.216301219254864
"447",9,35,1,2,207,2,1,0,3,0.650203026376951,0.71733293142608
"448",9,31,1,1,208,3,1,1,2,0.740728686758278,0.706689736346177
"449",9,28,1,2,209,2,2,1,4,0.355884437315666,0.380558966064122
"450",9,31,1,1,210,2,2,0,3,0.7111020443295,0.781783347962159
"451",9,34,1,2,211,1,1,0,3,0.576665678434572,0.540114468081951
"452",9,26,1,1,212,1,1,1,5,0.370821454908997,0.387521483688629
"453",9,37,1,2,213,1,2,1,5,0.46192634299622,0.407161601914307
"454",9,33,1,2,214,2,2,1,3,0.695603964089587,0.625376529184302
"455",9,38,1,2,215,3,2,1,2,0.704623246710269,0.68756779886981
"456",9,35,1,1,216,3,2,0,2,0.860594572943382,0.861507053397322
"457",9,35,1,1,217,2,2,0,2,0.792345594401236,0.818847233364317
"458",9,31,1,2,218,2,2,1,3,0.702267771377838,0.799955320464247
"459",9,28,1,1,219,3,1,1,3,0.83353596435711,0.828826816678607
"460",9,31,1,2,220,1,2,1,5,0.371596186782295,0.427253948258298
"461",9,34,1,1,221,2,1,1,4,0.521027671503374,0.557348599951818
"462",9,26,1,1,222,3,2,0,1,1.3225685491927,1.32764152847076
"463",9,37,1,1,223,2,2,0,3,0.529488130132584,0.575749383973842
"464",9,33,1,1,224,2,1,1,4,0.693647503058273,0.653492062773434
"465",9,38,1,2,225,2,2,1,4,0.709687007719907,0.728948418265778
"466",9,35,1,2,226,3,2,1,3,0.587262975798313,0.507914925842128
"467",9,35,1,1,227,2,1,1,4,0.485230522350918,0.520172754384963
"468",9,31,1,2,228,2,2,1,4,0.528916075876278,0.62308776398085
"469",9,28,1,1,229,1,1,1,5,0.383318192854738,0.362229627239618
"470",9,31,1,1,230,1,1,1,4,0.449742072146827,0.470824772778182
"471",9,34,1,1,231,1,1,1,5,0.397494530842126,0.407443789101906
"472",9,26,1,1,232,2,1,1,3,0.609873700377943,0.677493589840108
"473",9,37,1,2,233,3,1,0,1,0.881010126355324,0.913555479998315
"474",9,33,1,2,234,2,2,1,4,0.530919099809197,0.500679335655257
"475",9,38,1,2,235,3,1,0,1,1.2659872511281,1.24772817516138
"476",9,35,1,1,236,3,2,0,2,1.21972013823692,1.23414623908218
"477",9,35,1,2,237,2,1,0,3,0.560513937361963,0.476075805694323
"478",9,31,1,2,238,3,1,0,2,1.15439608708857,1.09003696235772
"479",9,28,1,2,239,2,2,1,3,0.672361965726496,0.684844607374404
"480",9,31,1,2,240,3,2,1,2,0.935790586754091,1.05002107738576
"481",8,25,2,2,1,1,2,1,5,0.447355194779502,0.435185673387758
"482",8,29,2,1,2,2,1,1,3,0.501894175351073,0.516238061816859
"483",8,36,2,1,3,3,1,1,2,0.647452861696636,0.592442105440995
"484",8,24,2,2,4,1,2,1,5,0.379689013232585,0.36635424851274
"485",8,26,2,1,5,2,1,1,4,0.440398841701087,0.516735792021698
"486",8,24,2,1,6,3,2,0,1,0.507858144242385,0.569484687806798
"487",8,18,2,2,7,2,2,1,4,0.586282917925728,0.621139702024015
"488",8,29,2,2,8,2,2,1,4,0.59791173191676,0.54861238283483
"489",8,26,2,1,9,3,2,0,1,0.925466239206447,0.963302096655656
"490",8,40,2,1,10,3,2,0,1,1.90348341894872,1.90968663720606
"491",8,25,2,1,11,2,2,0,2,0.440279385266187,0.501279546194949
"492",8,29,2,2,12,1,1,0,3,0.606427428726431,0.633454634996147
"493",8,36,2,2,13,2,1,0,2,0.940016981057062,0.924244400451584
"494",8,24,2,1,14,3,2,0,1,1.15845609091502,1.13242203392792
"495",8,26,2,2,15,2,1,0,3,0.728771160439023,0.729343612528954
"496",8,24,2,2,16,2,2,1,4,0.505526127079105,0.495635933903531
"497",8,18,2,2,17,1,2,1,4,0.609194504873378,0.585629961849806
"498",8,29,2,2,18,1,2,1,5,0.389464256162636,0.317284592535981
"499",8,26,2,1,19,3,1,1,3,0.634386775805567,0.654542191424583
"500",8,40,2,2,20,1,2,1,5,0.343922586603336,0.373628665247031
"501",8,25,2,1,21,2,1,1,3,0.531271404261042,0.569478368945902
"502",8,29,2,1,22,2,1,1,3,0.515391163812925,0.516532722371175
"503",8,36,2,2,23,3,2,1,2,0.501261315554868,0.50192544083842
"504",8,24,2,2,24,2,2,1,4,0.585983792493868,0.562715503002204
"505",8,26,2,1,25,3,2,0,1,0.591302884358714,0.616603486543898
"506",8,24,2,1,26,2,2,0,2,0.697668585656101,0.749526605286621
"507",8,18,2,1,27,2,2,0,2,1.01819048161914,0.977482109187783
"508",8,29,2,2,28,3,2,1,2,0.914271410659162,0.83729513290107
"509",8,26,2,1,29,3,2,0,1,0.404019724221067,0.459647999336913
"510",8,40,2,2,30,1,2,1,5,0.356099707289722,0.305452590889567
"511",8,25,2,1,31,2,1,1,4,0.392575217700998,0.370823748098441
"512",8,29,2,2,32,2,2,1,3,0.663137368569141,0.595109020997462
"513",8,36,2,2,33,2,2,1,3,0.625780471045837,0.714882184041426
"514",8,24,2,2,34,1,2,1,4,0.370000890378865,0.329936558432351
"515",8,26,2,1,35,3,1,1,2,0.560253732991497,0.681132782776033
"516",8,24,2,1,36,2,2,0,3,0.778216558124218,0.789820901517849
"517",8,18,2,2,37,3,2,1,3,0.618315022314984,0.676800525366936
"518",8,29,2,1,38,1,1,1,4,0.420333110416713,0.397124556174992
"519",8,26,2,1,39,3,2,0,1,1.37346336545174,1.44286433845982
"520",8,40,2,1,40,1,1,1,4,0.467367553689032,0.506693444097519
"521",8,25,2,1,41,1,1,1,5,0.375926858541547,0.408484300444797
"522",8,29,2,2,42,2,1,0,2,0.931230260225897,0.904361560249584
"523",8,36,2,1,43,2,1,1,3,0.645828099792656,0.646435068072739
"524",8,24,2,2,44,3,2,1,3,0.83556495791918,0.916692926319606
"525",8,26,2,1,45,3,2,0,2,1.23330952003239,1.20438488153527
"526",8,24,2,2,46,2,2,1,4,0.793621487007659,0.716172107517705
"527",8,18,2,1,47,1,1,1,5,0.538220212945384,0.595341866538349
"528",8,29,2,1,48,2,1,1,4,0.652948935351025,0.660017202516517
"529",8,26,2,1,49,2,2,0,3,0.577754105596341,0.549182374910527
"530",8,40,2,1,50,2,1,1,3,0.662617792328292,0.683699714993023
"531",8,25,2,2,51,1,2,1,5,0.537981488509203,0.533207561012038
"532",8,29,2,2,52,1,2,1,5,0.417672991010284,0.438920264691193
"533",8,36,2,1,53,3,2,0,2,1.72443428044018,1.7677133229947
"534",8,24,2,2,54,1,2,1,5,0.341813683850917,0.357291610616741
"535",8,26,2,2,55,2,1,0,3,0.561714867482602,0.512762847227437
"536",8,24,2,1,56,2,1,1,3,0.613266042360486,0.540178250490268
"537",8,18,2,1,57,3,2,0,1,0.940270815884429,1.02240999721771
"538",8,29,2,1,58,2,1,1,3,0.626635398847689,0.644564911138921
"539",8,26,2,2,59,1,1,0,3,0.438802112489629,0.407328381789253
"540",8,40,2,1,60,2,1,1,3,0.475939806738888,0.5089102571859
"541",8,25,2,2,61,2,1,0,2,0.745232839267564,0.770086094417666
"542",8,29,2,2,62,2,2,1,3,0.477791066070191,0.494921650810822
"543",8,36,2,1,63,3,1,1,3,1.14362683625875,1.11529035299409
"544",8,24,2,1,64,3,1,1,3,0.502394023750084,0.546437420372125
"545",8,26,2,2,65,2,1,0,3,0.668902154524443,0.657183344844729
"546",8,24,2,1,66,3,1,1,2,0.813767838472413,0.773963163562223
"547",8,18,2,2,67,2,2,1,3,0.490908454812801,0.452311344176246
"548",8,29,2,2,68,1,1,0,3,0.544736154736409,0.715964230443846
"549",8,26,2,1,69,3,1,1,2,0.677158445124841,0.676195760127592
"550",8,40,2,1,70,2,1,1,4,0.709374420607403,0.818011174804222
"551",8,25,2,2,71,3,1,0,2,1.3301435073135,1.38847035126371
"552",8,29,2,1,72,1,1,1,4,0.506180139815885,0.536246552633793
"553",8,36,2,1,73,3,2,0,2,1.97960907189574,1.99394748599309
"554",8,24,2,2,74,3,2,1,3,0.825169436477175,0.74101155037829
"555",8,26,2,2,75,1,2,1,4,0.588609329923316,0.606936558671978
"556",8,24,2,1,76,3,1,1,2,0.709057722076699,0.70255148475462
"557",8,18,2,1,77,3,2,0,2,1.22170140714539,1.16935524331636
"558",8,29,2,2,78,3,1,0,1,0.907762354232288,0.95869229558043
"559",8,26,2,1,79,3,2,0,1,0.282113766633115,0.240344862749923
"560",8,40,2,2,80,1,2,1,4,0.468504582113313,0.445847751261371
"561",8,25,2,2,81,3,2,1,3,0.834278921942316,0.815154107830798
"562",8,29,2,2,82,1,1,0,4,0.461626227542265,0.48143477771817
"563",8,36,2,2,83,3,1,0,1,1.29242293962277,1.34585532767705
"564",8,24,2,2,84,1,1,0,3,0.509122407319641,0.521160712398566
"565",8,26,2,1,85,3,1,1,3,0.893970410229266,0.989391721241342
"566",8,24,2,2,86,2,2,1,3,0.616920604521232,0.641896111171976
"567",8,18,2,2,87,2,2,1,3,0.503102296855253,0.55321834228968
"568",8,29,2,2,88,3,1,0,2,0.458857111277517,0.45876244097127
"569",8,26,2,1,89,2,2,0,2,0.49311288016718,0.488690576125992
"570",8,40,2,1,90,3,2,0,2,0.500256954113519,0.48772183341016
"571",8,25,2,1,91,1,1,1,5,0.401089082858463,0.382067144866102
"572",8,29,2,1,92,1,1,1,5,0.43565686757108,0.442679778842227
"573",8,36,2,2,93,1,2,1,5,0.355273785584596,0.400623034037569
"574",8,24,2,1,94,3,2,0,1,1.01424639867563,0.999312981883384
"575",8,26,2,1,95,2,1,1,4,0.59414771269608,0.567317814810201
"576",8,24,2,1,96,1,1,1,4,0.459464116397264,0.499451758124037
"577",8,18,2,2,97,3,2,1,2,0.82701209743223,0.86185283489994
"578",8,29,2,2,98,1,2,1,4,0.4328353025597,0.311304593619222
"579",8,26,2,2,99,1,2,1,5,0.442978319583477,0.328655507659121
"580",8,40,2,1,100,1,1,1,5,0.400902101677776,0.431826775490472
"581",8,25,2,2,101,2,2,1,4,0.597817572440092,0.633631168558085
"582",8,29,2,2,102,2,2,1,4,0.53294080474654,0.548455447333106
"583",8,36,2,2,103,2,2,1,4,0.529446958373694,0.544284551838894
"584",8,24,2,2,104,3,1,0,2,1.5132675889515,1.38133741361564
"585",8,26,2,2,105,1,2,1,4,0.365147543180565,0.401314259673055
"586",8,24,2,2,106,3,1,0,1,1.35330739389971,1.39177303367817
"587",8,18,2,1,107,3,1,1,2,1.16115892065534,1.12829813638141
"588",8,29,2,1,108,1,1,1,5,0.256090698852642,0.356669234437719
"589",8,26,2,1,109,2,2,0,2,0.756362607780273,0.709991880822487
"590",8,40,2,1,110,1,1,1,4,0.412619210013442,0.401265410688075
"591",8,25,2,2,111,3,2,1,3,0.971267672761889,0.923833197811246
"592",8,29,2,1,112,1,1,1,4,0.46836413482391,0.485082172881049
"593",8,36,2,2,113,2,2,1,3,0.359288041558526,0.403652303879073
"594",8,24,2,1,114,2,2,0,3,0.555571497294243,0.589298266544882
"595",8,26,2,1,115,2,1,1,4,0.543177639934075,0.588460879734583
"596",8,24,2,2,116,2,2,1,4,0.638066180369477,0.632988882495356
"597",8,18,2,1,117,1,2,0,3,0.497506037598912,0.432552699954712
"598",8,29,2,1,118,3,1,1,2,0.87991562039797,0.92515534693274
"599",8,26,2,2,119,3,2,1,2,0.874181782921385,0.831507969735616
"600",8,40,2,1,120,1,1,1,5,0.31570163790316,0.168116344813977
"601",8,25,2,1,121,1,1,1,4,0.394022411448637,0.400591506492161
"602",8,29,2,2,122,3,1,0,2,1.17392461834834,1.27096286299174
"603",8,36,2,2,123,1,2,1,5,0.523534560382486,0.547167756403458
"604",8,24,2,2,124,2,2,1,4,0.86091730371759,0.930073663752056
"605",8,26,2,1,125,1,1,1,5,0.411068815572306,0.419782912587058
"606",8,24,2,1,126,3,2,0,1,0.887802504376871,0.886481043942604
"607",8,18,2,2,127,3,2,1,3,1.02433981807411,1.08018493951372
"608",8,29,2,2,128,1,2,1,5,0.475778060765422,0.562998155228529
"609",8,26,2,2,129,1,2,1,4,0.347368094439281,0.317357595392851
"610",8,40,2,2,130,1,2,1,4,0.287065759343853,0.295975111896649
"611",8,25,2,2,131,3,2,1,2,0.895962084965728,0.938338480403261
"612",8,29,2,2,132,1,2,1,4,0.354112656052486,0.363234661445691
"613",8,36,2,2,133,2,2,1,4,0.70030157364186,0.75454848877776
"614",8,24,2,2,134,2,2,1,3,0.605933624120547,0.590104993251656
"615",8,26,2,2,135,2,2,1,4,0.302651889480622,0.325030773295859
"616",8,24,2,2,136,1,2,1,4,0.34781450732564,0.330988503268593
"617",8,18,2,2,137,1,2,1,4,0.514399829560869,0.42485385084177
"618",8,29,2,1,138,1,1,1,5,0.344054852683698,0.281979895189459
"619",8,26,2,1,139,1,1,1,4,0.430323792696465,0.553643420027153
"620",8,40,2,2,140,1,2,1,4,0.24585815505533,0.28401203313301
"621",8,25,2,2,141,3,2,1,3,1.02230704438542,0.9652435558593
"622",8,29,2,1,142,2,1,1,3,0.503081495025328,0.55273369142125
"623",8,36,2,2,143,1,2,1,4,0.426939213641537,0.368730548093955
"624",8,24,2,1,144,1,2,0,3,0.550970083133601,0.498100568783377
"625",8,26,2,2,145,2,1,0,2,0.778759023486518,0.731357822138392
"626",8,24,2,1,146,3,1,1,2,0.948321740069682,1.00707855864207
"627",8,18,2,1,147,2,1,1,3,0.631777080961858,0.77019084529959
"628",8,29,2,2,148,1,1,0,4,0.569959569417338,0.590373550446681
"629",8,26,2,2,149,1,2,1,5,0.357874567308009,0.401679770823211
"630",8,40,2,1,150,3,2,0,2,0.652871271783723,0.709031017862734
"631",8,25,2,1,151,3,1,1,2,0.887189943111652,0.921650168076909
"632",8,29,2,1,152,1,1,1,5,0.378930293629456,0.288081551508042
"633",8,36,2,2,153,1,2,1,4,0.358849520361469,0.383008420467066
"634",8,24,2,1,154,1,1,1,5,0.280694341849357,0.262692403226558
"635",8,26,2,1,155,3,1,1,2,0.403951765400643,0.509558823571452
"636",8,24,2,1,156,2,1,1,4,0.552467883964853,0.581720305847251
"637",8,18,2,1,157,1,1,1,4,0.503838043382249,0.589007776995276
"638",8,29,2,1,158,2,1,1,4,0.600187445909798,0.582608426554717
"639",8,26,2,2,159,2,1,0,3,0.747928385422762,0.794444248795817
"640",8,40,2,2,160,1,1,0,4,0.751403105753448,0.771222384018085
"641",8,25,2,2,161,2,1,0,3,0.588318368857612,0.596560737163674
"642",8,29,2,1,162,1,1,1,4,0.351857134361,0.282991426968115
"643",8,36,2,2,163,2,1,0,3,0.826553722772596,0.842398269416401
"644",8,24,2,1,164,3,2,0,2,0.703875453200761,0.710478527309166
"645",8,26,2,2,165,1,2,1,4,0.458629480525408,0.466056256109116
"646",8,24,2,2,166,3,1,0,2,0.960480332525888,0.957390342027986
"647",8,18,2,1,167,3,2,0,1,1.28472746649312,1.25933094783912
"648",8,29,2,1,168,2,2,0,3,1.03623817707491,1.0718262864028
"649",8,26,2,1,169,2,1,1,4,0.593149032163002,0.50690224915934
"650",8,40,2,1,170,1,2,0,4,0.390339307746261,0.411736773220502
"651",8,25,2,2,171,3,2,1,3,1.04545730994697,0.943774276875753
"652",8,29,2,1,172,1,1,1,4,0.464869867524482,0.410193376568058
"653",8,36,2,2,173,2,1,0,3,0.703857723416131,0.773571321717561
"654",8,24,2,2,174,2,2,1,3,0.593533706651842,0.685640378448827
"655",8,26,2,1,175,1,2,0,4,0.623774967129582,0.689882954911253
"656",8,24,2,2,176,3,2,1,3,0.737379619705466,0.741862412896906
"657",8,18,2,1,177,3,1,1,3,0.901190757952735,0.896443442203246
"658",8,29,2,1,178,2,2,0,3,0.796517349116661,0.76736538565063
"659",8,26,2,1,179,1,1,1,5,0.360764788799683,0.401787525464603
"660",8,40,2,1,180,2,1,1,4,0.646336100387512,0.738331867707778
"661",8,25,2,1,181,2,2,0,3,0.76626481341667,0.756142075254816
"662",8,29,2,2,182,3,2,1,3,0.452443419502724,0.397304338044458
"663",8,36,2,1,183,3,2,0,1,0.829503378246545,0.847642030429694
"664",8,24,2,1,184,2,1,1,3,0.726423660073513,0.743379452664702
"665",8,26,2,1,185,1,1,1,5,0.380291936211686,0.444922963493648
"666",8,24,2,1,186,2,1,1,3,0.536559477647242,0.474633825717097
"667",8,18,2,1,187,2,2,0,3,0.741078838657062,0.710424009004013
"668",8,29,2,2,188,2,2,1,4,0.698992269052947,0.633704801752729
"669",8,26,2,2,189,3,1,0,2,1.09209211696707,1.01295618323555
"670",8,40,2,1,190,1,1,1,5,0.373334204823981,0.488108882586822
"671",8,25,2,2,191,3,2,1,3,0.910860539305415,0.887590201943453
"672",8,29,2,1,192,2,2,0,3,0.584202660013638,0.572847394307756
"673",8,36,2,1,193,2,2,0,3,0.815872487021943,0.838893448390328
"674",8,24,2,2,194,3,1,0,1,0.922270863242305,0.931206048448566
"675",8,26,2,2,195,3,2,1,3,0.89945450214336,0.831198749629082
"676",8,24,2,1,196,1,2,0,3,0.583738659076814,0.670310179468915
"677",8,18,2,2,197,1,2,1,4,0.457734033136205,0.468394448601428
"678",8,29,2,2,198,2,2,1,4,0.241765441474859,0.368911756060693
"679",8,26,2,2,199,1,2,1,5,0.253145003344356,0.255130458849931
"680",8,40,2,1,200,3,1,1,2,0.95894313498766,0.922782458801335
"681",8,25,2,1,201,1,1,1,5,0.262651284205141,0.304026052098582
"682",8,29,2,1,202,1,2,0,4,0.584684035312062,0.579890622298879
"683",8,36,2,1,203,3,2,0,1,0.749017606611517,0.836206082759988
"684",8,24,2,2,204,3,1,0,1,0.908956853968664,0.888703279702688
"685",8,26,2,1,205,3,2,0,1,1.39303355243112,1.44470510011941
"686",8,24,2,1,206,2,1,1,3,0.434174862026252,0.505845800784392
"687",8,18,2,2,207,1,2,1,4,0.4264980020802,0.348494221829439
"688",8,29,2,1,208,3,2,0,1,0.90947100472802,0.922368326046569
"689",8,26,2,2,209,3,2,1,3,0.889718272686289,0.896463269155504
"690",8,40,2,1,210,1,1,1,4,0.496054449349722,0.617353617860125
"691",8,25,2,2,211,1,2,1,5,0.489153105423598,0.488718828550249
"692",8,29,2,2,212,1,2,1,5,0.44367119947944,0.364817574924628
"693",8,36,2,2,213,2,2,1,4,0.646847203008385,0.701295594412305
"694",8,24,2,1,214,1,1,1,5,0.310344862165222,0.327772087008449
"695",8,26,2,1,215,1,1,1,5,0.350085749160311,0.334046159754821
"696",8,24,2,2,216,2,2,1,4,0.688788572894213,0.753663917563623
"697",8,18,2,2,217,3,1,0,1,0.831883791819577,0.808211692163294
"698",8,29,2,2,218,1,2,1,4,0.370232265475411,0.394194067957408
"699",8,26,2,2,219,1,2,1,5,0.44597139465753,0.456172949523269
"700",8,40,2,1,220,3,1,1,2,0.754884870583915,0.691100857237437
"701",8,25,2,1,221,3,2,0,1,0.830134013725719,0.764657545579487
"702",8,29,2,2,222,3,2,1,3,0.792882722055749,0.817524777278109
"703",8,36,2,2,223,2,1,0,2,0.782709486272879,0.85030447082542
"704",8,24,2,1,224,3,2,0,2,0.804243582173378,0.792082525188879
"705",8,26,2,2,225,3,2,1,2,0.648750525323384,0.543744354763841
"706",8,24,2,2,226,3,1,0,2,1.02080584395785,1.0524776701755
"707",8,18,2,2,227,3,1,0,1,1.08794619077527,1.09570021355003
"708",8,29,2,2,228,3,2,1,2,0.883074155591711,0.930873681638643
"709",8,26,2,1,229,1,1,1,4,0.267201373863107,0.238718760352165
"710",8,40,2,2,230,1,2,1,4,0.517153923700359,0.51766754664645
"711",8,25,2,1,231,3,2,0,1,0.455068172775007,0.470378214230881
"712",8,29,2,2,232,3,1,0,2,1.28697939764584,1.34480042068096
"713",8,36,2,2,233,2,1,0,3,0.519746987257192,0.50238489932429
"714",8,24,2,2,234,3,2,1,3,1.17362731134724,1.1694813280487
"715",8,26,2,2,235,2,1,0,2,0.748763001107284,0.830237840534248
"716",8,24,2,2,236,2,2,1,4,0.474182219402259,0.484105342483068
"717",8,18,2,1,237,2,1,1,3,0.606255362385484,0.590805057534723
"718",8,29,2,1,238,1,1,1,5,0.398876476460736,0.322088872390726
"719",8,26,2,1,239,2,2,0,3,0.618727004670933,0.612732827109044
"720",8,40,2,1,240,2,1,1,3,0.699108663874083,0.742009985071085
"721",7,25,1,2,1,1,1,0,3,0.674650458103023,0.645068596139425
"722",7,21,1,2,2,2,1,0,3,0.916274799446267,0.762510583941606
"723",7,22,1,1,3,3,2,0,2,0.0624557059715228,-0.00741029133811043
"724",7,38,1,2,4,3,2,1,2,0.689730641844946,0.699724898262371
"725",7,22,1,1,5,2,1,1,3,0.464209125582957,0.445170750878776
"726",7,20,1,1,6,1,1,1,5,0.284664030004402,0.399888287507002
"727",7,30,1,1,7,3,1,1,2,0.855944494282443,0.851111562023323
"728",7,23,1,1,8,1,2,0,3,0.623112658175899,0.635993464306322
"729",7,34,1,1,9,3,2,0,1,1.14308313534451,1.15046806903497
"730",7,38,1,1,10,2,2,0,3,0.86749416466,0.852645712306647
"731",7,25,1,1,11,2,2,0,2,0.784130290381065,0.766092042588847
"732",7,21,1,2,12,1,2,1,5,0.261133739594462,0.223997629025206
"733",7,22,1,2,13,2,2,1,3,0.439994888125023,0.482015531023103
"734",7,38,1,1,14,2,1,1,4,0.399728115725416,0.362835930838332
"735",7,22,1,2,15,1,2,1,5,0.396950046806984,0.485116607496365
"736",7,20,1,2,16,3,2,1,2,0.554418679354026,0.573238304822605
"737",7,30,1,1,17,1,1,1,4,0.424498106377637,0.281304700998199
"738",7,23,1,2,18,1,2,1,5,0.32034541763552,0.294030489004784
"739",7,34,1,2,19,1,2,1,4,0.333367760246219,0.207806385997952
"740",7,38,1,1,20,1,1,1,5,0.481830844069339,0.483921132072852
"741",7,25,1,1,21,2,1,1,3,0.771287089795918,0.760823947094857
"742",7,21,1,1,22,3,2,0,1,0.761564456725552,0.764697158849615
"743",7,22,1,2,23,3,2,1,2,0.653426120457971,0.684967240510888
"744",7,38,1,2,24,3,1,0,2,0.995083498678059,0.948393101092202
"745",7,22,1,2,25,3,2,1,2,0.818692823341687,0.758047216163279
"746",7,20,1,2,26,2,1,0,3,0.946919376458828,0.968258578764756
"747",7,30,1,1,27,1,2,0,4,0.448100321256458,0.431713238174332
"748",7,23,1,2,28,2,1,0,2,0.611252780776858,0.573302622106388
"749",7,34,1,1,29,1,1,1,5,0.327166064690082,0.254607772167632
"750",7,38,1,2,30,3,1,0,2,0.243958212888956,0.303219396348172
"751",7,25,1,2,31,1,2,1,4,0.378579470468459,0.358525156421181
"752",7,21,1,1,32,1,1,1,4,0.390083328825271,0.426070319315555
"753",7,22,1,2,33,2,2,1,3,0.556220715301603,0.640741495496265
"754",7,38,1,2,34,3,1,0,2,1.35495043382481,1.47701139698025
"755",7,22,1,1,35,2,1,1,3,0.420013607935369,0.321696742404489
"756",7,20,1,2,36,1,1,0,4,0.559307967802981,0.626073536919545
"757",7,30,1,1,37,2,2,0,2,0.79898868351116,0.757655541994363
"758",7,23,1,2,38,1,1,0,4,0.665733269855283,0.711233055559598
"759",7,34,1,2,39,1,1,0,4,0.464949646187919,0.511579456205086
"760",7,38,1,2,40,1,2,1,4,0.301217628090768,0.286323196904582
"761",7,25,1,2,41,3,2,1,3,0.481867424188238,0.467033502520218
"762",7,21,1,1,42,3,1,1,3,0.631571680126034,0.667636760880477
"763",7,22,1,2,43,1,1,0,3,0.581588000297861,0.537150614828939
"764",7,38,1,2,44,1,1,0,4,0.6781934354922,0.649792231760399
"765",7,22,1,2,45,1,2,1,5,0.466136158759821,0.533989026349033
"766",7,20,1,1,46,2,1,1,3,0.680896128570058,0.633062675326708
"767",7,30,1,2,47,3,2,1,3,1.13031920384238,1.16168218938566
"768",7,23,1,2,48,3,1,0,1,0.331632073766928,0.359002654657561
"769",7,34,1,2,49,3,1,0,2,0.802556986214027,0.762135082690003
"770",7,38,1,1,50,2,1,1,4,0.732660904280798,0.794137594934271
"771",7,25,1,2,51,2,2,1,3,0.569815442830982,0.550745673064276
"772",7,21,1,2,52,1,2,1,4,0.447117046895566,0.404497429402499
"773",7,22,1,1,53,2,2,0,3,0.766982496920935,0.837193198018442
"774",7,38,1,2,54,3,2,1,2,0.635359375758455,0.695615815096305
"775",7,22,1,2,55,1,1,0,3,0.5222231689731,0.504881067620147
"776",7,20,1,1,56,1,1,1,4,0.405552329986564,0.42934549887652
"777",7,30,1,2,57,1,2,1,5,0.362950215378816,0.33745166649269
"778",7,23,1,2,58,2,1,0,3,0.600840597358612,0.664484807555078
"779",7,34,1,2,59,2,2,1,3,0.669780585134789,0.667577413411896
"780",7,38,1,1,60,2,2,0,2,0.650495944117157,0.683135782390837
"781",7,25,1,2,61,2,2,1,3,0.47065187066312,0.433070785437801
"782",7,21,1,1,62,1,2,0,3,0.602755315886537,0.598279067256206
"783",7,22,1,2,63,2,1,0,2,0.644218599078207,0.607003412426859
"784",7,38,1,1,64,3,1,1,3,0.724633118956832,0.710457835120469
"785",7,22,1,1,65,2,2,0,2,0.726527818921799,0.715465331357481
"786",7,20,1,1,66,1,1,1,4,0.487249548960601,0.483323714111301
"787",7,30,1,1,67,3,1,1,2,0.441027905685045,0.518543417219971
"788",7,23,1,2,68,3,2,1,2,0.728108957129379,0.755090696081553
"789",7,34,1,1,69,1,1,1,5,0.338055373199081,0.314039164463541
"790",7,38,1,2,70,1,2,1,5,0.413247615307163,0.451445118763215
"791",7,25,1,1,71,1,1,1,5,0.310339913637503,0.225809461676489
"792",7,21,1,1,72,3,2,0,1,1.17430250186025,1.19941226493685
"793",7,22,1,2,73,1,2,1,4,0.536911185675625,0.608273442181405
"794",7,38,1,2,74,2,2,1,3,0.578497278461932,0.584708484273798
"795",7,22,1,2,75,2,2,1,3,0.571440921123179,0.535818601798256
"796",7,20,1,1,76,1,1,1,4,0.43119413492136,0.404848241050777
"797",7,30,1,2,77,2,1,0,2,0.656133979858573,0.694013131352183
"798",7,23,1,1,78,1,1,1,4,0.334798425430192,0.343890974103865
"799",7,34,1,2,79,3,2,1,2,0.776770976406359,0.813890139439292
"800",7,38,1,1,80,2,1,1,3,0.751048551153987,0.823546379757735
"801",7,25,1,1,81,2,2,0,3,0.474077967869436,0.466377610495686
"802",7,21,1,2,82,1,2,1,4,0.242436821229565,0.312245747678687
"803",7,22,1,1,83,1,1,1,5,0.533781239265837,0.567819083725817
"804",7,38,1,2,84,1,2,1,5,0.325067415906203,0.379165573789141
"805",7,22,1,1,85,1,1,1,5,0.316063226797277,0.361469154190755
"806",7,20,1,2,86,2,1,0,2,1.04530508646229,1.16748199617339
"807",7,30,1,2,87,2,2,1,4,0.4382726225257,0.463587726256194
"808",7,23,1,1,88,3,1,1,2,0.572627658837634,0.529383015675468
"809",7,34,1,2,89,3,2,1,3,0.681595673025845,0.698992546243298
"810",7,38,1,1,90,1,1,1,5,0.354415418799224,0.407490601360792
"811",7,25,1,2,91,2,1,0,2,0.812400831537665,0.857265903060796
"812",7,21,1,1,92,3,1,1,3,0.686359427792364,0.656207430030201
"813",7,22,1,2,93,3,1,0,2,0.15170333985423,0.0918797922070946
"814",7,38,1,1,94,1,2,0,4,0.575504864012776,0.563910705710836
"815",7,22,1,2,95,1,2,1,5,0.289951030107781,0.223322985056512
"816",7,20,1,2,96,3,2,1,3,0.833300312935575,0.80028901912214
"817",7,30,1,2,97,2,2,1,3,0.439216167791632,0.433600168874637
"818",7,23,1,1,98,3,1,1,3,0.742685288965402,0.697032258391113
"819",7,34,1,2,99,2,1,0,3,0.732121887935091,0.718727772479267
"820",7,38,1,2,100,1,2,1,4,0.345714503398856,0.39193141320494
"821",7,25,1,1,101,1,2,0,3,0.305866668374236,0.423957481299695
"822",7,21,1,1,102,3,1,1,3,0.628992525535681,0.650524838863734
"823",7,22,1,1,103,3,1,1,2,1.160340144804,1.09997542263886
"824",7,38,1,1,104,2,1,1,4,0.577618402370791,0.642109303869155
"825",7,22,1,2,105,3,1,0,1,0.825178938947426,0.875616147760141
"826",7,20,1,2,106,3,2,1,3,0.881115966030917,0.845333557283028
"827",7,30,1,1,107,3,2,0,1,1.1576975838784,1.13114766532604
"828",7,23,1,1,108,1,1,1,5,0.213289473179679,0.165985420474523
"829",7,34,1,1,109,2,2,0,2,0.804785811677614,0.722917503944125
"830",7,38,1,1,110,3,1,1,2,0.814613937065962,0.786195879768899
"831",7,25,1,1,111,1,1,1,4,0.507021624897344,0.41635280219521
"832",7,21,1,2,112,2,2,1,3,0.719321259817653,0.63230933980253
"833",7,22,1,2,113,3,2,1,2,0.644755431008049,0.630709070677889
"834",7,38,1,1,114,2,2,0,3,0.31536716050409,0.324505600749596
"835",7,22,1,1,115,1,1,1,4,0.299399410170708,0.328279912438657
"836",7,20,1,1,116,2,1,1,4,0.7346051131986,0.807934338591005
"837",7,30,1,1,117,3,2,0,2,0.612609622122194,0.622538974912277
"838",7,23,1,2,118,2,2,1,3,0.735338664340817,0.718134372700205
"839",7,34,1,1,119,2,1,1,3,0.839752251022365,0.95452948507065
"840",7,38,1,1,120,3,1,1,2,0.8560930270758,0.738931762369834
"841",7,25,1,1,121,3,2,0,2,1.33874226884531,1.32337606568881
"842",7,21,1,1,122,1,2,0,3,0.651064628292485,0.609407149692492
"843",7,22,1,1,123,2,1,1,4,0.388180027359731,0.390690546492851
"844",7,38,1,2,124,3,1,0,1,1.15764177067523,1.12960856048511
"845",7,22,1,1,125,2,1,1,4,0.629401029627519,0.643900379121075
"846",7,20,1,2,126,1,2,1,5,0.477276504407721,0.597715297052618
"847",7,30,1,1,127,1,2,0,3,0.546351936927193,0.592551476030684
"848",7,23,1,1,128,2,1,1,3,0.364785447897512,0.330779134597521
"849",7,34,1,1,129,1,1,1,4,0.454245692988195,0.400541582284736
"850",7,38,1,2,130,2,2,1,3,0.374936684750078,0.321493738176158
"851",7,25,1,2,131,2,2,1,4,0.739834532501929,0.819473623182179
"852",7,21,1,2,132,1,2,1,5,0.380024009707388,0.421852513075666
"853",7,22,1,2,133,3,1,0,1,1.38214467825374,1.44793396773953
"854",7,38,1,2,134,3,1,0,1,1.07047526756401,1.08857506912023
"855",7,22,1,1,135,3,1,1,3,0.512800764313409,0.572766371574754
"856",7,20,1,2,136,2,2,1,4,0.696111386875759,0.685928094326058
"857",7,30,1,1,137,1,1,1,5,0.48968271412239,0.486219088404638
"858",7,23,1,1,138,3,2,0,2,0.987144930095319,0.95248977787121
"859",7,34,1,2,139,3,2,1,2,1.20573078853536,1.09563593479239
"860",7,38,1,1,140,2,2,0,2,0.826040031199273,0.837593444302384
"861",7,25,1,1,141,2,2,0,2,0.748471891108322,0.875313417698756
"862",7,21,1,1,142,3,1,1,2,0.923124806547839,0.959469239929275
"863",7,22,1,2,143,2,1,0,2,0.731387101104778,0.665140293504617
"864",7,38,1,1,144,2,2,0,3,0.83001738672561,0.864388145219854
"865",7,22,1,2,145,2,1,0,2,0.917892124785743,0.999287460687053
"866",7,20,1,1,146,1,1,1,5,0.342805812726156,0.308802923187508
"867",7,30,1,2,147,3,2,1,2,0.553106343996507,0.505324031866102
"868",7,23,1,2,148,1,2,1,4,0.397798761396958,0.421412069601875
"869",7,34,1,1,149,1,1,1,4,0.467532372394586,0.500400382622096
"870",7,38,1,1,150,1,1,1,5,0.458992494007152,0.364332474452517
"871",7,25,1,1,151,2,2,0,2,0.775673436526688,0.822787783162154
"872",7,21,1,1,152,3,1,1,3,0.777694705932389,0.79286991898705
"873",7,22,1,2,153,2,2,1,3,0.672721930905124,0.615258306912913
"874",7,38,1,2,154,1,2,1,4,0.585794896980498,0.644977184263603
"875",7,22,1,1,155,1,1,1,4,0.310507343858544,0.32525691857018
"876",7,20,1,1,156,2,2,0,3,0.936188199598686,0.869546918030806
"877",7,30,1,2,157,3,2,1,3,0.551684646815696,0.488448094328052
"878",7,23,1,1,158,2,1,1,3,0.44122143251311,0.366217265176581
"879",7,34,1,2,159,3,2,1,2,0.819517765144173,0.789758172286399
"880",7,38,1,2,160,2,2,1,4,0.523331346602372,0.542181303774069
"881",7,25,1,2,161,3,1,0,2,0.900733816982342,0.812153034232418
"882",7,21,1,1,162,1,1,1,5,0.448456487461028,0.524049510329138
"883",7,22,1,2,163,3,1,0,2,0.80409465496503,0.830689922497077
"884",7,38,1,1,164,1,1,1,4,0.613234288962199,0.611086463407448
"885",7,22,1,2,165,1,2,1,5,0.29764857284194,0.219641136503351
"886",7,20,1,1,166,3,2,0,2,1.43366848873477,1.41338598611865
"887",7,30,1,2,167,2,2,1,4,0.576150143780315,0.598874181410908
"888",7,23,1,1,168,3,2,0,1,0.874867983117073,0.914822103455419
"889",7,34,1,1,169,3,2,0,1,1.44163760654005,1.47845107153999
"890",7,38,1,1,170,3,1,1,3,0.908617638291351,0.903686327465632
"891",7,25,1,1,171,1,1,1,5,0.361852744541636,0.385131954368915
"892",7,21,1,2,172,3,1,0,2,0.424506636540621,0.39852688142267
"893",7,22,1,1,173,2,2,0,3,0.746972245551078,0.708838627476885
"894",7,38,1,2,174,3,1,0,1,0.790907927688731,0.868803776735422
"895",7,22,1,2,175,2,1,0,3,0.847881365329221,0.867370289663942
"896",7,20,1,2,176,2,1,0,2,0.496602464660703,0.573134405171118
"897",7,30,1,2,177,2,1,0,2,0.773872839237303,0.738997114830181
"898",7,23,1,2,178,2,2,1,3,0.561585492595319,0.539915070252142
"899",7,34,1,2,179,2,2,1,4,0.501607077064995,0.496967475604465
"900",7,38,1,1,180,1,1,1,4,0.196522587229628,0.19520355613541
"901",7,25,1,1,181,3,2,0,2,0.292915676546289,0.416471073937938
"902",7,21,1,2,182,1,2,1,5,0.319391525878821,0.354647910008052
"903",7,22,1,1,183,2,1,1,4,0.674367438532311,0.689450522494962
"904",7,38,1,2,184,2,1,0,2,0.936611659043285,0.936382614572259
"905",7,22,1,1,185,1,1,1,4,0.391467539030302,0.410591385445709
"906",7,20,1,2,186,3,1,0,1,1.16006773691083,1.08906040880224
"907",7,30,1,2,187,2,1,0,2,0.654837927010579,0.700757100271664
"908",7,23,1,2,188,1,2,1,4,0.512468749391711,0.492388005264325
"909",7,34,1,1,189,3,2,0,1,0.473272280600756,0.550723075327385
"910",7,38,1,1,190,1,2,0,4,0.606211854036751,0.575922292251895
"911",7,25,1,2,191,2,1,0,3,0.590642534514672,0.518755353950525
"912",7,21,1,2,192,3,2,1,2,0.930677812196044,0.897453690500463
"913",7,22,1,1,193,2,1,1,3,0.682786574822486,0.754033901746185
"914",7,38,1,1,194,3,2,0,1,0.226503703503033,0.197338245115367
"915",7,22,1,2,195,1,2,1,5,0.365526363755487,0.332914280795507
"916",7,20,1,1,196,1,1,1,4,0.371480475153065,0.342339641771127
"917",7,30,1,2,197,3,2,1,2,1.12775052231653,1.03420502795069
"918",7,23,1,1,198,2,2,0,2,0.747477862117827,0.740899529152541
"919",7,34,1,2,199,2,2,1,3,0.614723751071252,0.664671001026683
"920",7,38,1,1,200,3,1,1,3,0.725905101322914,0.732997981869746
"921",7,25,1,2,201,3,1,0,1,0.633660479885451,0.648313324246342
"922",7,21,1,1,202,3,1,1,3,0.89629703019587,0.962042786495204
"923",7,22,1,2,203,3,2,1,3,0.748963155813985,0.734195951875163
"924",7,38,1,2,204,1,2,1,4,0.531483923845755,0.499619505217745
"925",7,22,1,1,205,1,2,0,4,0.597655789379961,0.659530826996598
"926",7,20,1,1,206,1,1,1,4,0.488658201554566,0.535214172217377
"927",7,30,1,1,207,2,2,0,3,0.636942200393932,0.620734682690851
"928",7,23,1,1,208,3,1,1,3,0.919457969538909,0.92678611433242
"929",7,34,1,2,209,1,2,1,5,0.516661407787501,0.48325569953602
"930",7,38,1,2,210,2,1,0,2,0.687427969135949,0.711436025640128
"931",7,25,1,1,211,1,1,1,5,0.438656561961984,0.386430623848352
"932",7,21,1,1,212,3,1,1,3,0.968708035275454,0.970696825630793
"933",7,22,1,2,213,3,2,1,3,0.854068094148,0.880099332652271
"934",7,38,1,1,214,1,1,1,5,0.240353673714328,0.344282743227491
"935",7,22,1,2,215,3,2,1,2,0.792811898323255,0.783237892301217
"936",7,20,1,2,216,1,2,1,5,0.380879146255859,0.443908732437065
"937",7,30,1,1,217,2,2,0,2,0.528734860477335,0.524480817960954
"938",7,23,1,1,218,3,1,1,3,0.890035331775893,0.798477381675919
"939",7,34,1,1,219,2,2,0,3,0.766936624375546,0.699385574742822
"940",7,38,1,1,220,1,2,0,3,0.524197975138216,0.628640999344404
"941",7,25,1,2,221,3,1,0,1,1.110918590716,1.13391623546772
"942",7,21,1,1,222,3,1,1,3,0.749207974389297,0.811812669130632
"943",7,22,1,1,223,3,1,1,3,0.980711778659274,0.930324851234409
"944",7,38,1,2,224,2,1,0,2,0.59429059490441,0.623904254364259
"945",7,22,1,1,225,3,2,0,2,1.77343222443418,1.78038416851246
"946",7,20,1,2,226,2,1,0,3,0.556373821493325,0.548181038570775
"947",7,30,1,2,227,2,2,1,3,0.623012189471347,0.562278211482913
"948",7,23,1,1,228,2,1,1,3,0.529006470706386,0.633107087303399
"949",7,34,1,2,229,2,1,0,2,0.610013791861983,0.556108939507936
"950",7,38,1,1,230,2,1,1,3,0.696851548495721,0.70126124687254
"951",7,25,1,2,231,1,2,1,5,0.283877817149879,0.282754445275765
"952",7,21,1,1,232,1,1,1,4,0.449122940126095,0.421774795847091
"953",7,22,1,1,233,3,1,1,2,0.476340633596247,0.596482216151334
"954",7,38,1,2,234,3,2,1,3,0.725864474885561,0.713758277692896
"955",7,22,1,2,235,2,2,1,4,0.586347895398427,0.529964078994043
"956",7,20,1,2,236,1,2,1,4,0.22263760367082,0.247080751675521
"957",7,30,1,1,237,1,1,1,4,0.428478470369383,0.448102672721173
"958",7,23,1,2,238,3,2,1,3,0.623948149865029,0.707468112312291
"959",7,34,1,2,239,1,1,0,3,0.603691098841103,0.548287273478951
"960",7,38,1,1,240,3,2,0,1,1.13581379160399,1.10298707182675
"961",6,33,2,1,1,3,1,1,3,1.03824039679244,1.06510589070156
"962",6,27,2,1,2,1,1,1,5,0.349931701345092,0.35082002864078
"963",6,18,2,2,3,1,2,1,4,0.299125265587015,0.293954575308023
"964",6,37,2,1,4,2,1,1,4,0.776161733023447,0.824338903772419
"965",6,31,2,2,5,1,2,1,5,0.290418058261035,0.301700227614356
"966",6,21,2,2,6,2,1,0,2,0.6504007374516,0.635213297492402
"967",6,38,2,1,7,2,2,0,2,0.627808517082233,0.548391234645745
"968",6,35,2,2,8,2,1,0,3,0.766796372384394,0.657370844678483
"969",6,38,2,1,9,3,2,0,2,0.995625823377756,0.967143927392465
"970",6,34,2,2,10,2,1,0,2,0.621866409004176,0.55556827632152
"971",6,33,2,2,11,2,2,1,3,0.549378812924114,0.456072320790366
"972",6,27,2,2,12,3,2,1,2,0.997157027098263,0.968079359073155
"973",6,18,2,2,13,2,2,1,3,0.461695967552611,0.48219892580756
"974",6,37,2,1,14,2,1,1,4,0.584360107268247,0.550847985924487
"975",6,31,2,2,15,3,1,0,1,0.618288381579448,0.638646881647415
"976",6,21,2,1,16,1,1,1,4,0.231353660564811,0.175027222922454
"977",6,38,2,1,17,2,2,0,3,0.458945828838854,0.458004013879282
"978",6,35,2,1,18,3,2,0,2,1.44946236398301,1.45706184913004
"979",6,38,2,2,19,3,1,0,1,0.657187823116472,0.676085473315758
"980",6,34,2,2,20,1,2,1,5,0.4815217878756,0.47439744019194
"981",6,33,2,1,21,2,2,0,2,0.638837135420905,0.590351187691894
"982",6,27,2,2,22,1,2,1,5,0.41239216485885,0.384847609970081
"983",6,18,2,1,23,2,2,0,3,0.832181525553572,0.825169321660106
"984",6,37,2,1,24,2,2,0,2,1.00923526992783,0.983214610627652
"985",6,31,2,2,25,2,2,1,3,0.582797450187622,0.559576117797385
"986",6,21,2,1,26,2,2,0,3,0.666012481759335,0.617993660293144
"987",6,38,2,2,27,3,1,0,2,0.633155392625956,0.655100008231066
"988",6,35,2,1,28,2,1,1,4,0.69198254080852,0.72911932325063
"989",6,38,2,2,29,2,2,1,4,0.480062623800568,0.493464515889184
"990",6,34,2,1,30,3,1,1,3,0.93484498034414,0.996336670799279
"991",6,33,2,2,31,3,2,1,3,0.990357638829902,1.05796532898844
"992",6,27,2,2,32,1,2,1,5,0.353269091816329,0.321116822962521
"993",6,18,2,1,33,3,1,1,3,0.736678127187188,0.685546368486118
"994",6,37,2,2,34,3,2,1,3,1.1228518563864,1.04125374253197
"995",6,31,2,2,35,1,2,1,4,0.539191112810538,0.528262245905969
"996",6,21,2,2,36,1,2,1,4,0.253242186257427,0.233472958372231
"997",6,38,2,2,37,2,1,0,2,0.630695893949033,0.61375076012668
"998",6,35,2,1,38,3,1,1,2,0.937247040574658,0.985128853402522
"999",6,38,2,2,39,3,2,1,2,0.889576788119703,0.901392348546712
"1000",6,34,2,2,40,1,2,1,4,0.501043844418538,0.501720408146335
"1001",6,33,2,1,41,3,1,1,2,0.649822579629056,0.656082585342076
"1002",6,27,2,2,42,3,2,1,3,1.07881237415338,1.07726407548356
"1003",6,18,2,1,43,2,1,1,4,0.911332880671903,0.84517436814751
"1004",6,37,2,2,44,2,2,1,4,0.659858816094364,0.690027442719406
"1005",6,31,2,1,45,2,2,0,2,0.77499669458995,0.834666413570906
"1006",6,21,2,1,46,1,1,1,4,0.393186065291051,0.387775063249805
"1007",6,38,2,2,47,3,2,1,3,0.927339781327421,0.994384472984084
"1008",6,35,2,2,48,2,2,1,3,0.608425325799533,0.603877794721995
"1009",6,38,2,2,49,1,1,0,3,0.538995332602547,0.554002195294895
"1010",6,34,2,2,50,2,1,0,2,0.409029664241605,0.453496794564663
"1011",6,33,2,2,51,1,2,1,5,0.388983271178758,0.336620481412693
"1012",6,27,2,1,52,1,1,1,5,0.444918700838451,0.595002596122087
"1013",6,18,2,1,53,3,2,0,2,1.20545085587611,1.25608764787427
"1014",6,37,2,2,54,2,1,0,3,0.54526113418241,0.612570389242949
"1015",6,31,2,2,55,3,2,1,3,0.450778661252667,0.594890828266716
"1016",6,21,2,2,56,3,1,0,1,0.465365164103059,0.349538787749296
"1017",6,38,2,2,57,2,2,1,3,0.583187822553,0.611429054918409
"1018",6,35,2,1,58,3,2,0,1,0.556139780828632,0.526659440845769
"1019",6,38,2,2,59,3,2,1,2,0.469657803139499,0.512130805305085
"1020",6,34,2,1,60,1,1,1,4,0.44842055771046,0.536762039532831
"1021",6,33,2,2,61,2,2,1,4,0.584656346129393,0.605860662397332
"1022",6,27,2,1,62,1,2,0,4,0.709068274247987,0.752968381022114
"1023",6,18,2,2,63,2,2,1,3,0.505298028107118,0.414651976511749
"1024",6,37,2,1,64,1,1,1,4,0.379060582154364,0.326609819336076
"1025",6,31,2,2,65,3,1,0,2,0.800299475355103,0.848697511846852
"1026",6,21,2,2,66,1,2,1,4,0.423135206186609,0.384332848040955
"1027",6,38,2,2,67,3,1,0,2,0.823807036126807,0.772787675107327
"1028",6,35,2,1,68,1,1,1,5,0.467988863705388,0.560947705979848
"1029",6,38,2,1,69,2,2,0,3,0.63907970938211,0.61263863511029
"1030",6,34,2,2,70,3,1,0,1,1.25693464128644,1.22227646777044
"1031",6,33,2,2,71,3,2,1,2,1.15702412410349,1.22014852597907
"1032",6,27,2,1,72,3,1,1,3,0.666471712150941,0.655784194501611
"1033",6,18,2,2,73,2,2,1,3,0.806674422412019,0.780247607087884
"1034",6,37,2,1,74,1,1,1,4,0.505809253081548,0.424988994981197
"1035",6,31,2,1,75,1,2,0,3,0.443060768727824,0.43047682840719
"1036",6,21,2,2,76,1,2,1,5,0.496552547884305,0.416944650453249
"1037",6,38,2,2,77,2,1,0,3,0.668160997384419,0.567070778513305
"1038",6,35,2,2,78,2,1,0,3,0.443170779754518,0.466826665580121
"1039",6,38,2,2,79,2,2,1,3,0.593440421266239,0.56804997319501
"1040",6,34,2,2,80,3,1,0,1,1.31523444684973,1.20215546459469
"1041",6,33,2,1,81,1,2,0,4,0.582431502671152,0.534250182033243
"1042",6,27,2,1,82,1,2,0,3,0.63744221427708,0.670691594227592
"1043",6,18,2,1,83,1,1,1,4,0.485369656688211,0.529529023031685
"1044",6,37,2,1,84,3,1,1,2,0.85011707555027,0.791712595491998
"1045",6,31,2,1,85,2,2,0,3,0.781171324912079,0.742076310314178
"1046",6,21,2,2,86,1,2,1,4,0.445729573240984,0.48795960065467
"1047",6,38,2,2,87,1,2,1,5,0.37117800006891,0.379022145464665
"1048",6,35,2,2,88,3,1,0,2,0.960856287625555,0.960726693039078
"1049",6,38,2,2,89,3,1,0,1,0.292780639073467,0.336912301631555
"1050",6,34,2,2,90,3,1,0,2,1.188282266727,1.17795844867212
"1051",6,33,2,1,91,3,1,1,2,1.08213849017359,1.06172617292739
"1052",6,27,2,1,92,2,2,0,3,0.733543889199399,0.725807224285299
"1053",6,18,2,1,93,1,1,1,4,0.350094413818698,0.389685764744422
"1054",6,37,2,1,94,3,1,1,3,0.843284367095503,0.932890834159181
"1055",6,31,2,2,95,3,1,0,1,0.981898250625864,1.00465617686551
"1056",6,21,2,2,96,3,1,0,2,1.09727924361732,1.09592588821863
"1057",6,38,2,1,97,1,1,1,4,0.365537056901511,0.346316184887041
"1058",6,35,2,1,98,1,1,1,5,0.489617762401573,0.462236775378444
"1059",6,38,2,2,99,1,2,1,5,0.359775134475616,0.333511342413256
"1060",6,34,2,1,100,1,2,0,3,0.561109296111588,0.608205066317669
"1061",6,33,2,1,101,3,1,1,3,0.47221238079325,0.527207003844611
"1062",6,27,2,1,102,2,2,0,2,0.672338738345904,0.718155579422482
"1063",6,18,2,2,103,3,1,0,2,1.20079600306021,1.25140191339563
"1064",6,37,2,2,104,1,2,1,4,0.543315116450589,0.545128787159619
"1065",6,31,2,2,105,2,2,1,4,0.577420393553489,0.598586674472592
"1066",6,21,2,2,106,2,2,1,4,0.635798677832187,0.734623369695689
"1067",6,38,2,1,107,1,1,1,4,0.417069746159717,0.524380720244012
"1068",6,35,2,2,108,1,1,0,3,0.561639400455706,0.546991758846541
"1069",6,38,2,1,109,2,2,0,2,0.729348259417464,0.750503957330132
"1070",6,34,2,2,110,3,1,0,1,0.714177483253376,0.747500679561866
"1071",6,33,2,1,111,2,1,1,3,0.44788726548984,0.330147961458665
"1072",6,27,2,1,112,2,1,1,4,0.673418164440661,0.669963738107711
"1073",6,18,2,1,113,3,2,0,1,1.64934168372303,1.58828248755953
"1074",6,37,2,1,114,3,1,1,3,0.392204866285938,0.411943206199695
"1075",6,31,2,2,115,3,2,1,3,0.858940794707269,0.861281911974048
"1076",6,21,2,2,116,2,1,0,2,0.696438966985921,0.68432195938617
"1077",6,38,2,1,117,1,1,1,4,0.293274487513971,0.319230838695178
"1078",6,35,2,2,118,3,2,1,3,0.545859006619132,0.500199938758618
"1079",6,38,2,1,119,3,2,0,1,1.12127677747221,1.10588354391455
"1080",6,34,2,1,120,3,1,1,3,0.425511187682777,0.361448784292717
"1081",6,33,2,1,121,2,1,1,3,0.710928132730733,0.740505511922503
"1082",6,27,2,1,122,2,1,1,4,0.475165878690085,0.49374902413669
"1083",6,18,2,1,123,3,2,0,2,1.48735228163522,1.37617180304822
"1084",6,37,2,1,124,1,1,1,4,0.356896118082042,0.306475083865314
"1085",6,31,2,2,125,2,1,0,3,0.723386031472775,0.79399421427057
"1086",6,21,2,1,126,2,1,1,4,0.418143895224357,0.382480471373817
"1087",6,38,2,1,127,1,1,1,5,0.360512865851039,0.357843854859561
"1088",6,35,2,1,128,1,1,1,4,0.55933819738095,0.626129954064588
"1089",6,38,2,1,129,2,2,0,2,0.684704246692626,0.683181603682682
"1090",6,34,2,1,130,1,1,1,4,0.316824604930207,0.317777814687775
"1091",6,33,2,1,131,2,1,1,4,0.761261835021647,0.798603423045738
"1092",6,27,2,2,132,1,2,1,4,0.386266343777847,0.430098760819692
"1093",6,18,2,2,133,1,2,1,4,0.366843375787272,0.323690246496971
"1094",6,37,2,2,134,1,2,1,5,0.354114796671236,0.374052281387049
"1095",6,31,2,2,135,3,2,1,3,0.498679118741025,0.48568781366103
"1096",6,21,2,1,136,2,1,1,4,0.661751995290277,0.709001454169576
"1097",6,38,2,1,137,3,2,0,2,0.879192271758916,0.901991765703062
"1098",6,35,2,2,138,1,2,1,5,0.422699820887377,0.324353966123612
"1099",6,38,2,1,139,1,1,1,5,0.433099859289096,0.393379990213543
"1100",6,34,2,1,140,2,2,0,2,0.882790134872455,0.894153784703605
"1101",6,33,2,1,141,2,2,0,2,0.869760265231231,0.840502426369268
"1102",6,27,2,2,142,2,2,1,4,0.866527472973808,0.897817489625824
"1103",6,18,2,2,143,3,1,0,1,0.16058712511662,0.197800139895925
"1104",6,37,2,2,144,3,2,1,2,0.678513293068906,0.76659324760857
"1105",6,31,2,2,145,2,1,0,3,0.159429622997681,0.173922242355041
"1106",6,21,2,1,146,1,1,1,5,0.376815976206802,0.383743394287473
"1107",6,38,2,2,147,1,2,1,5,0.350137006869499,0.403351549069651
"1108",6,35,2,1,148,3,1,1,3,0.754067211469087,0.750357398490844
"1109",6,38,2,2,149,3,1,0,2,0.676671860034727,0.693143201056949
"1110",6,34,2,2,150,1,2,1,4,0.432303153247797,0.458669558556457
"1111",6,33,2,1,151,1,1,1,5,0.453013793087476,0.461965521053255
"1112",6,27,2,1,152,3,2,0,1,0.944019554973171,0.962488105970631
"1113",6,18,2,2,153,1,1,0,3,0.423208963921113,0.364518980015549
"1114",6,37,2,1,154,2,1,1,4,0.780763784000444,0.780852791137786
"1115",6,31,2,2,155,2,1,0,2,0.581324685228717,0.58560752468758
"1116",6,21,2,1,156,2,1,1,4,0.507668674795024,0.538025662124416
"1117",6,38,2,1,157,1,1,1,5,0.439027595431222,0.419269916921556
"1118",6,35,2,2,158,3,2,1,3,0.864302446421781,0.795368136422868
"1119",6,38,2,2,159,2,1,0,3,0.8107378615465,0.827281472134056
"1120",6,34,2,2,160,2,1,0,2,0.691137311925585,0.646604316404601
"1121",6,33,2,2,161,3,2,1,3,0.7996202052556,0.776375822068644
"1122",6,27,2,1,162,1,1,1,4,0.417680672509649,0.458313732321001
"1123",6,18,2,2,163,3,2,1,3,0.975698257955844,1.01744955505797
"1124",6,37,2,2,164,2,1,0,3,0.798244795832979,0.832217102310021
"1125",6,31,2,1,165,1,1,1,5,0.329603463741773,0.431137165513908
"1126",6,21,2,2,166,3,1,0,2,0.712793678875002,0.704581164202595
"1127",6,38,2,1,167,1,1,1,5,0.414349965064145,0.431752628254002
"1128",6,35,2,1,168,1,1,1,4,0.312768518418006,0.320301331411963
"1129",6,38,2,2,169,3,1,0,1,0.732827019966061,0.756075097647215
"1130",6,34,2,1,170,1,2,0,4,0.467298630312516,0.47550739136935
"1131",6,33,2,1,171,3,2,0,1,0.67576913295173,0.732328403679291
"1132",6,27,2,2,172,2,2,1,3,0.617470284522803,0.59690907207442
"1133",6,18,2,1,173,1,1,1,4,0.343008015558071,0.303045594981243
"1134",6,37,2,2,174,1,2,1,4,0.391116863916972,0.382486418660286
"1135",6,31,2,1,175,2,2,0,2,0.658629316205074,0.662973979327777
"1136",6,21,2,1,176,2,1,1,4,0.59524472588983,0.531497396691206
"1137",6,38,2,2,177,3,2,1,3,1.05207526809425,0.994350802387017
"1138",6,35,2,1,178,2,1,1,3,0.532528754446279,0.514538719634133
"1139",6,38,2,1,179,1,2,0,4,0.514637992491172,0.51416636576741
"1140",6,34,2,2,180,2,2,1,3,0.746093684418643,0.731272801345557
"1141",6,33,2,2,181,2,1,0,3,0.604944374094875,0.55528112696345
"1142",6,27,2,2,182,1,2,1,5,0.495908919298338,0.544307330701331
"1143",6,18,2,1,183,1,1,1,5,0.327364659752822,0.336851954032835
"1144",6,37,2,2,184,1,2,1,5,0.43683630015368,0.476126232648688
"1145",6,31,2,1,185,3,2,0,1,1.2187755286342,1.11079766365855
"1146",6,21,2,2,186,2,2,1,3,0.403893981707733,0.444619080767785
"1147",6,38,2,1,187,2,1,1,4,0.566294647356747,0.474042944316499
"1148",6,35,2,1,188,2,1,1,3,0.638443845338112,0.600726052032935
"1149",6,38,2,1,189,2,2,0,3,0.711951467508976,0.724693596630252
"1150",6,34,2,1,190,2,1,1,4,0.546289590773656,0.554826115088647
"1151",6,33,2,1,191,3,1,1,2,0.972125137675919,1.01544441103752
"1152",6,27,2,2,192,1,2,1,4,0.460554252624795,0.394343927113836
"1153",6,18,2,2,193,3,1,0,1,1.00710841131838,1.01480202895491
"1154",6,37,2,2,194,3,2,1,3,0.930263695594861,0.85460350485632
"1155",6,31,2,2,195,2,1,0,3,0.658632621297003,0.714106765802188
"1156",6,21,2,1,196,3,1,1,3,0.810840047859052,0.873206846787296
"1157",6,38,2,2,197,3,2,1,2,0.844188328203684,0.791041035585391
"1158",6,35,2,1,198,1,1,1,5,0.416744530722904,0.484346433306093
"1159",6,38,2,2,199,2,2,1,3,0.42030142360304,0.434461970502085
"1160",6,34,2,1,200,1,1,1,4,0.353316318298955,0.365087316313082
"1161",6,33,2,1,201,2,1,1,3,0.506638009972306,0.496452054894099
"1162",6,27,2,1,202,2,2,0,2,0.739870449039718,0.70613651745863
"1163",6,18,2,1,203,1,1,1,5,0.405176977087846,0.351621556407533
"1164",6,37,2,1,204,3,2,0,2,1.28473204648538,1.3100023672472
"1165",6,31,2,2,205,1,1,0,4,0.446024350459496,0.414022504819188
"1166",6,21,2,1,206,3,2,0,2,0.273218897857104,0.371113355823706
"1167",6,38,2,2,207,1,2,1,5,0.377755642042531,0.427576831307045
"1168",6,35,2,1,208,2,1,1,4,0.594521695088792,0.528207899556307
"1169",6,38,2,1,209,3,2,0,1,0.375980841692928,0.414600342222527
"1170",6,34,2,2,210,1,2,1,4,0.463082377450251,0.483539976098866
"1171",6,33,2,2,211,1,2,1,5,0.40802644008315,0.401329307532214
"1172",6,27,2,1,212,3,1,1,2,1.21608199578592,1.20451668411956
"1173",6,18,2,2,213,1,2,1,5,0.457668872477503,0.541923408962617
"1174",6,37,2,2,214,2,2,1,3,0.844614287964925,0.839004742372319
"1175",6,31,2,1,215,3,2,0,1,1.02171116240491,1.03694873501806
"1176",6,21,2,1,216,2,1,1,4,0.554455144239287,0.602350469958257
"1177",6,38,2,2,217,2,2,1,3,0.482985670376132,0.567275525732927
"1178",6,35,2,2,218,3,2,1,2,0.723619326403066,0.742497546758112
"1179",6,38,2,2,219,2,2,1,3,0.419324944084236,0.479798426397003
"1180",6,34,2,2,220,2,2,1,3,0.555836192249387,0.495239479647039
"1181",6,33,2,1,221,1,1,1,5,0.347693813110601,0.385915238317895
"1182",6,27,2,1,222,1,1,1,5,0.340544436616311,0.314568879214588
"1183",6,18,2,1,223,3,2,0,1,1.46010831993494,1.43123698129062
"1184",6,37,2,2,224,3,2,1,3,0.847831542264908,0.890221713120005
"1185",6,31,2,1,225,3,2,0,1,1.04821612890547,1.02348801063568
"1186",6,21,2,1,226,1,1,1,4,0.448365496174411,0.445514360295514
"1187",6,38,2,1,227,1,1,1,4,0.425494362147744,0.431539692856561
"1188",6,35,2,2,228,2,1,0,3,0.875061731126681,0.791572800997912
"1189",6,38,2,2,229,3,1,0,2,0.842150621754288,0.965014121685308
"1190",6,34,2,2,230,3,2,1,3,0.485809799193683,0.451127291489917
"1191",6,33,2,1,231,1,2,0,4,0.587274048032101,0.62138524044474
"1192",6,27,2,2,232,3,2,1,2,0.661329198949467,0.602643480480845
"1193",6,18,2,1,233,3,2,0,2,1.62121830900062,1.62048782559864
"1194",6,37,2,2,234,3,1,0,1,0.968122001596814,0.965240859607324
"1195",6,31,2,2,235,1,2,1,5,0.280825336069487,0.232794221433386
"1196",6,21,2,1,236,1,2,0,4,0.669112226199599,0.689384725945762
"1197",6,38,2,2,237,1,2,1,5,0.426998778348062,0.441925422610255
"1198",6,35,2,1,238,2,2,0,3,0.51912187917926,0.55716675214333
"1199",6,38,2,1,239,3,2,0,1,0.848783072913074,0.714132013710066
"1200",6,34,2,1,240,1,1,1,5,0.327115124057836,0.372145924067948
"1201",5,31,1,2,1,2,1,0,3,0.453007417594605,0.385012433501047
"1202",5,32,1,2,2,2,2,1,4,0.615512037120161,0.613402875224354
"1203",5,24,1,2,3,2,2,1,4,0.468516044606558,0.530790174017446
"1204",5,37,1,2,4,2,2,1,4,0.716352792584234,0.762324622919692
"1205",5,19,1,2,5,1,2,1,5,0.3031626253707,0.314780373960688
"1206",5,38,1,2,6,1,1,0,4,0.62924232300726,0.596954034552569
"1207",5,33,1,2,7,3,1,0,2,0.683713614819782,0.71037019180832
"1208",5,24,1,1,8,3,1,1,3,0.880394505735528,0.876709783315578
"1209",5,30,1,2,9,2,2,1,3,0.291179663727054,0.240212521277396
"1210",5,37,1,2,10,2,2,1,3,0.75183648500899,0.775830277656621
"1211",5,31,1,2,11,2,2,1,3,0.586922851132247,0.643745538224123
"1212",5,32,1,1,12,1,2,0,3,0.499462199661743,0.50268972922205
"1213",5,24,1,2,13,1,2,1,5,0.272532660256892,0.256540764930021
"1214",5,37,1,2,14,3,2,1,3,0.678454917517359,0.643149290659215
"1215",5,19,1,1,15,3,1,1,2,0.793432244769265,0.873846400813409
"1216",5,38,1,1,16,3,1,1,3,0.665894281908457,0.720806743631099
"1217",5,33,1,2,17,3,2,1,3,0.914683491375875,0.862930789486309
"1218",5,24,1,1,18,3,1,1,2,0.248789931659605,0.291956419608407
"1219",5,30,1,2,19,1,2,1,5,0.534101290565317,0.528945253634409
"1220",5,37,1,2,20,2,1,0,2,0.683320667764236,0.633377007045884
"1221",5,31,1,2,21,3,2,1,3,1.06252199138265,1.04804153108887
"1222",5,32,1,2,22,1,2,1,5,0.488267218480129,0.5157148831352
"1223",5,24,1,2,23,1,2,1,5,0.504203982930992,0.399455820908023
"1224",5,37,1,1,24,1,1,1,5,0.29780285238023,0.318876355491624
"1225",5,19,1,2,25,1,2,1,5,0.246474627136455,0.21730320073803
"1226",5,38,1,1,26,1,2,0,4,0.296127483224334,0.38159547961199
"1227",5,33,1,1,27,3,1,1,3,0.710277257330969,0.668501994299129
"1228",5,24,1,1,28,1,1,1,4,0.402578892662655,0.407038262804489
"1229",5,30,1,1,29,1,2,0,4,0.661649185982652,0.623310908056132
"1230",5,37,1,2,30,2,2,1,3,0.57060489864789,0.650546705547833
"1231",5,31,1,1,31,3,2,0,1,1.64605947883202,1.52530804626717
"1232",5,32,1,2,32,1,2,1,4,0.318330068950833,0.383770578542198
"1233",5,24,1,1,33,3,1,1,3,0.695929166204405,0.646043718535735
"1234",5,37,1,1,34,2,1,1,4,0.498490852591887,0.528687240732038
"1235",5,19,1,2,35,2,2,1,3,0.507693011442929,0.39870750880241
"1236",5,38,1,1,36,2,2,0,2,0.567345212493142,0.601815272037692
"1237",5,33,1,1,37,3,1,1,2,1.19564791058239,1.24045454875104
"1238",5,24,1,2,38,1,1,0,3,0.476580995122917,0.423088546966593
"1239",5,30,1,2,39,1,2,1,5,0.410199788332385,0.371592880207489
"1240",5,37,1,1,40,3,1,1,3,0.902665827002397,0.873765330327106
"1241",5,31,1,1,41,2,1,1,3,0.792103871046817,0.763167942574119
"1242",5,32,1,2,42,3,1,0,1,0.703607023290633,0.709949774956959
"1243",5,24,1,2,43,2,2,1,3,0.518902938816934,0.576386010153584
"1244",5,37,1,2,44,2,1,0,2,0.602635540643482,0.612963919299578
"1245",5,19,1,2,45,3,1,0,2,0.893482777213326,0.874755117216253
"1246",5,38,1,1,46,1,1,1,4,0.243446190488541,0.269419076739325
"1247",5,33,1,2,47,2,2,1,4,0.576527617699607,0.531052848916297
"1248",5,24,1,1,48,3,1,1,2,0.788623682320221,0.841257301188245
"1249",5,30,1,2,49,2,2,1,4,0.602124765413162,0.672030133830741
"1250",5,37,1,1,50,1,1,1,5,0.276231423708257,0.296394363445731
"1251",5,31,1,2,51,2,2,1,3,0.745451670606446,0.727614542056266
"1252",5,32,1,2,52,3,2,1,2,0.873351830472918,0.830608278934664
"1253",5,24,1,1,53,3,2,0,1,1.33765652533451,1.33165662824462
"1254",5,37,1,2,54,3,2,1,3,0.941288282416913,0.917831831117339
"1255",5,19,1,2,55,1,2,1,4,0.510607751715549,0.489176469655373
"1256",5,38,1,2,56,2,1,0,2,0.89485223999122,0.90619052922992
"1257",5,33,1,2,57,3,2,1,2,1.08778281149666,1.04335540914691
"1258",5,24,1,2,58,3,1,0,2,1.05012319100503,1.07635393718605
"1259",5,30,1,1,59,3,1,1,3,0.639553204221574,0.689849473403186
"1260",5,37,1,2,60,1,2,1,4,0.500051104916561,0.537407607665233
"1261",5,31,1,1,61,1,1,1,4,0.517701137838306,0.525322034584696
"1262",5,32,1,2,62,2,2,1,3,0.560922187842661,0.591717059259187
"1263",5,24,1,2,63,1,2,1,5,0.381695899554554,0.379033476390301
"1264",5,37,1,1,64,2,1,1,4,0.75657475747406,0.722611984978246
"1265",5,19,1,2,65,1,2,1,4,0.372026061578258,0.343968121684305
"1266",5,38,1,2,66,1,2,1,5,0.38586464893245,0.418637272603915
"1267",5,33,1,1,67,2,1,1,4,0.540831546895048,0.539929710405577
"1268",5,24,1,2,68,3,1,0,1,1.23558030507569,1.23654681291616
"1269",5,30,1,1,69,3,1,1,3,0.846245034408336,0.785177494607868
"1270",5,37,1,1,70,3,2,0,2,0.606703586388162,0.536736750168182
"1271",5,31,1,1,71,3,1,1,3,0.957752078036014,0.971926772583454
"1272",5,32,1,2,72,2,1,0,2,0.777976324799986,0.768433074277947
"1273",5,24,1,1,73,1,1,1,5,0.447149211916497,0.416514601242006
"1274",5,37,1,1,74,3,2,0,2,1.52817269543202,1.45925875465482
"1275",5,19,1,1,75,3,1,1,2,0.57799849231002,0.633350942215147
"1276",5,38,1,1,76,1,1,1,4,0.300855775459977,0.221024552879939
"1277",5,33,1,2,77,3,2,1,2,0.724017539384578,0.738540002311038
"1278",5,24,1,1,78,1,1,1,5,0.329470688910858,0.356116529323848
"1279",5,30,1,2,79,1,1,0,4,0.594172509966116,0.670924015026163
"1280",5,37,1,1,80,2,2,0,3,0.703511634149873,0.656270960811645
"1281",5,31,1,2,81,1,2,1,5,0.432630249805049,0.445338265905749
"1282",5,32,1,1,82,3,2,0,1,1.21218983819761,1.19088385621647
"1283",5,24,1,1,83,2,2,0,2,0.746308299861437,0.739803085804071
"1284",5,37,1,2,84,3,1,0,1,0.983889764422634,1.04953754878111
"1285",5,19,1,2,85,2,2,1,3,0.689711364268613,0.684104624126034
"1286",5,38,1,1,86,1,1,1,5,0.43898337688891,0.422785330785303
"1287",5,33,1,1,87,2,2,0,3,0.562076273174443,0.613215541599442
"1288",5,24,1,2,88,3,2,1,3,0.580519259336781,0.525740864331217
"1289",5,30,1,1,89,2,1,1,4,0.401209720603638,0.477978134471256
"1290",5,37,1,1,90,2,1,1,3,0.748258499462617,0.728105634821012
"1291",5,31,1,1,91,2,2,0,2,0.698514866876269,0.689202195013592
"1292",5,32,1,1,92,2,2,0,3,0.798811058665075,0.861337173057629
"1293",5,24,1,1,93,3,1,1,3,0.973068612901538,0.879695092785725
"1294",5,37,1,2,94,3,2,1,3,0.697694769085012,0.679276668784686
"1295",5,19,1,2,95,1,2,1,4,0.353199763777235,0.361849741078475
"1296",5,38,1,2,96,3,1,0,1,1.12956988410326,1.15906720378114
"1297",5,33,1,1,97,1,1,1,4,0.527892091900163,0.574834882518449
"1298",5,24,1,1,98,1,1,1,4,0.398260059693893,0.443868695903521
"1299",5,30,1,1,99,1,2,0,3,0.512697042672339,0.498718836616148
"1300",5,37,1,1,100,3,1,1,2,0.681973834143873,0.654733578617372
"1301",5,31,1,1,101,1,1,1,4,0.534463264927475,0.567821209023211
"1302",5,32,1,1,102,2,2,0,3,1.00733659732623,1.10977311966315
"1303",5,24,1,2,103,1,2,1,4,0.272320733319638,0.26152424046202
"1304",5,37,1,2,104,1,2,1,4,0.504845030133099,0.591633095516367
"1305",5,19,1,2,105,1,2,1,5,0.376931037296066,0.387681538159083
"1306",5,38,1,1,106,3,1,1,3,0.811993908949612,0.862205039780267
"1307",5,33,1,1,107,2,1,1,4,0.737391652303238,0.738290351000262
"1308",5,24,1,1,108,3,2,0,2,1.39649278484908,1.44248302120635
"1309",5,30,1,1,109,1,1,1,5,0.299298995612781,0.272831308689591
"1310",5,37,1,2,110,1,2,1,5,0.479075175922228,0.456912696753248
"1311",5,31,1,2,111,3,2,1,3,0.720929756702798,0.780829962083283
"1312",5,32,1,1,112,2,1,1,4,0.526957129481977,0.527116259706544
"1313",5,24,1,2,113,2,2,1,4,0.515699251626578,0.504983582590784
"1314",5,37,1,2,114,1,1,0,4,0.454829321701694,0.409762623419492
"1315",5,19,1,2,115,1,2,1,4,0.306307756026748,0.340772526667843
"1316",5,38,1,1,116,2,2,0,2,0.818298772420395,0.763168393896752
"1317",5,33,1,1,117,2,1,1,3,0.601256261074197,0.600339011833047
"1318",5,24,1,1,118,2,2,0,2,0.486916883373757,0.507123553094504
"1319",5,30,1,2,119,2,1,0,3,0.835124463630216,0.838594468239173
"1320",5,37,1,2,120,3,1,0,2,1.01694029240889,1.08086356886679
"1321",5,31,1,1,121,2,2,0,3,0.521906726134632,0.595037351581999
"1322",5,32,1,2,122,1,2,1,5,0.441098396791266,0.496890719334709
"1323",5,24,1,2,123,2,1,0,2,0.968293429978257,0.863905158030966
"1324",5,37,1,2,124,1,1,0,4,0.652613922366401,0.689556225315027
"1325",5,19,1,2,125,1,2,1,4,0.593855482368004,0.607103642286024
"1326",5,38,1,1,126,2,1,1,4,0.369518319616391,0.327277201344936
"1327",5,33,1,1,127,3,1,1,3,0.734552121475569,0.697052737872431
"1328",5,24,1,1,128,3,1,1,3,1.06563168395482,1.03453423521815
"1329",5,30,1,1,129,3,2,0,2,0.97091526694006,0.990916720156991
"1330",5,37,1,1,130,3,2,0,1,0.553907388894931,0.569586254599026
"1331",5,31,1,2,131,2,2,1,3,0.589687277741711,0.488403927004653
"1332",5,32,1,2,132,2,1,0,2,0.662948899893924,0.595364063247811
"1333",5,24,1,2,133,2,2,1,3,0.707166320356499,0.745849231494701
"1334",5,37,1,2,134,1,2,1,4,0.487696609222044,0.413888676946939
"1335",5,19,1,2,135,3,2,1,2,0.682759464516478,0.671697527265423
"1336",5,38,1,2,136,3,1,0,2,1.33275836589485,1.29561415699668
"1337",5,33,1,1,137,2,1,1,4,0.585808058583846,0.577190200816851
"1338",5,24,1,2,138,3,2,1,2,0.658259748843853,0.607230165657928
"1339",5,30,1,1,139,3,1,1,2,0.66981835000772,0.655802307960555
"1340",5,37,1,1,140,1,1,1,5,0.508511175431446,0.457068810683807
"1341",5,31,1,1,141,2,2,0,2,0.827154504058315,0.780536863286865
"1342",5,32,1,1,142,3,1,1,3,0.767746457223606,0.794181680366263
"1343",5,24,1,1,143,3,2,0,2,0.868487347149308,0.939638648090512
"1344",5,37,1,1,144,2,2,0,2,0.700041474579912,0.723813041748671
"1345",5,19,1,2,145,2,1,0,3,0.960442359994863,0.896141417783591
"1346",5,38,1,1,146,2,1,1,3,0.655560655052104,0.552857587504004
"1347",5,33,1,2,147,1,2,1,5,0.47867850161803,0.455883093227607
"1348",5,24,1,1,148,2,2,0,3,0.625221561332575,0.674414623513487
"1349",5,30,1,1,149,2,1,1,3,0.699242681852156,0.724568261551946
"1350",5,37,1,2,150,3,1,0,1,0.976368131562776,0.882545746158308
"1351",5,31,1,1,151,2,1,1,3,0.684723350955352,0.650461704749403
"1352",5,32,1,2,152,1,1,0,4,0.407921839799676,0.400420490166589
"1353",5,24,1,2,153,2,2,1,4,0.578276458102528,0.508512574345218
"1354",5,37,1,2,154,2,2,1,4,0.513437952251278,0.518573306320485
"1355",5,19,1,2,155,3,1,0,1,0.904733862307668,0.923507918954161
"1356",5,38,1,2,156,2,1,0,3,0.563329454264778,0.513027793962222
"1357",5,33,1,1,157,2,2,0,3,0.661244931894339,0.624929070407089
"1358",5,24,1,1,158,1,2,0,3,0.505205688381232,0.548543866634078
"1359",5,30,1,1,159,1,1,1,5,0.520140994638072,0.645260171877291
"1360",5,37,1,1,160,1,1,1,4,0.543037475796815,0.515213929341874
"1361",5,31,1,2,161,3,1,0,1,0.940839912199281,0.913539553349566
"1362",5,32,1,2,162,3,1,0,1,1.02974122268356,1.04747127829022
"1363",5,24,1,2,163,1,2,1,5,0.23825760171526,0.196379597539696
"1364",5,37,1,1,164,3,1,1,3,0.827297877190229,0.84570720850238
"1365",5,19,1,1,165,3,2,0,2,1.22891361045038,1.30646049919535
"1366",5,38,1,1,166,2,2,0,2,1.00718503839718,0.994642961345043
"1367",5,33,1,1,167,2,2,0,2,1.02378981212802,0.978226004833725
"1368",5,24,1,2,168,1,2,1,4,0.444351488679223,0.401858824122345
"1369",5,30,1,2,169,3,1,0,1,0.995848477549638,0.980102646956395
"1370",5,37,1,2,170,1,2,1,5,0.418921946458027,0.440613039628893
"1371",5,31,1,2,171,2,2,1,3,0.76184866860444,0.714438924433267
"1372",5,32,1,1,172,1,1,1,4,0.265484396879018,0.30906087694165
"1373",5,24,1,2,173,1,2,1,5,0.141660642044619,0.105196508413067
"1374",5,37,1,1,174,2,2,0,3,0.573520960540417,0.585746722553032
"1375",5,19,1,1,175,1,1,1,4,0.3158980345438,0.333952060303871
"1376",5,38,1,1,176,3,1,1,3,1.10823798321468,1.00250625618132
"1377",5,33,1,1,177,3,1,1,3,0.756490603601633,0.793784734566678
"1378",5,24,1,1,178,1,1,1,5,0.487774562005156,0.393404570886812
"1379",5,30,1,1,179,2,2,0,3,0.910173807338226,0.818546663132571
"1380",5,37,1,1,180,1,2,0,3,0.63354955089375,0.666120861475819
"1381",5,31,1,1,181,1,1,1,4,0.369661854542688,0.266776345111226
"1382",5,32,1,2,182,2,2,1,3,0.422099894040261,0.391171144466942
"1383",5,24,1,2,183,2,1,0,2,0.944555314537308,1.01171892150632
"1384",5,37,1,1,184,2,1,1,4,0.529559020059364,0.585690280865538
"1385",5,19,1,1,185,2,2,0,2,0.877170778620036,0.906451433492509
"1386",5,38,1,2,186,2,2,1,3,0.788694836838262,0.882817206674306
"1387",5,33,1,1,187,3,2,0,1,1.77029231422012,1.78097378923063
"1388",5,24,1,1,188,1,1,1,5,0.419341713493393,0.448129392090364
"1389",5,30,1,2,189,3,2,1,3,0.815444919968383,0.77201949957702
"1390",5,37,1,2,190,2,2,1,4,0.607051516673495,0.664583472526831
"1391",5,31,1,2,191,3,2,1,2,0.814224536180334,0.8870336241454
"1392",5,32,1,1,192,3,2,0,1,-0.0519645231242893,-0.0649649677924959
"1393",5,24,1,2,193,2,1,0,3,0.565179926265813,0.585786870493541
"1394",5,37,1,2,194,1,1,0,4,0.464570573810851,0.478435283735725
"1395",5,19,1,1,195,3,1,1,3,0.674229853909647,0.647086687661618
"1396",5,38,1,1,196,1,1,1,5,0.472382643329509,0.45878669309806
"1397",5,33,1,1,197,2,2,0,2,0.622261732296996,0.657314107621329
"1398",5,24,1,2,198,1,2,1,4,0.550489284421345,0.57180884813296
"1399",5,30,1,2,199,3,1,0,1,1.49279923686823,1.57458621156405
"1400",5,37,1,2,200,1,1,0,3,0.42324183113988,0.467888915740641
"1401",5,31,1,2,201,1,2,1,4,0.38839427632173,0.42676948299901
"1402",5,32,1,2,202,1,2,1,5,0.259142222502092,0.314942472491554
"1403",5,24,1,1,203,1,1,1,5,0.401143142159168,0.476215670704935
"1404",5,37,1,1,204,1,2,0,3,0.419530445378847,0.339411560222903
"1405",5,19,1,2,205,3,1,0,2,0.286115426728246,0.271387714032371
"1406",5,38,1,1,206,3,2,0,1,0.248139773273486,0.204566754215881
"1407",5,33,1,2,207,3,1,0,2,0.282635505595719,0.28408948579233
"1408",5,24,1,2,208,3,2,1,3,0.797062318524358,0.733848238384511
"1409",5,30,1,2,209,2,2,1,3,0.478064738455978,0.494290094568101
"1410",5,37,1,1,210,1,1,1,4,0.282437521800447,0.278206321280817
"1411",5,31,1,1,211,2,2,0,3,0.531641299364223,0.58065830998007
"1412",5,32,1,2,212,1,2,1,5,0.307192980553586,0.222413907399552
"1413",5,24,1,2,213,2,1,0,3,0.699573367032444,0.667933198237923
"1414",5,37,1,2,214,1,1,0,4,0.65098251385063,0.718639759212322
"1415",5,19,1,1,215,2,1,1,3,0.545848986102501,0.571302370089687
"1416",5,38,1,1,216,3,1,1,3,0.698598203022506,0.697080636848544
"1417",5,33,1,1,217,2,1,1,3,0.555773276235561,0.46717515998412
"1418",5,24,1,1,218,3,1,1,2,0.76033888701009,0.800840537769945
"1419",5,30,1,1,219,2,1,1,4,0.686453420437564,0.685364047351149
"1420",5,37,1,1,220,1,1,1,4,0.429302339761391,0.331234914752145
"1421",5,31,1,2,221,1,2,1,5,0.39078977738633,0.365532505591745
"1422",5,32,1,1,222,2,2,0,2,0.814479551403532,0.817467804270437
"1423",5,24,1,1,223,2,1,1,4,0.856626289301528,0.855334229074275
"1424",5,37,1,2,224,3,1,0,1,1.17557624486907,1.22101620263323
"1425",5,19,1,1,225,3,2,0,1,1.01981747608428,0.984863176460358
"1426",5,38,1,1,226,3,2,0,1,1.75349836780281,1.75327019011251
"1427",5,33,1,2,227,1,2,1,5,0.408446295787234,0.407905860585645
"1428",5,24,1,1,228,2,1,1,3,0.447918897061203,0.46634998480918
"1429",5,30,1,2,229,1,2,1,5,0.409035615916775,0.450800691668003
"1430",5,37,1,1,230,3,1,1,2,1.05467312875007,1.0520515964262
"1431",5,31,1,2,231,1,2,1,4,0.235079048253511,0.174344304407582
"1432",5,32,1,1,232,1,1,1,5,0.44345489114016,0.293916256993275
"1433",5,24,1,2,233,1,2,1,5,0.389522444814802,0.441687342230161
"1434",5,37,1,1,234,3,2,0,1,1.06097792154508,1.13770353342145
"1435",5,19,1,1,235,3,2,0,2,0.906995771785513,0.895089668457674
"1436",5,38,1,1,236,3,2,0,1,1.21468133373556,1.23157035138598
"1437",5,33,1,2,237,1,2,1,5,0.467844256749701,0.466743180189251
"1438",5,24,1,2,238,3,1,0,2,1.21573903903914,1.28821619853088
"1439",5,30,1,2,239,2,2,1,4,0.477062168116997,0.535977271487957
"1440",5,37,1,2,240,3,2,1,2,0.68009078213779,0.652846763908022
"1441",4,23,2,1,1,1,1,1,5,0.493059492341796,0.475547735689903
"1442",4,33,2,2,2,2,2,1,3,0.508186495220846,0.535755839483012
"1443",4,32,2,1,3,3,2,0,2,1.09907422160386,1.06980943261466
"1444",4,19,2,2,4,2,2,1,4,0.641546990021829,0.614455252508825
"1445",4,23,2,2,5,1,2,1,5,0.400291167808732,0.342776904098199
"1446",4,36,2,1,6,2,2,0,2,0.78613241756159,0.799686836830033
"1447",4,22,2,2,7,1,1,0,3,0.603933555524593,0.680323105680719
"1448",4,39,2,2,8,3,2,1,3,0.785700173341339,0.758474364850145
"1449",4,24,2,2,9,1,2,1,5,0.518701588664621,0.471551662367027
"1450",4,18,2,2,10,1,2,1,4,0.483270925811658,0.565815060600028
"1451",4,23,2,1,11,2,1,1,3,0.502232076550323,0.479462612175568
"1452",4,33,2,1,12,1,1,1,5,0.450338531020307,0.495084628014577
"1453",4,32,2,2,13,1,2,1,4,0.359020147283582,0.34126241273695
"1454",4,19,2,2,14,3,1,0,2,1.19019516953236,1.10825239326248
"1455",4,23,2,2,15,2,2,1,4,0.41890378592393,0.46510932366848
"1456",4,36,2,2,16,3,1,0,1,0.40217651654556,0.416677887256716
"1457",4,22,2,2,17,3,2,1,2,0.516735701791263,0.472224283705265
"1458",4,39,2,2,18,2,2,1,3,0.605880598077586,0.605278067101887
"1459",4,24,2,1,19,2,2,0,2,0.612726290975285,0.645761964854031
"1460",4,18,2,1,20,2,2,0,2,0.731863290613291,0.730050483637115
"1461",4,23,2,2,21,1,2,1,5,0.357266768919558,0.402677143040663
"1462",4,33,2,2,22,2,2,1,4,0.689941719568779,0.689127743730584
"1463",4,32,2,1,23,3,1,1,2,0.679002627078985,0.703952020115721
"1464",4,19,2,1,24,1,1,1,4,0.308161245582246,0.362486938187832
"1465",4,23,2,1,25,3,1,1,3,0.939725964724026,0.889394023844498
"1466",4,36,2,2,26,3,1,0,1,1.06892862375964,1.13443435108534
"1467",4,22,2,1,27,1,1,1,5,0.50812087801479,0.525405203801369
"1468",4,39,2,1,28,3,2,0,2,1.03893272255093,1.07193449888705
"1469",4,24,2,1,29,3,1,1,2,1.03496571441792,1.01447318834251
"1470",4,18,2,1,30,2,2,0,2,0.510535554006608,0.518075298820716
"1471",4,23,2,1,31,2,2,0,3,0.609053735414593,0.612361047851339
"1472",4,33,2,2,32,2,1,0,2,0.907089848814579,0.91631113260056
"1473",4,32,2,1,33,1,1,1,4,0.434343178888927,0.42828493180325
"1474",4,19,2,2,34,2,2,1,4,0.73650864739854,0.690583098879329
"1475",4,23,2,1,35,3,1,1,2,0.619684261014196,0.608216187049042
"1476",4,36,2,1,36,1,1,1,4,0.384352093136771,0.362150207534625
"1477",4,22,2,2,37,1,2,1,4,0.406550540985545,0.446083806516051
"1478",4,39,2,2,38,3,1,0,1,1.257440299831,1.28560974379952
"1479",4,24,2,1,39,1,1,1,5,0.377676502223165,0.345642201168023
"1480",4,18,2,1,40,3,1,1,2,1.16874897815793,1.08813570021719
"1481",4,23,2,2,41,3,1,0,1,0.703646653378025,0.79254226445669
"1482",4,33,2,2,42,3,2,1,2,0.861390804517252,0.873947466027094
"1483",4,32,2,2,43,2,2,1,4,0.4185329734219,0.426641435910263
"1484",4,19,2,1,44,3,2,0,1,1.28813364557597,1.29052263939696
"1485",4,23,2,1,45,1,1,1,4,0.455189357964039,0.49117586706906
"1486",4,36,2,1,46,1,2,0,3,0.547913448000562,0.517991455880471
"1487",4,22,2,1,47,2,2,0,3,0.528336240452268,0.543370017244572
"1488",4,39,2,1,48,3,1,1,2,0.643372427036263,0.546171637436487
"1489",4,24,2,1,49,1,1,1,4,0.418109215522329,0.553100126836385
"1490",4,18,2,2,50,2,1,0,3,0.65615891661251,0.593827381444142
"1491",4,23,2,1,51,3,2,0,1,1.09691663077072,1.10871382124721
"1492",4,33,2,1,52,1,1,1,4,0.468090256828403,0.417881592832251
"1493",4,32,2,2,53,1,2,1,4,0.328566681128091,0.278151705185172
"1494",4,19,2,1,54,1,1,1,4,0.437113708278437,0.479846358057746
"1495",4,23,2,2,55,2,2,1,3,0.447605335198972,0.456786808528096
"1496",4,36,2,2,56,2,1,0,3,0.778194950945166,0.775002196748435
"1497",4,22,2,2,57,3,1,0,2,0.830127399032492,0.851376625677924
"1498",4,39,2,2,58,2,1,0,3,0.85260925265047,0.871892826171425
"1499",4,24,2,1,59,2,2,0,3,0.960342209634626,1.04572786888269
"1500",4,18,2,2,60,1,2,1,5,0.464468044280097,0.462111073356031
"1501",4,23,2,2,61,1,2,1,4,0.416255146370529,0.491790752057711
"1502",4,33,2,1,62,3,2,0,2,1.28105690985566,1.40267962257755
"1503",4,32,2,2,63,3,2,1,3,0.722821908872166,0.799771257533838
"1504",4,19,2,2,64,3,1,0,1,0.735291423560101,0.731788395725015
"1505",4,23,2,2,65,1,2,1,4,0.44539641329608,0.39278637733631
"1506",4,36,2,1,66,3,2,0,2,1.49065403622773,1.52824036190405
"1507",4,22,2,1,67,2,2,0,3,0.764230100880609,0.737758320320551
"1508",4,39,2,2,68,3,1,0,1,0.86766375902215,0.824161152111226
"1509",4,24,2,1,69,1,1,1,5,0.429500980126736,0.474002356497448
"1510",4,18,2,2,70,1,2,1,5,0.426484532949475,0.450504868206811
"1511",4,23,2,1,71,3,1,1,2,0.894954516368553,0.880647207955712
"1512",4,33,2,1,72,2,1,1,3,0.63655690121233,0.581593670968113
"1513",4,32,2,2,73,1,2,1,5,0.297083894226456,0.284307145200347
"1514",4,19,2,2,74,2,2,1,3,0.546218983241007,0.632869920221016
"1515",4,23,2,2,75,3,2,1,3,0.819553247571662,0.869039909896498
"1516",4,36,2,2,76,2,1,0,2,0.788943807953898,0.752178653495422
"1517",4,22,2,2,77,3,2,1,3,0.703037688927713,0.733353080149044
"1518",4,39,2,1,78,2,1,1,4,0.52959835376312,0.519936395067107
"1519",4,24,2,2,79,2,2,1,4,0.607846741046853,0.591287918768435
"1520",4,18,2,1,80,2,2,0,3,0.781378016103843,0.865755901989234
"1521",4,23,2,2,81,3,2,1,2,0.724598655137244,0.733917709941544
"1522",4,33,2,1,82,1,2,0,4,0.63103301945531,0.683101052828216
"1523",4,32,2,2,83,3,1,0,1,0.865360702847624,0.910380569224
"1524",4,19,2,2,84,2,2,1,4,0.482495276582385,0.551450644660177
"1525",4,23,2,2,85,3,2,1,3,1.12069305814603,1.17436823741466
"1526",4,36,2,2,86,3,2,1,3,0.652938694292451,0.650113845131499
"1527",4,22,2,1,87,1,1,1,5,0.484042217157347,0.465162563824828
"1528",4,39,2,1,88,3,2,0,1,0.908912358221723,0.90568291035768
"1529",4,24,2,1,89,1,2,0,3,0.705728163059789,0.724118243554525
"1530",4,18,2,1,90,2,2,0,2,0.710951708658909,0.674390118568908
"1531",4,23,2,2,91,3,1,0,1,0.932880809545341,0.875388490091641
"1532",4,33,2,2,92,1,1,0,3,0.585276848155333,0.558684811157375
"1533",4,32,2,1,93,2,2,0,2,0.714668769708262,0.674767476042489
"1534",4,19,2,2,94,1,2,1,5,0.403236711096532,0.339039822488578
"1535",4,23,2,1,95,1,2,0,4,0.570331696743496,0.602659150119209
"1536",4,36,2,1,96,3,2,0,1,0.844578118777999,0.752368391982212
"1537",4,22,2,2,97,2,2,1,4,0.565102758592696,0.599215439891676
"1538",4,39,2,2,98,3,2,1,2,0.874843086470974,0.880617144819152
"1539",4,24,2,1,99,3,1,1,2,0.548772813965618,0.580704632201911
"1540",4,18,2,1,100,2,1,1,4,0.699597702664625,0.813543791960388
"1541",4,23,2,1,101,3,1,1,3,0.86718609042508,0.839713049697442
"1542",4,33,2,1,102,1,1,1,5,0.294682939629946,0.308021000343416
"1543",4,32,2,1,103,1,1,1,5,0.345670266193498,0.300095513841669
"1544",4,19,2,2,104,2,2,1,3,0.541712691398525,0.619083827141649
"1545",4,23,2,2,105,1,2,1,4,0.376750108826039,0.320121666120873
"1546",4,36,2,2,106,3,1,0,1,1.17092429971094,1.19229189793409
"1547",4,22,2,1,107,3,1,1,3,1.14757411676463,1.15663421190547
"1548",4,39,2,2,108,1,2,1,5,0.385196545186964,0.320714321282869
"1549",4,24,2,1,109,1,1,1,4,0.28686220620728,0.269704694826291
"1550",4,18,2,2,110,3,1,0,2,1.55963690048573,1.69419061466013
"1551",4,23,2,2,111,2,2,1,3,0.653820757000878,0.639053300445402
"1552",4,33,2,2,112,2,2,1,4,0.638170023353393,0.716294849587002
"1553",4,32,2,1,113,3,1,1,2,1.05364191418261,1.10979799684351
"1554",4,19,2,2,114,1,2,1,5,0.387238811868593,0.490653690331073
"1555",4,23,2,2,115,3,2,1,3,0.617048883193952,0.594641363904074
"1556",4,36,2,1,116,3,1,1,3,0.559543533429837,0.567529551099347
"1557",4,22,2,2,117,3,2,1,3,0.983766266199238,1.06428803434807
"1558",4,39,2,2,118,3,2,1,2,0.860155211800376,0.828968350458579
"1559",4,24,2,2,119,3,1,0,1,1.50589808549094,1.56514612258111
"1560",4,18,2,1,120,1,1,1,4,0.458069088675148,0.460100735635576
"1561",4,23,2,1,121,1,1,1,5,0.239333730284652,0.267321375961834
"1562",4,33,2,1,122,1,1,1,5,0.397297963946282,0.410944390821146
"1563",4,32,2,2,123,2,2,1,4,0.79768253909286,0.829196265520827
"1564",4,19,2,2,124,2,2,1,3,0.610136321663396,0.645141791738406
"1565",4,23,2,1,125,1,1,1,4,0.307409273798329,0.386683219013625
"1566",4,36,2,1,126,1,1,1,4,0.384507844502957,0.400942386559026
"1567",4,22,2,1,127,1,1,1,5,0.370614430122024,0.426947933749455
"1568",4,39,2,1,128,1,1,1,4,0.394364080818131,0.356913676535832
"1569",4,24,2,1,129,1,2,0,4,0.604766476292415,0.529937806121594
"1570",4,18,2,1,130,2,1,1,4,0.59038912774789,0.606874276633551
"1571",4,23,2,2,131,2,2,1,4,0.85223308966151,0.816317220926838
"1572",4,33,2,2,132,1,2,1,5,0.390213910945422,0.435795571344051
"1573",4,32,2,2,133,3,1,0,1,1.29815228478199,1.3571613727838
"1574",4,19,2,2,134,2,1,0,2,0.53057493107361,0.512756155099744
"1575",4,23,2,1,135,2,2,0,2,0.874125817027124,0.876898804488519
"1576",4,36,2,1,136,2,1,1,3,0.386792482711055,0.35883330572944
"1577",4,22,2,1,137,2,2,0,2,0.623032602634279,0.593079671852248
"1578",4,39,2,1,138,2,1,1,3,0.758708099140172,0.740042923466194
"1579",4,24,2,2,139,3,2,1,3,1.14952962836823,1.1442880784344
"1580",4,18,2,1,140,2,1,1,4,0.590062935863335,0.668573731213185
"1581",4,23,2,1,141,1,1,1,5,0.495252592491944,0.508716703079771
"1582",4,33,2,1,142,2,2,0,3,0.715584478553918,0.71034941615921
"1583",4,32,2,2,143,1,2,1,5,0.369429974078904,0.376416200031324
"1584",4,19,2,1,144,3,2,0,2,1.39813959645861,1.44623304995289
"1585",4,23,2,1,145,2,1,1,3,0.447783291567479,0.354618229139662
"1586",4,36,2,2,146,2,1,0,3,0.650233602403229,0.637136126232852
"1587",4,22,2,2,147,2,2,1,4,0.475199493307558,0.570075014442527
"1588",4,39,2,1,148,2,1,1,4,0.76675577319161,0.667061499359729
"1589",4,24,2,1,149,3,2,0,1,0.523577937100125,0.545596164048284
"1590",4,18,2,1,150,1,2,0,3,0.541970467561438,0.524799610155706
"1591",4,23,2,1,151,1,1,1,4,0.460824221490738,0.504643637974206
"1592",4,33,2,2,152,1,2,1,4,0.213849077507494,0.163274605097888
"1593",4,32,2,2,153,2,1,0,3,0.831593535854761,0.917416981357678
"1594",4,19,2,1,154,1,1,1,4,0.349045668366253,0.375195807817573
"1595",4,23,2,1,155,3,2,0,1,1.3614341032861,1.35522859151416
"1596",4,36,2,1,156,3,2,0,1,1.10250397389565,1.02394246185246
