"","subj_no","age","group","stim","trial","difficulty","resp","corr","conf","RT_day1","RT_day2"
"1",11,27,1,2,1,3,2,1,3,0.925495095702228,0.975708041214951
"2",11,40,1,2,2,1,2,1,4,0.393506989447055,0.413194442536755
"3",11,30,1,1,3,3,2,0,1,0.323540230936726,0.331734332515546
"4",11,33,1,1,4,2,2,0,2,0.63139045898285,0.559868131554031
"5",11,19,1,1,5,2,1,1,4,0.681398720870423,0.662021367666892
"6",11,30,1,2,6,2,2,1,3,0.546604954183163,0.535997098179182
"7",11,31,1,2,7,2,2,1,3,0.550618885281436,0.516598603166206
"8",11,34,1,1,8,2,2,0,2,0.555388236821051,0.571251473628237
"9",11,34,1,1,9,2,1,1,3,0.685306314583162,0.550157649025529
"10",11,38,1,2,10,2,1,0,2,0.731342206185774,0.695220923456385
"11",11,27,1,2,11,3,2,1,3,0.702996104274952,0.726059057279474
"12",11,40,1,1,12,1,1,1,4,0.423219800228444,0.348083778891074
"13",11,30,1,2,13,2,2,1,3,0.334445547298145,0.328834686876327
"14",11,33,1,1,14,1,2,0,4,0.577994498166345,0.621909025722077
"15",11,19,1,2,15,1,1,0,4,0.491545336968968,0.501703473138532
"16",11,30,1,2,16,2,2,1,4,0.461474706024796,0.433745995141831
"17",11,31,1,2,17,2,1,0,2,0.678844737214879,0.747125694801399
"18",11,34,1,1,18,3,2,0,1,1.30733181323171,1.25077680327267
"19",11,34,1,2,19,2,2,1,4,0.48917086033443,0.473028205284014
"20",11,38,1,1,20,1,1,1,4,0.458250028835056,0.555413336928298
"21",11,27,1,1,21,2,2,0,3,0.555677718941379,0.493725227147899
"22",11,40,1,1,22,2,1,1,4,0.496971080203463,0.552562208392323
"23",11,30,1,1,23,1,1,1,4,0.31043010802718,0.291615242177294
"24",11,33,1,1,24,3,2,0,1,1.45900077861342,1.41159642699377
"25",11,19,1,2,25,1,2,1,4,0.413894733382141,0.468788197948307
"26",11,30,1,2,26,3,2,1,3,0.50764260174355,0.421697744562602
"27",11,31,1,1,27,1,1,1,4,0.40001243587207,0.450782646295243
"28",11,34,1,2,28,1,2,1,4,0.37181561342164,0.386860902385491
"29",11,34,1,2,29,3,2,1,2,0.733841065711314,0.816208320983377
"30",11,38,1,1,30,1,1,1,5,0.366765023827756,0.332512139859966
"31",11,27,1,1,31,3,2,0,2,0.767996515982732,0.72925537481923
"32",11,40,1,1,32,1,1,1,4,0.299413330066563,0.25442772019842
"33",11,30,1,1,33,1,1,1,4,0.30521892997413,0.266813461962863
"34",11,33,1,2,34,2,1,0,2,0.589128827451243,0.632079016062332
"35",11,19,1,1,35,3,1,1,3,0.649353119401658,0.665640088242498
"36",11,30,1,1,36,3,1,1,2,0.466178698365223,0.549631726616561
"37",11,31,1,2,37,3,2,1,3,0.925215671980133,0.925522812829923
"38",11,34,1,2,38,2,2,1,3,0.656862679504538,0.64480465399599
"39",11,34,1,2,39,1,1,0,4,0.585502761979915,0.552978958722745
"40",11,38,1,2,40,2,1,0,3,0.683159131571327,0.655862776590819
"41",11,27,1,1,41,3,1,1,2,1.0697003416531,1.0352399262845
"42",11,40,1,1,42,2,1,1,3,0.687890002010034,0.683659086203055
"43",11,30,1,2,43,2,1,0,3,0.792512089082554,0.764530752132629
"44",11,33,1,2,44,2,2,1,3,0.670630443885525,0.575285961590507
"45",11,19,1,1,45,3,2,0,2,1.06159334579854,1.03529542734491
"46",11,30,1,2,46,3,2,1,2,0.974943038544099,1.00286488680548
"47",11,31,1,2,47,3,1,0,2,0.622124115801865,0.582936406896362
"48",11,34,1,1,48,2,1,1,4,0.621889153635802,0.547582974463085
"49",11,34,1,2,49,1,2,1,4,0.35538565880542,0.384240120615246
"50",11,38,1,1,50,2,1,1,4,0.811398802908635,0.816607610873154
"51",11,27,1,2,51,3,1,0,2,1.02986345874128,1.01657054485643
"52",11,40,1,1,52,3,1,1,2,0.961649486023155,1.01145785180573
"53",11,30,1,1,53,1,2,0,4,0.527569748794182,0.494245865172972
"54",11,33,1,1,54,1,2,0,3,0.662251092488665,0.562645804067861
"55",11,19,1,2,55,2,2,1,4,0.488381837873295,0.510740101924109
"56",11,30,1,1,56,1,1,1,4,0.351746203916053,0.434030074159332
"57",11,31,1,1,57,1,1,1,5,0.404593153785647,0.344042710736323
"58",11,34,1,2,58,2,2,1,3,0.937147258305287,0.926916092532854
"59",11,34,1,2,59,2,2,1,4,0.433673825195729,0.553798649094655
"60",11,38,1,1,60,3,1,1,3,0.587217182115227,0.574590731644928
"61",11,27,1,1,61,1,2,0,3,0.640059113253755,0.652453768493252
"62",11,40,1,1,62,3,2,0,2,0.97893640899178,0.90755066554623
"63",11,30,1,2,63,3,2,1,3,0.573252936752198,0.553868227358373
"64",11,33,1,1,64,2,1,1,4,0.659747358884882,0.74242037520414
"65",11,19,1,2,65,2,2,1,3,0.697182741881011,0.676068182724961
"66",11,30,1,2,66,3,1,0,2,0.49930788710716,0.46107329336004
"67",11,31,1,2,67,3,1,0,1,0.889457455348204,0.918457473656549
"68",11,34,1,1,68,1,1,1,4,0.592673484830453,0.636688467455078
"69",11,34,1,2,69,3,2,1,3,0.641121880079746,0.72515348159881
"70",11,38,1,1,70,1,1,1,4,0.496937609809824,0.474109868505408
"71",11,27,1,1,71,3,2,0,1,1.45894475521971,1.50832250075968
"72",11,40,1,1,72,2,1,1,4,0.538473336723072,0.619000083006469
"73",11,30,1,1,73,3,1,1,2,0.774136833825794,0.742928234204319
"74",11,33,1,1,74,1,1,1,5,0.281528821701472,0.291124350064171
"75",11,19,1,2,75,3,2,1,2,0.614636854735101,0.541626519139982
"76",11,30,1,1,76,1,1,1,5,0.369817811668216,0.365454492589874
"77",11,31,1,1,77,3,2,0,2,0.74002424936068,0.769761300301193
"78",11,34,1,1,78,1,1,1,4,0.343777536852758,0.371187499755009
"79",11,34,1,2,79,1,1,0,4,0.741756658769871,0.650071347205427
"80",11,38,1,2,80,1,2,1,5,0.443483762558373,0.400835965642024
"81",11,27,1,2,81,1,1,0,4,0.483698007157442,0.427309548539988
"82",11,40,1,1,82,1,2,0,3,0.596385868139352,0.556453273673888
"83",11,30,1,1,83,3,1,1,2,0.93797616880613,0.972048249794465
"84",11,33,1,2,84,3,1,0,2,0.723039940663287,0.705680296223143
"85",11,19,1,1,85,1,2,0,4,0.426768931432987,0.310629181366328
"86",11,30,1,2,86,2,2,1,4,0.673423704346908,0.696087644533687
"87",11,31,1,1,87,2,1,1,3,0.632047010496749,0.642499234971372
"88",11,34,1,2,88,3,2,1,2,0.95031021306582,0.940051242843461
"89",11,34,1,1,89,1,2,0,3,0.593165802060274,0.582514043702412
"90",11,38,1,1,90,1,1,1,4,0.318766516933251,0.294335410854753
"91",11,27,1,2,91,2,2,1,4,0.546907955499368,0.57635417326166
"92",11,40,1,1,92,2,2,0,2,0.520584134424717,0.506751951613677
"93",11,30,1,1,93,2,1,1,4,0.439096835636217,0.478839861060213
"94",11,33,1,1,94,1,1,1,4,0.451057567640368,0.434897209759666
"95",11,19,1,1,95,3,2,0,2,1.10419599680932,1.1178888354201
"96",11,30,1,2,96,1,2,1,5,0.384119064674293,0.440226586218876
"97",11,31,1,2,97,2,1,0,2,0.391573012461769,0.315505894319723
"98",11,34,1,2,98,2,2,1,4,0.71110278262126,0.728255319181353
"99",11,34,1,2,99,1,2,1,4,0.524838055097921,0.588012870050584
"100",11,38,1,1,100,1,1,1,4,0.502951753216825,0.518222886020171
"101",11,27,1,2,101,3,1,0,2,1.35911518303495,1.3649919961772
"102",11,40,1,2,102,3,2,1,2,0.92553002883322,0.935636028701659
"103",11,30,1,1,103,2,1,1,3,0.34366596704687,0.375596394920047
"104",11,33,1,2,104,2,1,0,3,0.844357316968708,0.914484875276855
"105",11,19,1,2,105,2,2,1,3,0.452355114259333,0.405232233059536
"106",11,30,1,2,106,3,2,1,2,0.581820587840509,0.49836577463095
"107",11,31,1,1,107,2,2,0,2,0.351006297329833,0.387834334255847
"108",11,34,1,2,108,1,1,0,3,0.599672146844159,0.657120637504326
"109",11,34,1,1,109,2,1,1,4,0.786037064902551,0.818976067772999
"110",11,38,1,2,110,2,2,1,4,0.501221911979048,0.475139182265709
"111",11,27,1,1,111,1,1,1,5,0.364480277917445,0.3992971891932
"112",11,40,1,1,112,1,2,0,4,0.613543773110081,0.594923779176389
"113",11,30,1,2,113,2,2,1,4,0.605357408742639,0.615601705400316
"114",11,33,1,2,114,2,2,1,4,0.499312964867514,0.501088166683566
"115",11,19,1,2,115,2,2,1,3,0.522491128076003,0.493232943250397
"116",11,30,1,1,116,3,1,1,2,0.608843468375511,0.62022071517703
"117",11,31,1,2,117,3,2,1,3,0.808362170840133,0.762034622802322
"118",11,34,1,1,118,3,1,1,3,0.675450295843246,0.680676430884094
"119",11,34,1,2,119,2,1,0,2,0.641363459134499,0.656569849738052
"120",11,38,1,2,120,3,2,1,3,0.603684332925525,0.618369666234247
"121",11,27,1,2,121,2,2,1,4,0.57806987836341,0.526439914598173
"122",11,40,1,2,122,1,2,1,4,0.478021851941845,0.453241010227182
"123",11,30,1,1,123,2,1,1,4,0.740820659226402,0.755534009537398
"124",11,33,1,1,124,1,1,1,4,0.485490680745879,0.410330149186925
"125",11,19,1,2,125,1,2,1,4,0.41256956099499,0.438216708063424
"126",11,30,1,2,126,1,2,1,5,0.292595913955236,0.332377541250164
"127",11,31,1,2,127,1,2,1,4,0.4423848272675,0.524860766709407
"128",11,34,1,1,128,1,2,0,3,0.58546915491892,0.594906637632
"129",11,34,1,2,129,3,1,0,1,1.01565707763592,1.00435399823835
"130",11,38,1,2,130,2,2,1,3,0.675414269666807,0.595074652784666
"131",11,27,1,1,131,1,2,0,3,0.487683439759913,0.509786528761306
"132",11,40,1,2,132,1,2,1,4,0.358109942504826,0.452479337034753
"133",11,30,1,1,133,3,1,1,2,0.768188629544755,0.747744712216315
"134",11,33,1,1,134,1,1,1,4,0.31743675741028,0.291839488497729
"135",11,19,1,1,135,1,1,1,4,0.384699499319074,0.295392902720535
"136",11,30,1,1,136,3,1,1,3,0.738143485493093,0.716236865515716
"137",11,31,1,2,137,2,2,1,4,0.725514966577433,0.749473260034127
"138",11,34,1,1,138,1,1,1,4,0.520735686179273,0.470660579888894
"139",11,34,1,1,139,3,1,1,3,0.672355818726346,0.551293290341557
"140",11,38,1,2,140,1,2,1,5,0.417407145512495,0.373440362750152
"141",11,27,1,2,141,3,2,1,2,0.915872729950791,0.850698523583493
"142",11,40,1,2,142,1,2,1,5,0.305371297343996,0.261570408365617
"143",11,30,1,1,143,1,1,1,5,0.512436705993912,0.422761422805242
"144",11,33,1,2,144,3,1,0,1,0.764545731605727,0.723699720452271
"145",11,19,1,1,145,2,2,0,2,0.567652151686755,0.561101096333894
"146",11,30,1,1,146,1,1,1,5,0.542188277843641,0.447940825186286
"147",11,31,1,2,147,1,2,1,5,0.428409711464383,0.441464737038932
"148",11,34,1,2,148,2,1,0,2,0.741655508911272,0.736583756444217
"149",11,34,1,1,149,1,1,1,4,0.247983649466181,0.351781234504489
"150",11,38,1,2,150,3,2,1,3,0.706132405576594,0.691068253039927
"151",11,27,1,1,151,3,2,0,1,0.263480791962015,0.2448708843767
"152",11,40,1,2,152,2,1,0,3,0.569607909047377,0.598826241332917
"153",11,30,1,2,153,3,1,0,1,0.842468945781717,0.859899264687681
"154",11,33,1,1,154,1,2,0,3,0.589051945235252,0.587421955847899
"155",11,19,1,1,155,3,2,0,2,0.678027952101579,0.75598397098017
"156",11,30,1,1,156,2,1,1,4,0.575117902648905,0.535482384457867
"157",11,31,1,2,157,2,2,1,4,0.420422412948528,0.422549882378451
"158",11,34,1,2,158,3,2,1,2,0.794558149285233,0.733260132683912
"159",11,34,1,2,159,1,2,1,5,0.344460689229807,0.375893925172827
"160",11,38,1,2,160,2,1,0,3,0.823889303916889,0.830738009948147
"161",11,27,1,2,161,2,2,1,3,0.769224934783457,0.816696542658184
"162",11,40,1,2,162,2,1,0,2,0.68820474245857,0.677625119951163
"163",11,30,1,2,163,3,2,1,3,0.550352672058357,0.543792821201438
"164",11,33,1,2,164,3,2,1,3,0.535694258896204,0.49935696073364
"165",11,19,1,2,165,3,1,0,2,0.875890842342169,0.872872281158335
"166",11,30,1,1,166,3,2,0,2,1.40387418863445,1.3914937660529
"167",11,31,1,2,167,1,2,1,4,0.436911852519118,0.469822881146135
"168",11,34,1,1,168,3,1,1,2,0.922465496529246,0.848096558653893
"169",11,34,1,1,169,1,2,0,4,0.581732906742031,0.454858148008608
"170",11,38,1,2,170,3,2,1,3,1.09578664526861,1.08137929366149
"171",11,27,1,2,171,3,1,0,1,0.893873825394145,0.899872712634827
"172",11,40,1,2,172,2,2,1,3,0.703556254555825,0.732049673959415
"173",11,30,1,1,173,3,1,1,2,0.566019110667544,0.540954148494776
"174",11,33,1,2,174,2,2,1,4,0.780095744453007,0.861150410861909
"175",11,19,1,1,175,2,1,1,3,0.802958250516549,0.799561512633988
"176",11,30,1,1,176,3,1,1,2,0.688200733024622,0.744870878640012
"177",11,31,1,1,177,3,2,0,2,1.00399927972504,0.928281208705598
"178",11,34,1,2,178,3,2,1,3,0.908850441147659,0.832706494170911
"179",11,34,1,1,179,2,1,1,4,0.572340433496391,0.656831461703326
"180",11,38,1,1,180,2,1,1,4,0.56783129393605,0.472137678806386
"181",11,27,1,1,181,3,1,1,3,1.00226534280754,0.920003611952413
"182",11,40,1,1,182,2,2,0,3,0.456416154475814,0.48533586844192
"183",11,30,1,2,183,1,2,1,4,0.453621548700421,0.387691054454692
"184",11,33,1,1,184,2,1,1,3,0.563218502847736,0.604233441906542
"185",11,19,1,1,185,3,1,1,3,0.803784860401707,0.723449525769885
"186",11,30,1,2,186,2,1,0,3,0.65492753062672,0.777618422484092
"187",11,31,1,1,187,1,1,1,4,0.417454725396141,0.424038722959946
"188",11,34,1,2,188,2,2,1,4,0.657763452810828,0.695905619627294
"189",11,34,1,2,189,2,2,1,3,0.64536696033555,0.722230436608083
"190",11,38,1,2,190,2,2,1,4,0.668949677156283,0.665841519850046
"191",11,27,1,2,191,2,2,1,3,0.597199499606785,0.550477653865273
"192",11,40,1,1,192,3,2,0,2,1.39569431059383,1.44074567287839
"193",11,30,1,2,193,2,2,1,3,0.514342319009969,0.534400758876797
"194",11,33,1,2,194,3,1,0,2,1.34631690914778,1.37421279144056
"195",11,19,1,2,195,1,1,0,3,0.665199114171845,0.636991051164638
"196",11,30,1,1,196,1,1,1,5,0.271530059253077,0.306360649014731
"197",11,31,1,1,197,2,1,1,3,0.481374853192102,0.510651918896855
"198",11,34,1,2,198,1,2,1,5,0.531326159645938,0.544003246215908
"199",11,34,1,1,199,1,1,1,4,0.393500695770679,0.480303383870667
"200",11,38,1,1,200,2,2,0,3,0.761620734191289,0.748972611057749
"201",11,27,1,2,201,3,2,1,2,1.02471813687434,1.03288105212921
"202",11,40,1,2,202,1,2,1,5,0.599984986994288,0.576139281039932
"203",11,30,1,1,203,3,2,0,2,0.61113216956082,0.641651755579788
"204",11,33,1,1,204,1,1,1,4,0.244330029346081,0.250281331854325
"205",11,19,1,2,205,3,1,0,1,1.7983558153817,1.82479748202824
"206",11,30,1,2,206,3,2,1,2,0.854915088662999,0.908611142698112
"207",11,31,1,2,207,1,2,1,5,0.426806497393881,0.426726178479911
"208",11,34,1,2,208,2,1,0,3,0.525132773377628,0.537973427953785
"209",11,34,1,2,209,2,2,1,3,0.542014357008649,0.563768485980757
"210",11,38,1,2,210,2,2,1,3,0.803549431691316,0.763818500061881
"211",11,27,1,2,211,1,2,1,4,0.453946320308248,0.469111576419388
"212",11,40,1,2,212,3,2,1,2,0.579517558096073,0.533979390924861
"213",11,30,1,1,213,3,2,0,1,1.17324126578337,1.17293739517403
"214",11,33,1,1,214,2,2,0,2,0.737256263473953,0.692959235471154
"215",11,19,1,1,215,2,2,0,2,0.857865391547467,0.90310495590963
"216",11,30,1,1,216,1,2,0,4,0.480004418780335,0.506576985293751
"217",11,31,1,1,217,1,1,1,4,0.345704570590291,0.383762249650619
"218",11,34,1,1,218,2,2,0,2,0.890128013568116,0.867358923169009
"219",11,34,1,1,219,3,1,1,3,0.414699125712052,0.383705627180257
"220",11,38,1,1,220,2,1,1,4,0.554869225570141,0.562317784448968
"221",11,27,1,1,221,2,2,0,2,0.74476158723775,0.721472259704579
"222",11,40,1,1,222,3,2,0,2,0.548815450266185,0.514747244791937
"223",11,30,1,1,223,1,1,1,4,0.452449734459319,0.40782750994731
"224",11,33,1,1,224,3,2,0,1,1.21069576814369,1.2704244199237
"225",11,19,1,2,225,3,1,0,1,1.69647922046667,1.6642458375457
"226",11,30,1,2,226,1,2,1,4,0.517993329216739,0.534410658493856
"227",11,31,1,1,227,3,1,1,2,1.06123699092195,1.10753887541595
"228",11,34,1,2,228,1,2,1,4,0.331358940511521,0.41850397511833
"229",11,34,1,1,229,1,1,1,4,0.292557227573935,0.37713255846297
"230",11,38,1,2,230,3,2,1,2,0.89541745768258,0.923412851219852
"231",11,27,1,1,231,3,1,1,3,0.885637753042561,0.892512167365226
"232",11,40,1,2,232,3,2,1,2,0.622546798329405,0.56092945008245
"233",11,30,1,1,233,1,1,1,5,0.30309983765364,0.269896673694225
"234",11,33,1,1,234,3,1,1,3,0.396724685400103,0.356911253255079
"235",11,19,1,2,235,1,2,1,5,0.325057858846351,0.44867505110594
"236",11,30,1,2,236,1,2,1,4,0.436586706347761,0.416991798694265
"237",11,31,1,1,237,2,1,1,3,0.583725218461444,0.657079966487754
"238",11,34,1,2,238,1,2,1,5,0.310681768233368,0.319234129101678
"239",11,34,1,1,239,1,1,1,4,0.452516339757073,0.378906935381109
"240",11,38,1,1,240,3,1,1,2,0.622463246241977,0.61165418682325
"241",10,23,2,2,1,2,1,0,2,0.607614943256334,0.644375420617055
"242",10,36,2,1,2,3,2,0,1,0.709003690648685,0.709635834402646
"243",10,38,2,2,3,2,2,1,4,0.623201343356036,0.659813796203654
"244",10,25,2,2,4,1,1,0,3,0.688075932617567,0.65884212399094
"245",10,20,2,1,5,2,1,1,4,0.729647977614218,0.690004498951564
"246",10,40,2,1,6,1,1,1,5,0.409868386653865,0.42840863431723
"247",10,23,2,2,7,3,1,0,2,0.731638088206367,0.842601544972388
"248",10,20,2,2,8,1,1,0,4,0.443952475990547,0.492088502676117
"249",10,40,2,2,9,3,1,0,1,1.34663842111463,1.30998525476369
"250",10,23,2,2,10,1,1,0,4,0.569362745180381,0.62759366203244
"251",10,23,2,1,11,1,1,1,5,0.346703072254113,0.315573030249009
"252",10,36,2,1,12,2,2,0,2,0.742877026058049,0.770711772831353
"253",10,38,2,2,13,3,1,0,1,0.99696099209907,1.03169175693058
"254",10,25,2,2,14,2,2,1,3,0.6421189212578,0.747216445777587
"255",10,20,2,1,15,2,2,0,3,0.840221102554756,0.841043305794056
"256",10,40,2,1,16,2,1,1,4,0.591093908532666,0.657109384108507
"257",10,23,2,1,17,1,1,1,4,0.611222703128785,0.647788602028269
"258",10,20,2,2,18,1,2,1,5,0.481894354998255,0.496174255862047
"259",10,40,2,1,19,1,1,1,4,0.387171006440054,0.344103568957187
"260",10,23,2,1,20,1,2,0,4,0.626453324415254,0.58210778951464
"261",10,23,2,2,21,3,2,1,3,0.327720792917462,0.357158098826698
"262",10,36,2,1,22,1,1,1,5,0.455750739300231,0.464471521984688
"263",10,38,2,2,23,1,2,1,4,0.40837268237081,0.449921589099822
"264",10,25,2,2,24,3,2,1,2,0.574115282410826,0.556022920851687
"265",10,20,2,1,25,2,2,0,3,1.01032221861057,1.03176969487761
"266",10,40,2,1,26,2,1,1,4,0.664281647685352,0.539796876446213
"267",10,23,2,1,27,3,2,0,2,0.363580392302839,0.270201450971137
"268",10,20,2,1,28,1,1,1,5,0.5618533313372,0.423211857021066
"269",10,40,2,1,29,2,2,0,2,0.738129859752472,0.657586676142396
"270",10,23,2,1,30,2,1,1,3,0.764468335022627,0.777838736497393
"271",10,23,2,1,31,1,1,1,5,0.357697176473411,0.372386335732105
"272",10,36,2,2,32,1,1,0,4,0.610569746428827,0.686348969772736
"273",10,38,2,1,33,1,1,1,4,0.325982420781719,0.33984348203935
"274",10,25,2,1,34,1,1,1,5,0.404291361346831,0.427859103047825
"275",10,20,2,2,35,1,2,1,5,0.400538388932855,0.456826677966525
"276",10,40,2,2,36,2,2,1,4,0.345243242612696,0.413131330475029
"277",10,23,2,1,37,1,1,1,4,0.400560349209375,0.409012960906922
"278",10,20,2,2,38,3,1,0,1,1.14269255315762,1.08251767446616
"279",10,40,2,1,39,1,1,1,4,0.349436275585413,0.322323975377082
"280",10,23,2,1,40,1,1,1,5,0.323634222219537,0.313288372251119
"281",10,23,2,1,41,1,2,0,4,0.476460698878079,0.459177060882036
"282",10,36,2,2,42,3,2,1,3,0.500213940072176,0.520388961493181
"283",10,38,2,1,43,2,2,0,2,0.685351504397382,0.621800431761258
"284",10,25,2,2,44,1,1,0,4,0.59257261646032,0.655364188796022
"285",10,20,2,2,45,3,1,0,1,0.597877238812866,0.627110922774536
"286",10,40,2,2,46,3,2,1,2,0.908052728715827,0.952619309709671
"287",10,23,2,1,47,3,2,0,1,0.644122677805534,0.608514708235757
"288",10,20,2,2,48,3,1,0,1,0.334055672302499,0.38838830705153
"289",10,40,2,1,49,3,1,1,2,0.624890659883099,0.645025065338988
"290",10,23,2,2,50,2,1,0,2,0.5569056333427,0.564253922055831
"291",10,23,2,2,51,3,2,1,2,0.911362285473987,0.931403252712165
"292",10,36,2,1,52,2,1,1,4,0.596018526828819,0.510733626176995
"293",10,38,2,2,53,2,1,0,2,0.883815310224645,0.892360743327089
"294",10,25,2,2,54,1,2,1,5,0.335169347723035,0.361428291904552
"295",10,20,2,2,55,2,2,1,4,0.704454726677762,0.702559141166974
"296",10,40,2,1,56,2,2,0,3,0.69476067347048,0.793781311825982
"297",10,23,2,1,57,1,1,1,5,0.445639596815912,0.453179564534058
"298",10,20,2,1,58,2,1,1,4,0.749589630923082,0.79779911840147
"299",10,40,2,1,59,3,2,0,1,0.568534597792706,0.586682876088424
"300",10,23,2,1,60,3,2,0,2,0.641264271818936,0.671123868818484
"301",10,23,2,1,61,1,1,1,4,0.312065459971303,0.32894963394767
"302",10,36,2,2,62,3,1,0,2,1.60844131414771,1.63201771027594
"303",10,38,2,1,63,2,2,0,3,0.805195829746215,0.803291825510788
"304",10,25,2,2,64,2,1,0,3,0.612223246565237,0.605593431087221
"305",10,20,2,2,65,3,2,1,2,0.678516496449543,0.623197134932529
"306",10,40,2,2,66,2,2,1,3,0.63499179334671,0.715821291636375
"307",10,23,2,2,67,2,2,1,4,0.555285806719682,0.568554839469464
"308",10,20,2,1,68,3,2,0,1,1.27402864305213,1.19883693228489
"309",10,40,2,1,69,3,1,1,2,0.219311959765489,0.116359458543236
"310",10,23,2,1,70,1,1,1,4,0.33580444498102,0.383299922017017
"311",10,23,2,2,71,1,2,1,5,0.471202742586779,0.45225452342946
"312",10,36,2,1,72,3,1,1,3,1.03017111371023,1.01562702033324
"313",10,38,2,2,73,2,1,0,3,0.703835674275394,0.695275854690947
"314",10,25,2,2,74,2,2,1,3,0.516324508713217,0.522421204740443
"315",10,20,2,1,75,1,1,1,4,0.447349020433378,0.429246448035979
"316",10,40,2,1,76,2,2,0,3,0.492185067467804,0.48364761822765
"317",10,23,2,2,77,1,2,1,5,0.383958644207931,0.330026782292318
"318",10,20,2,2,78,1,1,0,3,0.587853922597692,0.592629501816962
"319",10,40,2,1,79,3,2,0,2,0.946251901562454,0.990827687760673
"320",10,23,2,1,80,2,2,0,2,0.749904644150338,0.745266810733329
"321",10,23,2,1,81,2,2,0,3,0.485144360170986,0.433188776277427
"322",10,36,2,2,82,2,2,1,4,0.484459508000181,0.544343016548334
"323",10,38,2,2,83,3,2,1,3,0.781701098376676,0.730229915093164
"324",10,25,2,2,84,2,2,1,4,0.740147085658572,0.799642476910665
"325",10,20,2,1,85,3,2,0,2,1.91458042542412,1.88383752939241
"326",10,40,2,2,86,2,1,0,2,0.553737935501264,0.584202883383792
"327",10,23,2,2,87,2,1,0,3,0.547247347281847,0.586262046950519
"328",10,20,2,1,88,1,1,1,4,0.317610208864168,0.261788269932247
"329",10,40,2,1,89,2,1,1,3,0.540301588936584,0.482670425209992
"330",10,23,2,1,90,1,1,1,4,0.390166084604744,0.423199014623739
"331",10,23,2,1,91,1,1,1,4,0.466199135535203,0.419893301595428
"332",10,36,2,2,92,1,2,1,5,0.409720009364351,0.327022359191241
"333",10,38,2,1,93,1,1,1,5,0.336501536787141,0.345849709971051
"334",10,25,2,1,94,3,2,0,2,0.457969688319137,0.385125138403805
"335",10,20,2,1,95,1,1,1,4,0.412032398502611,0.409943616797558
"336",10,40,2,1,96,1,2,0,3,0.666323491077492,0.692660039898015
"337",10,23,2,2,97,2,1,0,3,0.795658023202606,0.818287982570988
"338",10,20,2,1,98,3,1,1,3,0.608571705140329,0.686026584830149
"339",10,40,2,1,99,1,1,1,4,0.473768287161419,0.466086563892372
"340",10,23,2,2,100,1,2,1,5,0.479980401471415,0.505041129580571
"341",10,23,2,2,101,1,2,1,5,0.439443077138936,0.416286306917378
"342",10,36,2,2,102,1,2,1,4,0.424194149764179,0.498701457671717
"343",10,38,2,2,103,1,1,0,4,0.436428708391534,0.360546020734426
"344",10,25,2,1,104,1,1,1,5,0.418444746114172,0.372403199056792
"345",10,20,2,1,105,1,1,1,5,0.293013754525174,0.30339745450116
"346",10,40,2,1,106,1,1,1,5,0.582502902193565,0.657357256197998
"347",10,23,2,1,107,2,1,1,4,0.534374711870443,0.557470441352825
"348",10,20,2,2,108,1,2,1,5,0.336064367008089,0.359906835597783
"349",10,40,2,1,109,3,2,0,1,1.29100895091868,1.23321891750019
"350",10,23,2,1,110,2,1,1,3,0.725975080822472,0.753190400665631
"351",10,23,2,2,111,2,1,0,3,0.576441647706063,0.603919585998974
"352",10,36,2,1,112,3,1,1,3,1.2973702667461,1.24971896402346
"353",10,38,2,2,113,3,2,1,2,0.832990021941063,0.91028851046002
"354",10,25,2,1,114,2,2,0,2,0.542661475890517,0.535634878942645
"355",10,20,2,1,115,3,2,0,1,1.35553840206915,1.36191455114773
"356",10,40,2,2,116,3,1,0,1,1.29315232255548,1.328906348537
"357",10,23,2,2,117,2,1,0,2,0.193095073540954,0.191327680134729
"358",10,20,2,1,118,3,1,1,3,0.602234453232209,0.624800206210683
"359",10,40,2,2,119,3,2,1,3,0.222090870059849,0.175869763500009
"360",10,23,2,2,120,1,2,1,4,0.362065425061623,0.314093094559383
"361",10,23,2,1,121,1,1,1,5,0.338201041764599,0.394323153445564
"362",10,36,2,2,122,2,2,1,4,0.670427646172276,0.725042157831882
"363",10,38,2,2,123,2,1,0,3,1.02164257708029,0.968585509052707
"364",10,25,2,2,124,2,2,1,3,0.527589524118988,0.532116941515563
"365",10,20,2,2,125,3,2,1,2,0.690219811365698,0.806042705197932
"366",10,40,2,1,126,1,1,1,5,0.489730403781178,0.536068674113533
"367",10,23,2,1,127,3,1,1,3,0.742156817525633,0.724192184367136
"368",10,20,2,1,128,3,2,0,2,1.11807141092035,1.01007532541807
"369",10,40,2,1,129,2,2,0,3,0.635707108165646,0.501851898369953
"370",10,23,2,2,130,1,2,1,5,0.380205430497236,0.369836880311648
"371",10,23,2,1,131,1,1,1,4,0.331750810185399,0.368717560878806
"372",10,36,2,1,132,2,1,1,3,0.568641322080733,0.521722102240533
"373",10,38,2,2,133,3,1,0,1,0.834445640282511,0.793514949735925
"374",10,25,2,2,134,2,1,0,3,0.517211452139499,0.607853116543782
"375",10,20,2,2,135,1,2,1,5,0.472808880258042,0.454603092903595
"376",10,40,2,2,136,3,2,1,2,0.722992831602636,0.781235429565298
"377",10,23,2,1,137,2,2,0,3,0.847214480252215,0.848024762874557
"378",10,20,2,2,138,3,2,1,3,0.715650875790844,0.748376171396751
"379",10,40,2,2,139,2,2,1,4,0.48778777776615,0.461993162257403
"380",10,23,2,1,140,3,2,0,2,0.461789122666009,0.470731462241291
"381",10,23,2,2,141,2,2,1,3,0.594193901087024,0.648936070858187
"382",10,36,2,2,142,2,1,0,3,0.323221071931271,0.355044777425046
"383",10,38,2,1,143,2,2,0,3,0.675680719374842,0.656276647012521
"384",10,25,2,2,144,1,2,1,5,0.446713702081305,0.458746098162971
"385",10,20,2,1,145,2,1,1,3,0.759247299816847,0.782252967625834
"386",10,40,2,1,146,2,2,0,2,0.910926790043365,0.832251134009114
"387",10,23,2,1,147,3,1,1,3,0.407681540262191,0.35424717968132
"388",10,20,2,2,148,3,2,1,2,0.510287537430188,0.518608388088771
"389",10,40,2,1,149,3,1,1,2,1.09781942249003,1.12627813868952
"390",10,23,2,2,150,3,2,1,2,0.552914086122541,0.54750033376591
"391",10,23,2,2,151,3,1,0,1,1.01542119289405,1.07834250674251
"392",10,36,2,1,152,3,1,1,2,0.666994748408376,0.649283997050929
"393",10,38,2,2,153,1,2,1,5,0.457113178199557,0.465528365732907
"394",10,25,2,2,154,3,1,0,2,1.03947212380859,1.01480159581561
"395",10,20,2,1,155,3,2,0,1,0.92757502554708,0.914839152815999
"396",10,40,2,2,156,3,1,0,2,1.87401849855066,1.85305039610859
"397",10,23,2,2,157,1,2,1,5,0.477071084146645,0.557865541194064
"398",10,20,2,1,158,3,1,1,2,0.914170397115113,0.930496900486278
"399",10,40,2,1,159,3,1,1,2,1.18868301233632,1.15464727842022
"400",10,23,2,2,160,1,1,0,4,0.557932424708794,0.479187163257192
"401",10,23,2,2,161,3,1,0,2,0.937677160473614,0.931796116137931
"402",10,36,2,2,162,1,2,1,5,0.429393745151196,0.431117482225241
"403",10,38,2,1,163,2,1,1,4,0.526725480095653,0.570821398981994
"404",10,25,2,1,164,1,1,1,4,0.434591809550306,0.411498870460353
"405",10,20,2,2,165,3,2,1,2,0.684042290792983,0.623863238051741
"406",10,40,2,2,166,1,2,1,5,0.339181170728668,0.359192756474645
"407",10,23,2,1,167,1,2,0,4,0.535676456740113,0.533067450406284
"408",10,20,2,1,168,1,1,1,5,0.376046054876379,0.378858256728902
"409",10,40,2,2,169,2,2,1,3,0.806902566471629,0.765979023285008
"410",10,23,2,2,170,3,1,0,2,0.855112919567227,0.926508275021911
"411",10,23,2,1,171,3,1,1,3,0.741193841290214,0.725157853937828
"412",10,36,2,1,172,2,2,0,3,0.964202138934949,0.873730926167823
"413",10,38,2,2,173,1,2,1,4,0.469057604913454,0.490506614743264
"414",10,25,2,2,174,2,1,0,3,0.879890963375822,0.925766440169248
"415",10,20,2,2,175,2,2,1,4,0.728949610586162,0.661241030457389
"416",10,40,2,2,176,3,2,1,2,0.620190847530879,0.607938686796984
"417",10,23,2,2,177,2,1,0,2,0.639304680060488,0.697928052975532
"418",10,20,2,1,178,1,2,0,3,0.467570269383394,0.404976627463404
"419",10,40,2,1,179,1,1,1,5,0.426299497946765,0.459008202081269
"420",10,23,2,2,180,1,2,1,5,0.330614179094453,0.256791189401766
"421",10,23,2,1,181,3,1,1,3,0.83658215282336,0.816824187865686
"422",10,36,2,2,182,3,2,1,3,0.922727832348167,0.923894909464734
"423",10,38,2,2,183,2,1,0,2,0.566726215573437,0.57527802861946
"424",10,25,2,1,184,1,2,0,4,0.566248843625115,0.543125179199453
"425",10,20,2,2,185,3,1,0,1,0.941515787522662,0.930748134951527
"426",10,40,2,1,186,2,2,0,2,0.832893224991899,0.827346190202017
"427",10,23,2,1,187,2,1,1,4,0.667254257763472,0.787253447354669
"428",10,20,2,2,188,1,2,1,4,0.301439309586135,0.254705941614149
"429",10,40,2,2,189,3,2,1,3,0.848160817230081,0.922046469951626
"430",10,23,2,1,190,2,1,1,4,0.496157219158736,0.489343137952939
"431",10,23,2,1,191,2,1,1,3,0.586845406160137,0.599698062533184
"432",10,36,2,2,192,3,1,0,2,1.42471140496307,1.42558715772728
"433",10,38,2,1,193,2,1,1,3,0.535854853374363,0.477239619233211
"434",10,25,2,2,194,1,2,1,4,0.459649595221168,0.414863034155811
"435",10,20,2,1,195,3,1,1,2,0.774746042101871,0.746814861755516
"436",10,40,2,2,196,3,1,0,2,1.28726758227933,1.25942271077066
"437",10,23,2,2,197,3,2,1,3,0.904819528778006,0.785131815343387
"438",10,20,2,1,198,2,2,0,2,0.816467389082345,0.905918087995954
"439",10,40,2,2,199,1,2,1,5,0.445509205555596,0.460229655389613
"440",10,23,2,1,200,3,1,1,2,0.983236590934209,0.872030543723186
"441",10,23,2,2,201,1,2,1,4,0.254005036220431,0.313164741467547
"442",10,36,2,2,202,1,2,1,4,0.273323352154941,0.233323425327531
"443",10,38,2,2,203,3,2,1,3,0.949226948678084,0.918796917285508
"444",10,25,2,1,204,3,2,0,2,1.39494000851202,1.39219533061467
"445",10,20,2,2,205,2,1,0,3,0.858222033590337,0.836735710006786
"446",10,40,2,2,206,2,1,0,3,0.703372376116182,0.724600451115583
"447",10,23,2,2,207,2,1,0,2,0.54769291634373,0.538744427863781
"448",10,20,2,1,208,3,1,1,2,0.570355656967762,0.588643998168114
"449",10,40,2,2,209,2,2,1,3,0.706353489623875,0.749250623985601
"450",10,23,2,2,210,3,1,0,2,0.981922533638404,1.01298561043442
"451",10,23,2,2,211,2,1,0,2,0.671686434269943,0.639841964589454
"452",10,36,2,2,212,2,1,0,2,0.699719880363334,0.619896125409732
"453",10,38,2,2,213,2,2,1,4,0.574769627411864,0.582860033091761
"454",10,25,2,1,214,3,2,0,1,0.97306355595806,1.01429027891221
"455",10,20,2,2,215,3,2,1,3,0.91020537231494,0.943329540306477
"456",10,40,2,2,216,1,2,1,5,0.429907942066246,0.453169642778507
"457",10,23,2,1,217,3,1,1,2,0.723650069397173,0.75477333208769
"458",10,20,2,1,218,3,1,1,3,0.802430814824303,0.878334391613871
"459",10,40,2,1,219,2,1,1,4,0.523903635374852,0.547155211749648
"460",10,23,2,2,220,2,2,1,3,0.467086912324669,0.492270956702563
"461",10,23,2,1,221,1,1,1,5,0.387664873471317,0.376231962754709
"462",10,36,2,2,222,1,2,1,5,0.503718536533976,0.444588065591688
"463",10,38,2,2,223,2,2,1,3,0.570387071302855,0.545811018716612
"464",10,25,2,1,224,1,1,1,5,0.473269780455384,0.398538046145716
"465",10,20,2,1,225,3,1,1,3,0.69918013878324,0.717013924288811
"466",10,40,2,1,226,1,1,1,5,0.416538342112573,0.391568821650417
"467",10,23,2,2,227,2,2,1,3,0.417188384801378,0.378370072943806
"468",10,20,2,1,228,2,1,1,3,0.529460662662655,0.504377557949861
"469",10,40,2,1,229,3,2,0,2,0.993038526826201,1.00079741262425
"470",10,23,2,2,230,1,2,1,5,0.232439803409586,0.175206782425145
"471",10,23,2,1,231,1,1,1,5,0.457681401647672,0.520509919111424
"472",10,36,2,2,232,3,1,0,2,0.362783386171308,0.299466912173158
"473",10,38,2,2,233,3,1,0,2,0.737894768201262,0.726301273561449
"474",10,25,2,1,234,1,1,1,4,0.420214983243723,0.432105139315837
"475",10,20,2,1,235,2,2,0,2,0.613570557821651,0.66104434343655
"476",10,40,2,1,236,3,2,0,1,1.36973695243014,1.35160308624999
"477",10,23,2,2,237,2,2,1,4,0.524990174239759,0.385077193645985
"478",10,20,2,1,238,3,1,1,3,0.829970837347903,0.898203856265522
"479",10,40,2,1,239,2,1,1,4,0.610758377581147,0.597785864281855
"480",10,23,2,1,240,1,1,1,5,0.436070959495963,0.444225949250955
"481",9,34,1,2,1,1,2,1,4,0.40921431300055,0.421868872544299
"482",9,26,1,1,2,1,1,1,5,0.389465282410816,0.323201167709352
"483",9,37,1,2,3,3,1,0,2,1.56539074808952,1.64242934163671
"484",9,33,1,1,4,2,1,1,3,0.664727700581641,0.667687667521232
"485",9,38,1,2,5,2,2,1,3,0.646166908494568,0.641408969893833
"486",9,35,1,1,6,2,2,0,2,0.780621600485562,0.796283548005086
"487",9,35,1,2,7,2,2,1,4,0.48360374327249,0.560275194989441
"488",9,31,1,2,8,1,2,1,5,0.380001855458798,0.380675891832914
"489",9,28,1,2,9,2,1,0,2,0.817424787137749,0.85199198488582
"490",9,31,1,1,10,3,2,0,1,0.885659799684401,0.903352118678124
"491",9,34,1,2,11,3,1,0,1,0.785089258307602,0.775162352257551
"492",9,26,1,2,12,3,2,1,2,1.07131540478459,1.11787609704382
"493",9,37,1,1,13,3,1,1,3,0.789743931223324,0.770504594839837
"494",9,33,1,2,14,2,1,0,2,0.917101322596957,0.860682060462196
"495",9,38,1,2,15,2,1,0,3,0.47348688955752,0.432041186041285
"496",9,35,1,2,16,2,1,0,3,0.531913106066788,0.554080364604284
"497",9,35,1,1,17,2,2,0,2,0.634259939702093,0.615307831964883
"498",9,31,1,1,18,1,1,1,4,0.320762019954493,0.382143622733556
"499",9,28,1,2,19,2,2,1,4,0.348192445209188,0.361500800540551
"500",9,31,1,2,20,2,2,1,3,0.661755191973678,0.680145317562247
"501",9,34,1,2,21,1,2,1,4,0.442539159292726,0.434971195712604
"502",9,26,1,2,22,3,1,0,2,0.864367458569315,0.821455735938683
"503",9,37,1,2,23,2,1,0,3,0.45508614326555,0.528147846640451
"504",9,33,1,2,24,1,1,0,3,0.550773240007784,0.576083343539786
"505",9,38,1,2,25,3,2,1,3,0.764489384801263,0.786707089556218
"506",9,35,1,2,26,1,2,1,4,0.423228894775366,0.454490739956841
"507",9,35,1,2,27,3,1,0,2,0.747788843845573,0.894752011292851
"508",9,31,1,1,28,1,2,0,3,0.443159703237753,0.470462274000946
"509",9,28,1,1,29,3,1,1,3,0.822373554837206,0.842542147036969
"510",9,31,1,2,30,3,2,1,2,0.58070863075167,0.56730973730025
"511",9,34,1,1,31,1,2,0,3,0.648357674706184,0.649852938223964
"512",9,26,1,1,32,3,2,0,2,0.364302598853308,0.301819117661564
"513",9,37,1,1,33,1,1,1,4,0.315172560953205,0.319507216546146
"514",9,33,1,2,34,2,1,0,2,0.605399868185362,0.621330251477529
"515",9,38,1,2,35,1,1,0,4,0.65769736828452,0.698418402363777
"516",9,35,1,2,36,2,1,0,3,0.793430299019759,0.754284606293602
"517",9,35,1,1,37,2,1,1,4,0.680131686732947,0.832039876771686
"518",9,31,1,1,38,3,1,1,3,1.00679174794606,1.0522275142132
"519",9,28,1,1,39,3,2,0,2,1.52565198339951,1.55210310523157
"520",9,31,1,1,40,1,1,1,5,0.424528740800203,0.425861904683901
"521",9,34,1,2,41,1,2,1,5,0.409240817580505,0.323255551564772
"522",9,26,1,2,42,1,2,1,4,0.434237515372834,0.488721729127413
"523",9,37,1,1,43,2,1,1,4,0.558496420182479,0.640861846293967
"524",9,33,1,1,44,1,1,1,4,0.424367804842972,0.448832401165951
"525",9,38,1,1,45,2,1,1,3,0.595207311976853,0.608909994102494
"526",9,35,1,2,46,3,1,0,1,1.12367625783622,1.08359221008812
"527",9,35,1,1,47,2,1,1,4,0.504135379090654,0.425228051028155
"528",9,31,1,1,48,2,1,1,3,0.722687760825814,0.762138679151614
"529",9,28,1,1,49,2,1,1,4,0.605950215294634,0.609356376736994
"530",9,31,1,1,50,2,1,1,4,0.672192475417841,0.703581590059494
"531",9,34,1,2,51,1,2,1,5,0.457080809929412,0.409840192414118
"532",9,26,1,1,52,3,1,1,2,0.878425939575066,0.903622911533463
"533",9,37,1,2,53,1,1,0,4,0.562620200248107,0.546134668160225
"534",9,33,1,2,54,1,2,1,4,0.461929868145489,0.447409149362636
"535",9,38,1,2,55,2,2,1,3,0.714296605817244,0.670329190375058
"536",9,35,1,1,56,1,1,1,5,0.480769475077991,0.532173223586902
"537",9,35,1,2,57,1,2,1,5,0.454920384896033,0.385568090585764
"538",9,31,1,2,58,3,1,0,2,0.680329505875203,0.620525266911828
"539",9,28,1,2,59,2,1,0,2,0.474502573971494,0.539286099232127
"540",9,31,1,2,60,1,2,1,5,0.384985939862256,0.359014975124853
"541",9,34,1,1,61,2,1,1,4,0.847481509877825,0.827538409496521
"542",9,26,1,1,62,1,1,1,4,0.479818008661691,0.43301845203765
"543",9,37,1,2,63,2,2,1,4,0.44795260227435,0.486538795405826
"544",9,33,1,2,64,1,2,1,4,0.412280212281196,0.45443043097641
"545",9,38,1,2,65,2,1,0,2,0.63343061852344,0.710094790683337
"546",9,35,1,1,66,1,1,1,5,0.283963578607964,0.234174408669097
"547",9,35,1,1,67,1,1,1,4,0.492754129422205,0.587143382874835
"548",9,31,1,1,68,1,1,1,4,0.536409147769662,0.494914883471726
"549",9,28,1,1,69,1,2,0,4,0.585989380525384,0.562531325217536
"550",9,31,1,2,70,3,2,1,3,0.650788619628215,0.719630549719131
"551",9,34,1,2,71,2,2,1,3,0.787352365375945,0.854616877952655
"552",9,26,1,1,72,3,1,1,3,0.975155950136123,0.934530611018634
"553",9,37,1,1,73,3,1,1,2,0.608708179064822,0.526243328371131
"554",9,33,1,1,74,3,2,0,2,0.94515695316692,0.967887777488016
"555",9,38,1,1,75,1,1,1,5,0.372600273372629,0.347739262767933
"556",9,35,1,2,76,3,1,0,1,0.734815334774344,0.828525611894218
"557",9,35,1,1,77,2,2,0,2,0.689972032267292,0.708436988165414
"558",9,31,1,1,78,1,2,0,4,0.358893579879812,0.33036204779307
"559",9,28,1,2,79,1,2,1,5,0.384573029653662,0.48265506826223
"560",9,31,1,1,80,2,1,1,3,0.647117519254539,0.562534441459859
"561",9,34,1,1,81,1,2,0,3,0.477742285607759,0.442100607426053
"562",9,26,1,1,82,3,1,1,2,0.753273943541372,0.726133483155539
"563",9,37,1,2,83,2,2,1,3,0.706905485470421,0.703869089100677
"564",9,33,1,2,84,1,2,1,5,0.36485741521864,0.338543513996154
"565",9,38,1,1,85,3,1,1,3,0.635858635884041,0.58775716013927
"566",9,35,1,2,86,2,2,1,4,0.761429828565165,0.832867638420357
"567",9,35,1,1,87,2,2,0,3,0.921054068714529,0.777912567099294
"568",9,31,1,2,88,3,1,0,1,1.10139356068382,1.13852856442212
"569",9,28,1,2,89,1,2,1,4,0.289822031282893,0.312334069092424
"570",9,31,1,2,90,1,2,1,4,0.466107064746587,0.395100706993466
"571",9,34,1,2,91,2,2,1,4,0.371859038386296,0.425611670199617
"572",9,26,1,1,92,1,1,1,5,0.376537946645845,0.370077839946889
"573",9,37,1,2,93,3,1,0,2,1.05002795054019,1.03431315825579
"574",9,33,1,1,94,2,1,1,3,0.68007610829393,0.68286276164671
"575",9,38,1,2,95,3,1,0,1,0.615819290565858,0.554020208844065
"576",9,35,1,1,96,1,2,0,3,0.577031455547167,0.621873469139778
"577",9,35,1,1,97,2,1,1,4,0.453782982342313,0.489858007346677
"578",9,31,1,2,98,1,2,1,5,0.341483018337294,0.326471897722431
"579",9,28,1,2,99,3,1,0,1,1.38830866367751,1.38213945501206
"580",9,31,1,2,100,3,2,1,2,1.00671690309627,0.983329055616963
"581",9,34,1,2,101,1,2,1,5,0.370457848930047,0.309635798598473
"582",9,26,1,1,102,3,2,0,2,1.27697075157028,1.2207596821935
"583",9,37,1,1,103,2,2,0,2,0.590395298054482,0.625454782039744
"584",9,33,1,2,104,1,2,1,5,0.449911278543516,0.39260572245332
"585",9,38,1,2,105,3,1,0,2,0.864499371301029,0.839051185690332
"586",9,35,1,1,106,3,1,1,3,1.27787582251944,1.30377728689376
"587",9,35,1,1,107,3,1,1,3,0.720126288473341,0.80136404648911
"588",9,31,1,2,108,1,1,0,3,0.560125056458413,0.620946234266934
"589",9,28,1,1,109,3,1,1,3,0.916331553617964,0.859187560727428
"590",9,31,1,1,110,1,2,0,4,0.575354355594258,0.578576655577823
"591",9,34,1,2,111,2,2,1,4,0.733303957619012,0.747976552678161
"592",9,26,1,1,112,1,1,1,5,0.310007663390504,0.331501595204123
"593",9,37,1,2,113,3,2,1,2,0.871566588485151,0.921155443037337
"594",9,33,1,1,114,3,2,0,1,0.861620953019539,0.853198859901031
"595",9,38,1,1,115,3,1,1,3,0.7784369772482,0.806849873875204
"596",9,35,1,2,116,3,2,1,2,0.594099073087862,0.617668581009521
"597",9,35,1,1,117,3,2,0,2,1.4546984647819,1.5395705171995
"598",9,31,1,2,118,3,2,1,3,0.814488841511893,0.737205430344582
"599",9,28,1,2,119,3,1,0,2,0.705681954789075,0.744081885705048
"600",9,31,1,1,120,1,1,1,4,0.431708567577186,0.550041622507127
"601",9,34,1,2,121,1,1,0,4,0.649997395744501,0.603579375771517
"602",9,26,1,2,122,3,2,1,3,0.701580612161511,0.676051552874139
"603",9,37,1,2,123,1,1,0,4,0.613497562469934,0.528759567666028
"604",9,33,1,1,124,3,1,1,3,0.600689210572479,0.557002645048399
"605",9,38,1,1,125,3,2,0,1,0.755129265052797,0.765575678053845
"606",9,35,1,2,126,3,2,1,3,0.546301647699585,0.607083652057661
"607",9,35,1,1,127,2,2,0,2,0.619643530675943,0.570256351582058
"608",9,31,1,1,128,2,1,1,3,0.598374363071816,0.636937935329606
"609",9,28,1,2,129,2,2,1,3,0.551647120093657,0.548486467983209
"610",9,31,1,1,130,3,1,1,2,0.87947430558278,0.915467428268557
"611",9,34,1,1,131,2,1,1,4,0.570299669226794,0.53914710404723
"612",9,26,1,1,132,1,1,1,5,0.562769790750784,0.584711332691836
"613",9,37,1,2,133,1,2,1,4,0.297375757208761,0.344764447342943
"614",9,33,1,1,134,1,1,1,4,0.337029934723431,0.347010616032072
"615",9,38,1,2,135,2,2,1,3,0.742699154711364,0.728103557225272
"616",9,35,1,2,136,2,2,1,4,0.536127826584313,0.513167216405734
"617",9,35,1,1,137,1,1,1,4,0.407054565433327,0.415963437151993
"618",9,31,1,2,138,1,2,1,4,0.463933776893161,0.505258831749139
"619",9,28,1,2,139,3,2,1,2,1.0156241970873,0.935771724066488
"620",9,31,1,1,140,3,1,1,3,0.573377037322188,0.559126659242116
"621",9,34,1,1,141,1,1,1,5,0.337519253927322,0.335066050194152
"622",9,26,1,1,142,3,2,0,1,1.25914782425969,1.28747465328466
"623",9,37,1,2,143,2,1,0,2,0.630585005465354,0.716231367521507
"624",9,33,1,1,144,2,1,1,4,0.768202165553973,0.79774581511817
"625",9,38,1,2,145,3,2,1,3,0.916718825089287,0.915071570142138
"626",9,35,1,2,146,2,2,1,3,0.86474229299876,0.801298007444564
"627",9,35,1,2,147,1,2,1,4,0.448211098326213,0.466452535736977
"628",9,31,1,2,148,1,2,1,4,0.383804475655562,0.403555421593391
"629",9,28,1,1,149,1,1,1,4,0.51124318504053,0.513514727603791
"630",9,31,1,1,150,1,1,1,4,0.462600924143273,0.50691493990303
"631",9,34,1,1,151,2,1,1,3,0.482289505477094,0.413561843910673
"632",9,26,1,2,152,2,2,1,3,0.561175332943329,0.484221813806773
"633",9,37,1,1,153,2,1,1,3,0.549699935588465,0.611073258390677
"634",9,33,1,1,154,1,1,1,5,0.31672162277429,0.286209220672838
"635",9,38,1,1,155,1,2,0,4,0.439249413356576,0.394139621940065
"636",9,35,1,2,156,1,2,1,4,0.436125133812053,0.525831905320797
"637",9,35,1,2,157,3,1,0,2,0.999791623542008,0.900736157328591
"638",9,31,1,2,158,2,1,0,3,0.517903708259344,0.505096016185889
"639",9,28,1,2,159,1,2,1,5,0.48148145455384,0.485782702772651
"640",9,31,1,2,160,1,2,1,5,0.501460833837673,0.479542671678622
"641",9,34,1,1,161,2,1,1,4,0.759260699245593,0.806551772997719
"642",9,26,1,1,162,3,2,0,1,0.530802036592991,0.587778507844289
"643",9,37,1,1,163,3,1,1,2,0.872461765795082,0.961419995388655
"644",9,33,1,2,164,1,2,1,5,0.473328376009809,0.459523204851169
"645",9,38,1,1,165,2,2,0,3,0.711410048320572,0.669086213815549
"646",9,35,1,2,166,3,2,1,3,0.957297565051239,0.894952997517807
"647",9,35,1,2,167,3,1,0,1,1.04170529169336,0.988713733363606
"648",9,31,1,1,168,2,2,0,3,0.64000721333421,0.566277349447853
"649",9,28,1,1,169,2,1,1,3,0.717831108773983,0.793138305200696
"650",9,31,1,1,170,2,2,0,2,0.905626669670716,0.840119203468582
"651",9,34,1,1,171,1,2,0,4,0.452689274631852,0.523008104612629
"652",9,26,1,1,172,3,2,0,2,1.13564817423351,1.16640995577231
"653",9,37,1,1,173,3,1,1,3,0.985236252134981,0.960576044814165
"654",9,33,1,2,174,1,1,0,4,0.598462708474997,0.517042088292472
"655",9,38,1,1,175,3,2,0,2,1.02365142994281,0.95210867469279
"656",9,35,1,2,176,1,2,1,5,0.364325293841832,0.378064780094404
"657",9,35,1,2,177,2,1,0,3,0.634856605472275,0.746322501433813
"658",9,31,1,1,178,2,1,1,4,0.746062146821659,0.742889187548094
"659",9,28,1,2,179,2,2,1,4,0.494031593375859,0.502578644322391
"660",9,31,1,1,180,2,1,1,4,0.526895036094818,0.49485813988213
"661",9,34,1,1,181,3,1,1,2,0.816532790655948,0.898877207902502
"662",9,26,1,1,182,1,1,1,5,0.405919284377478,0.367829631072895
"663",9,37,1,1,183,2,1,1,4,0.399718441914483,0.361521616066014
"664",9,33,1,2,184,2,2,1,3,0.627242775750349,0.620510110564897
"665",9,38,1,2,185,3,1,0,1,0.50621102135294,0.573740644026891
"666",9,35,1,1,186,1,1,1,4,0.438763456217654,0.343174285139158
"667",9,35,1,2,187,1,2,1,5,0.428912580416428,0.424274201632015
"668",9,31,1,2,188,3,1,0,2,0.917888634064157,0.949261459312654
"669",9,28,1,1,189,1,1,1,4,0.421672764546982,0.440561884314728
"670",9,31,1,1,190,1,2,0,4,0.494584070861175,0.503660335078198
"671",9,34,1,2,191,3,2,1,3,0.760145358568128,0.769133151915433
"672",9,26,1,1,192,2,1,1,3,0.582259512898753,0.618454272630966
"673",9,37,1,1,193,3,1,1,2,0.722333176060388,0.722458562703694
"674",9,33,1,1,194,2,2,0,2,0.662260613392062,0.658419805078426
"675",9,38,1,1,195,1,1,1,4,0.317001467184311,0.364873489138949
"676",9,35,1,1,196,3,1,1,2,0.913572201930913,1.00787607397595
"677",9,35,1,1,197,3,1,1,3,0.490605292264037,0.386168956219064
"678",9,31,1,2,198,3,1,0,2,1.40863882415817,1.39338388101
"679",9,28,1,1,199,2,1,1,4,0.682790758132305,0.729326234914673
"680",9,31,1,2,200,3,1,0,2,0.906702200212268,0.806726483609334
"681",9,34,1,2,201,1,2,1,4,0.301304395883226,0.28775211489179
"682",9,26,1,1,202,3,1,1,2,0.981540086638295,0.997961462449291
"683",9,37,1,2,203,1,2,1,4,0.365085579227053,0.320210663187052
"684",9,33,1,2,204,3,2,1,2,0.928101852720482,0.919201813448145
"685",9,38,1,1,205,1,1,1,5,0.43264667516846,0.428688938902933
"686",9,35,1,2,206,3,1,0,2,0.191600528174509,0.216301219254864
"687",9,35,1,2,207,2,1,0,3,0.650203026376951,0.71733293142608
"688",9,31,1,1,208,3,1,1,2,0.740728686758278,0.706689736346177
"689",9,28,1,2,209,2,2,1,4,0.355884437315666,0.380558966064122
"690",9,31,1,1,210,2,2,0,3,0.7111020443295,0.781783347962159
"691",9,34,1,2,211,1,1,0,3,0.576665678434572,0.540114468081951
"692",9,26,1,1,212,1,1,1,5,0.370821454908997,0.387521483688629
"693",9,37,1,2,213,1,2,1,5,0.46192634299622,0.407161601914307
"694",9,33,1,2,214,2,2,1,3,0.695603964089587,0.625376529184302
"695",9,38,1,2,215,3,2,1,2,0.704623246710269,0.68756779886981
"696",9,35,1,1,216,3,2,0,2,0.860594572943382,0.861507053397322
"697",9,35,1,1,217,2,2,0,2,0.792345594401236,0.818847233364317
"698",9,31,1,2,218,2,2,1,3,0.702267771377838,0.799955320464247
"699",9,28,1,1,219,3,1,1,3,0.83353596435711,0.828826816678607
"700",9,31,1,2,220,1,2,1,5,0.371596186782295,0.427253948258298
"701",9,34,1,1,221,2,1,1,4,0.521027671503374,0.557348599951818
"702",9,26,1,1,222,3,2,0,1,1.3225685491927,1.32764152847076
"703",9,37,1,1,223,2,2,0,3,0.529488130132584,0.575749383973842
"704",9,33,1,1,224,2,1,1,4,0.693647503058273,0.653492062773434
"705",9,38,1,2,225,2,2,1,4,0.709687007719907,0.728948418265778
"706",9,35,1,2,226,3,2,1,3,0.587262975798313,0.507914925842128
"707",9,35,1,1,227,2,1,1,4,0.485230522350918,0.520172754384963
"708",9,31,1,2,228,2,2,1,4,0.528916075876278,0.62308776398085
"709",9,28,1,1,229,1,1,1,5,0.383318192854738,0.362229627239618
"710",9,31,1,1,230,1,1,1,4,0.449742072146827,0.470824772778182
"711",9,34,1,1,231,1,1,1,5,0.397494530842126,0.407443789101906
"712",9,26,1,1,232,2,1,1,3,0.609873700377943,0.677493589840108
"713",9,37,1,2,233,3,1,0,1,0.881010126355324,0.913555479998315
"714",9,33,1,2,234,2,2,1,4,0.530919099809197,0.500679335655257
"715",9,38,1,2,235,3,1,0,1,1.2659872511281,1.24772817516138
"716",9,35,1,1,236,3,2,0,2,1.21972013823692,1.23414623908218
"717",9,35,1,2,237,2,1,0,3,0.560513937361963,0.476075805694323
"718",9,31,1,2,238,3,1,0,2,1.15439608708857,1.09003696235772
"719",9,28,1,2,239,2,2,1,3,0.672361965726496,0.684844607374404
"720",9,31,1,2,240,3,2,1,2,0.935790586754091,1.05002107738576
"721",8,25,2,2,1,1,2,1,5,0.447355194779502,0.435185673387758
"722",8,29,2,1,2,2,1,1,3,0.501894175351073,0.516238061816859
"723",8,36,2,1,3,3,1,1,2,0.647452861696636,0.592442105440995
"724",8,24,2,2,4,1,2,1,5,0.379689013232585,0.36635424851274
"725",8,26,2,1,5,2,1,1,4,0.440398841701087,0.516735792021698
"726",8,24,2,1,6,3,2,0,1,0.507858144242385,0.569484687806798
"727",8,18,2,2,7,2,2,1,4,0.586282917925728,0.621139702024015
"728",8,29,2,2,8,2,2,1,4,0.59791173191676,0.54861238283483
"729",8,26,2,1,9,3,2,0,1,0.925466239206447,0.963302096655656
"730",8,40,2,1,10,3,2,0,1,1.90348341894872,1.90968663720606
"731",8,25,2,1,11,2,2,0,2,0.440279385266187,0.501279546194949
"732",8,29,2,2,12,1,1,0,3,0.606427428726431,0.633454634996147
"733",8,36,2,2,13,2,1,0,2,0.940016981057062,0.924244400451584
"734",8,24,2,1,14,3,2,0,1,1.15845609091502,1.13242203392792
"735",8,26,2,2,15,2,1,0,3,0.728771160439023,0.729343612528954
"736",8,24,2,2,16,2,2,1,4,0.505526127079105,0.495635933903531
"737",8,18,2,2,17,1,2,1,4,0.609194504873378,0.585629961849806
"738",8,29,2,2,18,1,2,1,5,0.389464256162636,0.317284592535981
"739",8,26,2,1,19,3,1,1,3,0.634386775805567,0.654542191424583
"740",8,40,2,2,20,1,2,1,5,0.343922586603336,0.373628665247031
"741",8,25,2,1,21,2,1,1,3,0.531271404261042,0.569478368945902
"742",8,29,2,1,22,2,1,1,3,0.515391163812925,0.516532722371175
"743",8,36,2,2,23,3,2,1,2,0.501261315554868,0.50192544083842
"744",8,24,2,2,24,2,2,1,4,0.585983792493868,0.562715503002204
"745",8,26,2,1,25,3,2,0,1,0.591302884358714,0.616603486543898
"746",8,24,2,1,26,2,2,0,2,0.697668585656101,0.749526605286621
"747",8,18,2,1,27,2,2,0,2,1.01819048161914,0.977482109187783
"748",8,29,2,2,28,3,2,1,2,0.914271410659162,0.83729513290107
"749",8,26,2,1,29,3,2,0,1,0.404019724221067,0.459647999336913
"750",8,40,2,2,30,1,2,1,5,0.356099707289722,0.305452590889567
"751",8,25,2,1,31,2,1,1,4,0.392575217700998,0.370823748098441
"752",8,29,2,2,32,2,2,1,3,0.663137368569141,0.595109020997462
"753",8,36,2,2,33,2,2,1,3,0.625780471045837,0.714882184041426
"754",8,24,2,2,34,1,2,1,4,0.370000890378865,0.329936558432351
"755",8,26,2,1,35,3,1,1,2,0.560253732991497,0.681132782776033
"756",8,24,2,1,36,2,2,0,3,0.778216558124218,0.789820901517849
"757",8,18,2,2,37,3,2,1,3,0.618315022314984,0.676800525366936
"758",8,29,2,1,38,1,1,1,4,0.420333110416713,0.397124556174992
"759",8,26,2,1,39,3,2,0,1,1.37346336545174,1.44286433845982
"760",8,40,2,1,40,1,1,1,4,0.467367553689032,0.506693444097519
"761",8,25,2,1,41,1,1,1,5,0.375926858541547,0.408484300444797
"762",8,29,2,2,42,2,1,0,2,0.931230260225897,0.904361560249584
"763",8,36,2,1,43,2,1,1,3,0.645828099792656,0.646435068072739
"764",8,24,2,2,44,3,2,1,3,0.83556495791918,0.916692926319606
"765",8,26,2,1,45,3,2,0,2,1.23330952003239,1.20438488153527
"766",8,24,2,2,46,2,2,1,4,0.793621487007659,0.716172107517705
"767",8,18,2,1,47,1,1,1,5,0.538220212945384,0.595341866538349
"768",8,29,2,1,48,2,1,1,4,0.652948935351025,0.660017202516517
"769",8,26,2,1,49,2,2,0,3,0.577754105596341,0.549182374910527
"770",8,40,2,1,50,2,1,1,3,0.662617792328292,0.683699714993023
"771",8,25,2,2,51,1,2,1,5,0.537981488509203,0.533207561012038
"772",8,29,2,2,52,1,2,1,5,0.417672991010284,0.438920264691193
"773",8,36,2,1,53,3,2,0,2,1.72443428044018,1.7677133229947
"774",8,24,2,2,54,1,2,1,5,0.341813683850917,0.357291610616741
"775",8,26,2,2,55,2,1,0,3,0.561714867482602,0.512762847227437
"776",8,24,2,1,56,2,1,1,3,0.613266042360486,0.540178250490268
"777",8,18,2,1,57,3,2,0,1,0.940270815884429,1.02240999721771
"778",8,29,2,1,58,2,1,1,3,0.626635398847689,0.644564911138921
"779",8,26,2,2,59,1,1,0,3,0.438802112489629,0.407328381789253
"780",8,40,2,1,60,2,1,1,3,0.475939806738888,0.5089102571859
"781",8,25,2,2,61,2,1,0,2,0.745232839267564,0.770086094417666
"782",8,29,2,2,62,2,2,1,3,0.477791066070191,0.494921650810822
"783",8,36,2,1,63,3,1,1,3,1.14362683625875,1.11529035299409
"784",8,24,2,1,64,3,1,1,3,0.502394023750084,0.546437420372125
"785",8,26,2,2,65,2,1,0,3,0.668902154524443,0.657183344844729
"786",8,24,2,1,66,3,1,1,2,0.813767838472413,0.773963163562223
"787",8,18,2,2,67,2,2,1,3,0.490908454812801,0.452311344176246
"788",8,29,2,2,68,1,1,0,3,0.544736154736409,0.715964230443846
"789",8,26,2,1,69,3,1,1,2,0.677158445124841,0.676195760127592
"790",8,40,2,1,70,2,1,1,4,0.709374420607403,0.818011174804222
"791",8,25,2,2,71,3,1,0,2,1.3301435073135,1.38847035126371
"792",8,29,2,1,72,1,1,1,4,0.506180139815885,0.536246552633793
"793",8,36,2,1,73,3,2,0,2,1.97960907189574,1.99394748599309
"794",8,24,2,2,74,3,2,1,3,0.825169436477175,0.74101155037829
"795",8,26,2,2,75,1,2,1,4,0.588609329923316,0.606936558671978
"796",8,24,2,1,76,3,1,1,2,0.709057722076699,0.70255148475462
"797",8,18,2,1,77,3,2,0,2,1.22170140714539,1.16935524331636
"798",8,29,2,2,78,3,1,0,1,0.907762354232288,0.95869229558043
"799",8,26,2,1,79,3,2,0,1,0.282113766633115,0.240344862749923
"800",8,40,2,2,80,1,2,1,4,0.468504582113313,0.445847751261371
"801",8,25,2,2,81,3,2,1,3,0.834278921942316,0.815154107830798
"802",8,29,2,2,82,1,1,0,4,0.461626227542265,0.48143477771817
"803",8,36,2,2,83,3,1,0,1,1.29242293962277,1.34585532767705
"804",8,24,2,2,84,1,1,0,3,0.509122407319641,0.521160712398566
"805",8,26,2,1,85,3,1,1,3,0.893970410229266,0.989391721241342
"806",8,24,2,2,86,2,2,1,3,0.616920604521232,0.641896111171976
"807",8,18,2,2,87,2,2,1,3,0.503102296855253,0.55321834228968
"808",8,29,2,2,88,3,1,0,2,0.458857111277517,0.45876244097127
"809",8,26,2,1,89,2,2,0,2,0.49311288016718,0.488690576125992
"810",8,40,2,1,90,3,2,0,2,0.500256954113519,0.48772183341016
"811",8,25,2,1,91,1,1,1,5,0.401089082858463,0.382067144866102
"812",8,29,2,1,92,1,1,1,5,0.43565686757108,0.442679778842227
"813",8,36,2,2,93,1,2,1,5,0.355273785584596,0.400623034037569
"814",8,24,2,1,94,3,2,0,1,1.01424639867563,0.999312981883384
"815",8,26,2,1,95,2,1,1,4,0.59414771269608,0.567317814810201
"816",8,24,2,1,96,1,1,1,4,0.459464116397264,0.499451758124037
"817",8,18,2,2,97,3,2,1,2,0.82701209743223,0.86185283489994
"818",8,29,2,2,98,1,2,1,4,0.4328353025597,0.311304593619222
"819",8,26,2,2,99,1,2,1,5,0.442978319583477,0.328655507659121
"820",8,40,2,1,100,1,1,1,5,0.400902101677776,0.431826775490472
"821",8,25,2,2,101,2,2,1,4,0.597817572440092,0.633631168558085
"822",8,29,2,2,102,2,2,1,4,0.53294080474654,0.548455447333106
"823",8,36,2,2,103,2,2,1,4,0.529446958373694,0.544284551838894
"824",8,24,2,2,104,3,1,0,2,1.5132675889515,1.38133741361564
"825",8,26,2,2,105,1,2,1,4,0.365147543180565,0.401314259673055
"826",8,24,2,2,106,3,1,0,1,1.35330739389971,1.39177303367817
"827",8,18,2,1,107,3,1,1,2,1.16115892065534,1.12829813638141
"828",8,29,2,1,108,1,1,1,5,0.256090698852642,0.356669234437719
"829",8,26,2,1,109,2,2,0,2,0.756362607780273,0.709991880822487
"830",8,40,2,1,110,1,1,1,4,0.412619210013442,0.401265410688075
"831",8,25,2,2,111,3,2,1,3,0.971267672761889,0.923833197811246
"832",8,29,2,1,112,1,1,1,4,0.46836413482391,0.485082172881049
"833",8,36,2,2,113,2,2,1,3,0.359288041558526,0.403652303879073
"834",8,24,2,1,114,2,2,0,3,0.555571497294243,0.589298266544882
"835",8,26,2,1,115,2,1,1,4,0.543177639934075,0.588460879734583
"836",8,24,2,2,116,2,2,1,4,0.638066180369477,0.632988882495356
"837",8,18,2,1,117,1,2,0,3,0.497506037598912,0.432552699954712
"838",8,29,2,1,118,3,1,1,2,0.87991562039797,0.92515534693274
"839",8,26,2,2,119,3,2,1,2,0.874181782921385,0.831507969735616
"840",8,40,2,1,120,1,1,1,5,0.31570163790316,0.168116344813977
"841",8,25,2,1,121,1,1,1,4,0.394022411448637,0.400591506492161
"842",8,29,2,2,122,3,1,0,2,1.17392461834834,1.27096286299174
"843",8,36,2,2,123,1,2,1,5,0.523534560382486,0.547167756403458
"844",8,24,2,2,124,2,2,1,4,0.86091730371759,0.930073663752056
"845",8,26,2,1,125,1,1,1,5,0.411068815572306,0.419782912587058
"846",8,24,2,1,126,3,2,0,1,0.887802504376871,0.886481043942604
"847",8,18,2,2,127,3,2,1,3,1.02433981807411,1.08018493951372
"848",8,29,2,2,128,1,2,1,5,0.475778060765422,0.562998155228529
"849",8,26,2,2,129,1,2,1,4,0.347368094439281,0.317357595392851
"850",8,40,2,2,130,1,2,1,4,0.287065759343853,0.295975111896649
"851",8,25,2,2,131,3,2,1,2,0.895962084965728,0.938338480403261
"852",8,29,2,2,132,1,2,1,4,0.354112656052486,0.363234661445691
"853",8,36,2,2,133,2,2,1,4,0.70030157364186,0.75454848877776
"854",8,24,2,2,134,2,2,1,3,0.605933624120547,0.590104993251656
"855",8,26,2,2,135,2,2,1,4,0.302651889480622,0.325030773295859
"856",8,24,2,2,136,1,2,1,4,0.34781450732564,0.330988503268593
"857",8,18,2,2,137,1,2,1,4,0.514399829560869,0.42485385084177
"858",8,29,2,1,138,1,1,1,5,0.344054852683698,0.281979895189459
"859",8,26,2,1,139,1,1,1,4,0.430323792696465,0.553643420027153
"860",8,40,2,2,140,1,2,1,4,0.24585815505533,0.28401203313301
"861",8,25,2,2,141,3,2,1,3,1.02230704438542,0.9652435558593
"862",8,29,2,1,142,2,1,1,3,0.503081495025328,0.55273369142125
"863",8,36,2,2,143,1,2,1,4,0.426939213641537,0.368730548093955
"864",8,24,2,1,144,1,2,0,3,0.550970083133601,0.498100568783377
"865",8,26,2,2,145,2,1,0,2,0.778759023486518,0.731357822138392
"866",8,24,2,1,146,3,1,1,2,0.948321740069682,1.00707855864207
"867",8,18,2,1,147,2,1,1,3,0.631777080961858,0.77019084529959
"868",8,29,2,2,148,1,1,0,4,0.569959569417338,0.590373550446681
"869",8,26,2,2,149,1,2,1,5,0.357874567308009,0.401679770823211
"870",8,40,2,1,150,3,2,0,2,0.652871271783723,0.709031017862734
"871",8,25,2,1,151,3,1,1,2,0.887189943111652,0.921650168076909
"872",8,29,2,1,152,1,1,1,5,0.378930293629456,0.288081551508042
"873",8,36,2,2,153,1,2,1,4,0.358849520361469,0.383008420467066
"874",8,24,2,1,154,1,1,1,5,0.280694341849357,0.262692403226558
"875",8,26,2,1,155,3,1,1,2,0.403951765400643,0.509558823571452
"876",8,24,2,1,156,2,1,1,4,0.552467883964853,0.581720305847251
"877",8,18,2,1,157,1,1,1,4,0.503838043382249,0.589007776995276
"878",8,29,2,1,158,2,1,1,4,0.600187445909798,0.582608426554717
"879",8,26,2,2,159,2,1,0,3,0.747928385422762,0.794444248795817
"880",8,40,2,2,160,1,1,0,4,0.751403105753448,0.771222384018085
"881",8,25,2,2,161,2,1,0,3,0.588318368857612,0.596560737163674
"882",8,29,2,1,162,1,1,1,4,0.351857134361,0.282991426968115
"883",8,36,2,2,163,2,1,0,3,0.826553722772596,0.842398269416401
"884",8,24,2,1,164,3,2,0,2,0.703875453200761,0.710478527309166
"885",8,26,2,2,165,1,2,1,4,0.458629480525408,0.466056256109116
"886",8,24,2,2,166,3,1,0,2,0.960480332525888,0.957390342027986
"887",8,18,2,1,167,3,2,0,1,1.28472746649312,1.25933094783912
"888",8,29,2,1,168,2,2,0,3,1.03623817707491,1.0718262864028
"889",8,26,2,1,169,2,1,1,4,0.593149032163002,0.50690224915934
"890",8,40,2,1,170,1,2,0,4,0.390339307746261,0.411736773220502
"891",8,25,2,2,171,3,2,1,3,1.04545730994697,0.943774276875753
"892",8,29,2,1,172,1,1,1,4,0.464869867524482,0.410193376568058
"893",8,36,2,2,173,2,1,0,3,0.703857723416131,0.773571321717561
"894",8,24,2,2,174,2,2,1,3,0.593533706651842,0.685640378448827
"895",8,26,2,1,175,1,2,0,4,0.623774967129582,0.689882954911253
"896",8,24,2,2,176,3,2,1,3,0.737379619705466,0.741862412896906
"897",8,18,2,1,177,3,1,1,3,0.901190757952735,0.896443442203246
"898",8,29,2,1,178,2,2,0,3,0.796517349116661,0.76736538565063
"899",8,26,2,1,179,1,1,1,5,0.360764788799683,0.401787525464603
"900",8,40,2,1,180,2,1,1,4,0.646336100387512,0.738331867707778
"901",8,25,2,1,181,2,2,0,3,0.76626481341667,0.756142075254816
"902",8,29,2,2,182,3,2,1,3,0.452443419502724,0.397304338044458
"903",8,36,2,1,183,3,2,0,1,0.829503378246545,0.847642030429694
"904",8,24,2,1,184,2,1,1,3,0.726423660073513,0.743379452664702
"905",8,26,2,1,185,1,1,1,5,0.380291936211686,0.444922963493648
"906",8,24,2,1,186,2,1,1,3,0.536559477647242,0.474633825717097
"907",8,18,2,1,187,2,2,0,3,0.741078838657062,0.710424009004013
"908",8,29,2,2,188,2,2,1,4,0.698992269052947,0.633704801752729
"909",8,26,2,2,189,3,1,0,2,1.09209211696707,1.01295618323555
"910",8,40,2,1,190,1,1,1,5,0.373334204823981,0.488108882586822
"911",8,25,2,2,191,3,2,1,3,0.910860539305415,0.887590201943453
"912",8,29,2,1,192,2,2,0,3,0.584202660013638,0.572847394307756
"913",8,36,2,1,193,2,2,0,3,0.815872487021943,0.838893448390328
"914",8,24,2,2,194,3,1,0,1,0.922270863242305,0.931206048448566
"915",8,26,2,2,195,3,2,1,3,0.89945450214336,0.831198749629082
"916",8,24,2,1,196,1,2,0,3,0.583738659076814,0.670310179468915
"917",8,18,2,2,197,1,2,1,4,0.457734033136205,0.468394448601428
"918",8,29,2,2,198,2,2,1,4,0.241765441474859,0.368911756060693
"919",8,26,2,2,199,1,2,1,5,0.253145003344356,0.255130458849931
"920",8,40,2,1,200,3,1,1,2,0.95894313498766,0.922782458801335
"921",8,25,2,1,201,1,1,1,5,0.262651284205141,0.304026052098582
"922",8,29,2,1,202,1,2,0,4,0.584684035312062,0.579890622298879
"923",8,36,2,1,203,3,2,0,1,0.749017606611517,0.836206082759988
"924",8,24,2,2,204,3,1,0,1,0.908956853968664,0.888703279702688
"925",8,26,2,1,205,3,2,0,1,1.39303355243112,1.44470510011941
"926",8,24,2,1,206,2,1,1,3,0.434174862026252,0.505845800784392
"927",8,18,2,2,207,1,2,1,4,0.4264980020802,0.348494221829439
"928",8,29,2,1,208,3,2,0,1,0.90947100472802,0.922368326046569
"929",8,26,2,2,209,3,2,1,3,0.889718272686289,0.896463269155504
"930",8,40,2,1,210,1,1,1,4,0.496054449349722,0.617353617860125
"931",8,25,2,2,211,1,2,1,5,0.489153105423598,0.488718828550249
"932",8,29,2,2,212,1,2,1,5,0.44367119947944,0.364817574924628
"933",8,36,2,2,213,2,2,1,4,0.646847203008385,0.701295594412305
"934",8,24,2,1,214,1,1,1,5,0.310344862165222,0.327772087008449
"935",8,26,2,1,215,1,1,1,5,0.350085749160311,0.334046159754821
"936",8,24,2,2,216,2,2,1,4,0.688788572894213,0.753663917563623
"937",8,18,2,2,217,3,1,0,1,0.831883791819577,0.808211692163294
"938",8,29,2,2,218,1,2,1,4,0.370232265475411,0.394194067957408
"939",8,26,2,2,219,1,2,1,5,0.44597139465753,0.456172949523269
"940",8,40,2,1,220,3,1,1,2,0.754884870583915,0.691100857237437
"941",8,25,2,1,221,3,2,0,1,0.830134013725719,0.764657545579487
"942",8,29,2,2,222,3,2,1,3,0.792882722055749,0.817524777278109
"943",8,36,2,2,223,2,1,0,2,0.782709486272879,0.85030447082542
"944",8,24,2,1,224,3,2,0,2,0.804243582173378,0.792082525188879
"945",8,26,2,2,225,3,2,1,2,0.648750525323384,0.543744354763841
"946",8,24,2,2,226,3,1,0,2,1.02080584395785,1.0524776701755
"947",8,18,2,2,227,3,1,0,1,1.08794619077527,1.09570021355003
"948",8,29,2,2,228,3,2,1,2,0.883074155591711,0.930873681638643
"949",8,26,2,1,229,1,1,1,4,0.267201373863107,0.238718760352165
"950",8,40,2,2,230,1,2,1,4,0.517153923700359,0.51766754664645
"951",8,25,2,1,231,3,2,0,1,0.455068172775007,0.470378214230881
"952",8,29,2,2,232,3,1,0,2,1.28697939764584,1.34480042068096
"953",8,36,2,2,233,2,1,0,3,0.519746987257192,0.50238489932429
"954",8,24,2,2,234,3,2,1,3,1.17362731134724,1.1694813280487
"955",8,26,2,2,235,2,1,0,2,0.748763001107284,0.830237840534248
"956",8,24,2,2,236,2,2,1,4,0.474182219402259,0.484105342483068
"957",8,18,2,1,237,2,1,1,3,0.606255362385484,0.590805057534723
"958",8,29,2,1,238,1,1,1,5,0.398876476460736,0.322088872390726
"959",8,26,2,1,239,2,2,0,3,0.618727004670933,0.612732827109044
"960",8,40,2,1,240,2,1,1,3,0.699108663874083,0.742009985071085
"961",7,25,1,2,1,1,1,0,3,0.674650458103023,0.645068596139425
"962",7,21,1,2,2,2,1,0,3,0.916274799446267,0.762510583941606
"963",7,22,1,1,3,3,2,0,2,0.0624557059715228,-0.00741029133811043
"964",7,38,1,2,4,3,2,1,2,0.689730641844946,0.699724898262371
"965",7,22,1,1,5,2,1,1,3,0.464209125582957,0.445170750878776
"966",7,20,1,1,6,1,1,1,5,0.284664030004402,0.399888287507002
"967",7,30,1,1,7,3,1,1,2,0.855944494282443,0.851111562023323
"968",7,23,1,1,8,1,2,0,3,0.623112658175899,0.635993464306322
"969",7,34,1,1,9,3,2,0,1,1.14308313534451,1.15046806903497
"970",7,38,1,1,10,2,2,0,3,0.86749416466,0.852645712306647
"971",7,25,1,1,11,2,2,0,2,0.784130290381065,0.766092042588847
"972",7,21,1,2,12,1,2,1,5,0.261133739594462,0.223997629025206
"973",7,22,1,2,13,2,2,1,3,0.439994888125023,0.482015531023103
"974",7,38,1,1,14,2,1,1,4,0.399728115725416,0.362835930838332
"975",7,22,1,2,15,1,2,1,5,0.396950046806984,0.485116607496365
"976",7,20,1,2,16,3,2,1,2,0.554418679354026,0.573238304822605
"977",7,30,1,1,17,1,1,1,4,0.424498106377637,0.281304700998199
"978",7,23,1,2,18,1,2,1,5,0.32034541763552,0.294030489004784
"979",7,34,1,2,19,1,2,1,4,0.333367760246219,0.207806385997952
"980",7,38,1,1,20,1,1,1,5,0.481830844069339,0.483921132072852
"981",7,25,1,1,21,2,1,1,3,0.771287089795918,0.760823947094857
"982",7,21,1,1,22,3,2,0,1,0.761564456725552,0.764697158849615
"983",7,22,1,2,23,3,2,1,2,0.653426120457971,0.684967240510888
"984",7,38,1,2,24,3,1,0,2,0.995083498678059,0.948393101092202
"985",7,22,1,2,25,3,2,1,2,0.818692823341687,0.758047216163279
"986",7,20,1,2,26,2,1,0,3,0.946919376458828,0.968258578764756
"987",7,30,1,1,27,1,2,0,4,0.448100321256458,0.431713238174332
"988",7,23,1,2,28,2,1,0,2,0.611252780776858,0.573302622106388
"989",7,34,1,1,29,1,1,1,5,0.327166064690082,0.254607772167632
"990",7,38,1,2,30,3,1,0,2,0.243958212888956,0.303219396348172
"991",7,25,1,2,31,1,2,1,4,0.378579470468459,0.358525156421181
"992",7,21,1,1,32,1,1,1,4,0.390083328825271,0.426070319315555
"993",7,22,1,2,33,2,2,1,3,0.556220715301603,0.640741495496265
"994",7,38,1,2,34,3,1,0,2,1.35495043382481,1.47701139698025
"995",7,22,1,1,35,2,1,1,3,0.420013607935369,0.321696742404489
"996",7,20,1,2,36,1,1,0,4,0.559307967802981,0.626073536919545
"997",7,30,1,1,37,2,2,0,2,0.79898868351116,0.757655541994363
"998",7,23,1,2,38,1,1,0,4,0.665733269855283,0.711233055559598
"999",7,34,1,2,39,1,1,0,4,0.464949646187919,0.511579456205086
"1000",7,38,1,2,40,1,2,1,4,0.301217628090768,0.286323196904582
"1001",7,25,1,2,41,3,2,1,3,0.481867424188238,0.467033502520218
"1002",7,21,1,1,42,3,1,1,3,0.631571680126034,0.667636760880477
"1003",7,22,1,2,43,1,1,0,3,0.581588000297861,0.537150614828939
"1004",7,38,1,2,44,1,1,0,4,0.6781934354922,0.649792231760399
"1005",7,22,1,2,45,1,2,1,5,0.466136158759821,0.533989026349033
"1006",7,20,1,1,46,2,1,1,3,0.680896128570058,0.633062675326708
"1007",7,30,1,2,47,3,2,1,3,1.13031920384238,1.16168218938566
"1008",7,23,1,2,48,3,1,0,1,0.331632073766928,0.359002654657561
"1009",7,34,1,2,49,3,1,0,2,0.802556986214027,0.762135082690003
"1010",7,38,1,1,50,2,1,1,4,0.732660904280798,0.794137594934271
"1011",7,25,1,2,51,2,2,1,3,0.569815442830982,0.550745673064276
"1012",7,21,1,2,52,1,2,1,4,0.447117046895566,0.404497429402499
"1013",7,22,1,1,53,2,2,0,3,0.766982496920935,0.837193198018442
"1014",7,38,1,2,54,3,2,1,2,0.635359375758455,0.695615815096305
"1015",7,22,1,2,55,1,1,0,3,0.5222231689731,0.504881067620147
"1016",7,20,1,1,56,1,1,1,4,0.405552329986564,0.42934549887652
"1017",7,30,1,2,57,1,2,1,5,0.362950215378816,0.33745166649269
"1018",7,23,1,2,58,2,1,0,3,0.600840597358612,0.664484807555078
"1019",7,34,1,2,59,2,2,1,3,0.669780585134789,0.667577413411896
"1020",7,38,1,1,60,2,2,0,2,0.650495944117157,0.683135782390837
"1021",7,25,1,2,61,2,2,1,3,0.47065187066312,0.433070785437801
"1022",7,21,1,1,62,1,2,0,3,0.602755315886537,0.598279067256206
"1023",7,22,1,2,63,2,1,0,2,0.644218599078207,0.607003412426859
"1024",7,38,1,1,64,3,1,1,3,0.724633118956832,0.710457835120469
"1025",7,22,1,1,65,2,2,0,2,0.726527818921799,0.715465331357481
"1026",7,20,1,1,66,1,1,1,4,0.487249548960601,0.483323714111301
"1027",7,30,1,1,67,3,1,1,2,0.441027905685045,0.518543417219971
"1028",7,23,1,2,68,3,2,1,2,0.728108957129379,0.755090696081553
"1029",7,34,1,1,69,1,1,1,5,0.338055373199081,0.314039164463541
"1030",7,38,1,2,70,1,2,1,5,0.413247615307163,0.451445118763215
"1031",7,25,1,1,71,1,1,1,5,0.310339913637503,0.225809461676489
"1032",7,21,1,1,72,3,2,0,1,1.17430250186025,1.19941226493685
"1033",7,22,1,2,73,1,2,1,4,0.536911185675625,0.608273442181405
"1034",7,38,1,2,74,2,2,1,3,0.578497278461932,0.584708484273798
"1035",7,22,1,2,75,2,2,1,3,0.571440921123179,0.535818601798256
"1036",7,20,1,1,76,1,1,1,4,0.43119413492136,0.404848241050777
"1037",7,30,1,2,77,2,1,0,2,0.656133979858573,0.694013131352183
"1038",7,23,1,1,78,1,1,1,4,0.334798425430192,0.343890974103865
"1039",7,34,1,2,79,3,2,1,2,0.776770976406359,0.813890139439292
"1040",7,38,1,1,80,2,1,1,3,0.751048551153987,0.823546379757735
"1041",7,25,1,1,81,2,2,0,3,0.474077967869436,0.466377610495686
"1042",7,21,1,2,82,1,2,1,4,0.242436821229565,0.312245747678687
"1043",7,22,1,1,83,1,1,1,5,0.533781239265837,0.567819083725817
"1044",7,38,1,2,84,1,2,1,5,0.325067415906203,0.379165573789141
"1045",7,22,1,1,85,1,1,1,5,0.316063226797277,0.361469154190755
"1046",7,20,1,2,86,2,1,0,2,1.04530508646229,1.16748199617339
"1047",7,30,1,2,87,2,2,1,4,0.4382726225257,0.463587726256194
"1048",7,23,1,1,88,3,1,1,2,0.572627658837634,0.529383015675468
"1049",7,34,1,2,89,3,2,1,3,0.681595673025845,0.698992546243298
"1050",7,38,1,1,90,1,1,1,5,0.354415418799224,0.407490601360792
"1051",7,25,1,2,91,2,1,0,2,0.812400831537665,0.857265903060796
"1052",7,21,1,1,92,3,1,1,3,0.686359427792364,0.656207430030201
"1053",7,22,1,2,93,3,1,0,2,0.15170333985423,0.0918797922070946
"1054",7,38,1,1,94,1,2,0,4,0.575504864012776,0.563910705710836
"1055",7,22,1,2,95,1,2,1,5,0.289951030107781,0.223322985056512
"1056",7,20,1,2,96,3,2,1,3,0.833300312935575,0.80028901912214
"1057",7,30,1,2,97,2,2,1,3,0.439216167791632,0.433600168874637
"1058",7,23,1,1,98,3,1,1,3,0.742685288965402,0.697032258391113
"1059",7,34,1,2,99,2,1,0,3,0.732121887935091,0.718727772479267
"1060",7,38,1,2,100,1,2,1,4,0.345714503398856,0.39193141320494
"1061",7,25,1,1,101,1,2,0,3,0.305866668374236,0.423957481299695
"1062",7,21,1,1,102,3,1,1,3,0.628992525535681,0.650524838863734
"1063",7,22,1,1,103,3,1,1,2,1.160340144804,1.09997542263886
"1064",7,38,1,1,104,2,1,1,4,0.577618402370791,0.642109303869155
"1065",7,22,1,2,105,3,1,0,1,0.825178938947426,0.875616147760141
"1066",7,20,1,2,106,3,2,1,3,0.881115966030917,0.845333557283028
"1067",7,30,1,1,107,3,2,0,1,1.1576975838784,1.13114766532604
"1068",7,23,1,1,108,1,1,1,5,0.213289473179679,0.165985420474523
"1069",7,34,1,1,109,2,2,0,2,0.804785811677614,0.722917503944125
"1070",7,38,1,1,110,3,1,1,2,0.814613937065962,0.786195879768899
"1071",7,25,1,1,111,1,1,1,4,0.507021624897344,0.41635280219521
"1072",7,21,1,2,112,2,2,1,3,0.719321259817653,0.63230933980253
"1073",7,22,1,2,113,3,2,1,2,0.644755431008049,0.630709070677889
"1074",7,38,1,1,114,2,2,0,3,0.31536716050409,0.324505600749596
"1075",7,22,1,1,115,1,1,1,4,0.299399410170708,0.328279912438657
"1076",7,20,1,1,116,2,1,1,4,0.7346051131986,0.807934338591005
"1077",7,30,1,1,117,3,2,0,2,0.612609622122194,0.622538974912277
"1078",7,23,1,2,118,2,2,1,3,0.735338664340817,0.718134372700205
"1079",7,34,1,1,119,2,1,1,3,0.839752251022365,0.95452948507065
"1080",7,38,1,1,120,3,1,1,2,0.8560930270758,0.738931762369834
"1081",7,25,1,1,121,3,2,0,2,1.33874226884531,1.32337606568881
"1082",7,21,1,1,122,1,2,0,3,0.651064628292485,0.609407149692492
"1083",7,22,1,1,123,2,1,1,4,0.388180027359731,0.390690546492851
"1084",7,38,1,2,124,3,1,0,1,1.15764177067523,1.12960856048511
"1085",7,22,1,1,125,2,1,1,4,0.629401029627519,0.643900379121075
"1086",7,20,1,2,126,1,2,1,5,0.477276504407721,0.597715297052618
"1087",7,30,1,1,127,1,2,0,3,0.546351936927193,0.592551476030684
"1088",7,23,1,1,128,2,1,1,3,0.364785447897512,0.330779134597521
"1089",7,34,1,1,129,1,1,1,4,0.454245692988195,0.400541582284736
"1090",7,38,1,2,130,2,2,1,3,0.374936684750078,0.321493738176158
"1091",7,25,1,2,131,2,2,1,4,0.739834532501929,0.819473623182179
"1092",7,21,1,2,132,1,2,1,5,0.380024009707388,0.421852513075666
"1093",7,22,1,2,133,3,1,0,1,1.38214467825374,1.44793396773953
"1094",7,38,1,2,134,3,1,0,1,1.07047526756401,1.08857506912023
"1095",7,22,1,1,135,3,1,1,3,0.512800764313409,0.572766371574754
"1096",7,20,1,2,136,2,2,1,4,0.696111386875759,0.685928094326058
"1097",7,30,1,1,137,1,1,1,5,0.48968271412239,0.486219088404638
"1098",7,23,1,1,138,3,2,0,2,0.987144930095319,0.95248977787121
"1099",7,34,1,2,139,3,2,1,2,1.20573078853536,1.09563593479239
"1100",7,38,1,1,140,2,2,0,2,0.826040031199273,0.837593444302384
"1101",7,25,1,1,141,2,2,0,2,0.748471891108322,0.875313417698756
"1102",7,21,1,1,142,3,1,1,2,0.923124806547839,0.959469239929275
"1103",7,22,1,2,143,2,1,0,2,0.731387101104778,0.665140293504617
"1104",7,38,1,1,144,2,2,0,3,0.83001738672561,0.864388145219854
"1105",7,22,1,2,145,2,1,0,2,0.917892124785743,0.999287460687053
"1106",7,20,1,1,146,1,1,1,5,0.342805812726156,0.308802923187508
"1107",7,30,1,2,147,3,2,1,2,0.553106343996507,0.505324031866102
"1108",7,23,1,2,148,1,2,1,4,0.397798761396958,0.421412069601875
"1109",7,34,1,1,149,1,1,1,4,0.467532372394586,0.500400382622096
"1110",7,38,1,1,150,1,1,1,5,0.458992494007152,0.364332474452517
"1111",7,25,1,1,151,2,2,0,2,0.775673436526688,0.822787783162154
"1112",7,21,1,1,152,3,1,1,3,0.777694705932389,0.79286991898705
"1113",7,22,1,2,153,2,2,1,3,0.672721930905124,0.615258306912913
"1114",7,38,1,2,154,1,2,1,4,0.585794896980498,0.644977184263603
"1115",7,22,1,1,155,1,1,1,4,0.310507343858544,0.32525691857018
"1116",7,20,1,1,156,2,2,0,3,0.936188199598686,0.869546918030806
"1117",7,30,1,2,157,3,2,1,3,0.551684646815696,0.488448094328052
"1118",7,23,1,1,158,2,1,1,3,0.44122143251311,0.366217265176581
"1119",7,34,1,2,159,3,2,1,2,0.819517765144173,0.789758172286399
"1120",7,38,1,2,160,2,2,1,4,0.523331346602372,0.542181303774069
"1121",7,25,1,2,161,3,1,0,2,0.900733816982342,0.812153034232418
"1122",7,21,1,1,162,1,1,1,5,0.448456487461028,0.524049510329138
"1123",7,22,1,2,163,3,1,0,2,0.80409465496503,0.830689922497077
"1124",7,38,1,1,164,1,1,1,4,0.613234288962199,0.611086463407448
"1125",7,22,1,2,165,1,2,1,5,0.29764857284194,0.219641136503351
"1126",7,20,1,1,166,3,2,0,2,1.43366848873477,1.41338598611865
"1127",7,30,1,2,167,2,2,1,4,0.576150143780315,0.598874181410908
"1128",7,23,1,1,168,3,2,0,1,0.874867983117073,0.914822103455419
"1129",7,34,1,1,169,3,2,0,1,1.44163760654005,1.47845107153999
"1130",7,38,1,1,170,3,1,1,3,0.908617638291351,0.903686327465632
"1131",7,25,1,1,171,1,1,1,5,0.361852744541636,0.385131954368915
"1132",7,21,1,2,172,3,1,0,2,0.424506636540621,0.39852688142267
"1133",7,22,1,1,173,2,2,0,3,0.746972245551078,0.708838627476885
"1134",7,38,1,2,174,3,1,0,1,0.790907927688731,0.868803776735422
"1135",7,22,1,2,175,2,1,0,3,0.847881365329221,0.867370289663942
"1136",7,20,1,2,176,2,1,0,2,0.496602464660703,0.573134405171118
"1137",7,30,1,2,177,2,1,0,2,0.773872839237303,0.738997114830181
"1138",7,23,1,2,178,2,2,1,3,0.561585492595319,0.539915070252142
"1139",7,34,1,2,179,2,2,1,4,0.501607077064995,0.496967475604465
"1140",7,38,1,1,180,1,1,1,4,0.196522587229628,0.19520355613541
"1141",7,25,1,1,181,3,2,0,2,0.292915676546289,0.416471073937938
"1142",7,21,1,2,182,1,2,1,5,0.319391525878821,0.354647910008052
"1143",7,22,1,1,183,2,1,1,4,0.674367438532311,0.689450522494962
"1144",7,38,1,2,184,2,1,0,2,0.936611659043285,0.936382614572259
"1145",7,22,1,1,185,1,1,1,4,0.391467539030302,0.410591385445709
"1146",7,20,1,2,186,3,1,0,1,1.16006773691083,1.08906040880224
"1147",7,30,1,2,187,2,1,0,2,0.654837927010579,0.700757100271664
"1148",7,23,1,2,188,1,2,1,4,0.512468749391711,0.492388005264325
"1149",7,34,1,1,189,3,2,0,1,0.473272280600756,0.550723075327385
"1150",7,38,1,1,190,1,2,0,4,0.606211854036751,0.575922292251895
"1151",7,25,1,2,191,2,1,0,3,0.590642534514672,0.518755353950525
"1152",7,21,1,2,192,3,2,1,2,0.930677812196044,0.897453690500463
"1153",7,22,1,1,193,2,1,1,3,0.682786574822486,0.754033901746185
"1154",7,38,1,1,194,3,2,0,1,0.226503703503033,0.197338245115367
"1155",7,22,1,2,195,1,2,1,5,0.365526363755487,0.332914280795507
"1156",7,20,1,1,196,1,1,1,4,0.371480475153065,0.342339641771127
"1157",7,30,1,2,197,3,2,1,2,1.12775052231653,1.03420502795069
"1158",7,23,1,1,198,2,2,0,2,0.747477862117827,0.740899529152541
"1159",7,34,1,2,199,2,2,1,3,0.614723751071252,0.664671001026683
"1160",7,38,1,1,200,3,1,1,3,0.725905101322914,0.732997981869746
"1161",7,25,1,2,201,3,1,0,1,0.633660479885451,0.648313324246342
"1162",7,21,1,1,202,3,1,1,3,0.89629703019587,0.962042786495204
"1163",7,22,1,2,203,3,2,1,3,0.748963155813985,0.734195951875163
"1164",7,38,1,2,204,1,2,1,4,0.531483923845755,0.499619505217745
"1165",7,22,1,1,205,1,2,0,4,0.597655789379961,0.659530826996598
"1166",7,20,1,1,206,1,1,1,4,0.488658201554566,0.535214172217377
"1167",7,30,1,1,207,2,2,0,3,0.636942200393932,0.620734682690851
"1168",7,23,1,1,208,3,1,1,3,0.919457969538909,0.92678611433242
"1169",7,34,1,2,209,1,2,1,5,0.516661407787501,0.48325569953602
"1170",7,38,1,2,210,2,1,0,2,0.687427969135949,0.711436025640128
"1171",7,25,1,1,211,1,1,1,5,0.438656561961984,0.386430623848352
"1172",7,21,1,1,212,3,1,1,3,0.968708035275454,0.970696825630793
"1173",7,22,1,2,213,3,2,1,3,0.854068094148,0.880099332652271
"1174",7,38,1,1,214,1,1,1,5,0.240353673714328,0.344282743227491
"1175",7,22,1,2,215,3,2,1,2,0.792811898323255,0.783237892301217
"1176",7,20,1,2,216,1,2,1,5,0.380879146255859,0.443908732437065
"1177",7,30,1,1,217,2,2,0,2,0.528734860477335,0.524480817960954
"1178",7,23,1,1,218,3,1,1,3,0.890035331775893,0.798477381675919
"1179",7,34,1,1,219,2,2,0,3,0.766936624375546,0.699385574742822
"1180",7,38,1,1,220,1,2,0,3,0.524197975138216,0.628640999344404
"1181",7,25,1,2,221,3,1,0,1,1.110918590716,1.13391623546772
"1182",7,21,1,1,222,3,1,1,3,0.749207974389297,0.811812669130632
"1183",7,22,1,1,223,3,1,1,3,0.980711778659274,0.930324851234409
"1184",7,38,1,2,224,2,1,0,2,0.59429059490441,0.623904254364259
"1185",7,22,1,1,225,3,2,0,2,1.77343222443418,1.78038416851246
"1186",7,20,1,2,226,2,1,0,3,0.556373821493325,0.548181038570775
"1187",7,30,1,2,227,2,2,1,3,0.623012189471347,0.562278211482913
"1188",7,23,1,1,228,2,1,1,3,0.529006470706386,0.633107087303399
"1189",7,34,1,2,229,2,1,0,2,0.610013791861983,0.556108939507936
"1190",7,38,1,1,230,2,1,1,3,0.696851548495721,0.70126124687254
"1191",7,25,1,2,231,1,2,1,5,0.283877817149879,0.282754445275765
"1192",7,21,1,1,232,1,1,1,4,0.449122940126095,0.421774795847091
"1193",7,22,1,1,233,3,1,1,2,0.476340633596247,0.596482216151334
"1194",7,38,1,2,234,3,2,1,3,0.725864474885561,0.713758277692896
"1195",7,22,1,2,235,2,2,1,4,0.586347895398427,0.529964078994043
"1196",7,20,1,2,236,1,2,1,4,0.22263760367082,0.247080751675521
"1197",7,30,1,1,237,1,1,1,4,0.428478470369383,0.448102672721173
"1198",7,23,1,2,238,3,2,1,3,0.623948149865029,0.707468112312291
"1199",7,34,1,2,239,1,1,0,3,0.603691098841103,0.548287273478951
"1200",7,38,1,1,240,3,2,0,1,1.13581379160399,1.10298707182675
"1201",6,33,2,1,1,3,1,1,3,1.03824039679244,1.06510589070156
"1202",6,27,2,1,2,1,1,1,5,0.349931701345092,0.35082002864078
"1203",6,18,2,2,3,1,2,1,4,0.299125265587015,0.293954575308023
"1204",6,37,2,1,4,2,1,1,4,0.776161733023447,0.824338903772419
"1205",6,31,2,2,5,1,2,1,5,0.290418058261035,0.301700227614356
"1206",6,21,2,2,6,2,1,0,2,0.6504007374516,0.635213297492402
"1207",6,38,2,1,7,2,2,0,2,0.627808517082233,0.548391234645745
"1208",6,35,2,2,8,2,1,0,3,0.766796372384394,0.657370844678483
"1209",6,38,2,1,9,3,2,0,2,0.995625823377756,0.967143927392465
"1210",6,34,2,2,10,2,1,0,2,0.621866409004176,0.55556827632152
"1211",6,33,2,2,11,2,2,1,3,0.549378812924114,0.456072320790366
"1212",6,27,2,2,12,3,2,1,2,0.997157027098263,0.968079359073155
"1213",6,18,2,2,13,2,2,1,3,0.461695967552611,0.48219892580756
"1214",6,37,2,1,14,2,1,1,4,0.584360107268247,0.550847985924487
"1215",6,31,2,2,15,3,1,0,1,0.618288381579448,0.638646881647415
"1216",6,21,2,1,16,1,1,1,4,0.231353660564811,0.175027222922454
"1217",6,38,2,1,17,2,2,0,3,0.458945828838854,0.458004013879282
"1218",6,35,2,1,18,3,2,0,2,1.44946236398301,1.45706184913004
"1219",6,38,2,2,19,3,1,0,1,0.657187823116472,0.676085473315758
"1220",6,34,2,2,20,1,2,1,5,0.4815217878756,0.47439744019194
"1221",6,33,2,1,21,2,2,0,2,0.638837135420905,0.590351187691894
"1222",6,27,2,2,22,1,2,1,5,0.41239216485885,0.384847609970081
"1223",6,18,2,1,23,2,2,0,3,0.832181525553572,0.825169321660106
"1224",6,37,2,1,24,2,2,0,2,1.00923526992783,0.983214610627652
"1225",6,31,2,2,25,2,2,1,3,0.582797450187622,0.559576117797385
"1226",6,21,2,1,26,2,2,0,3,0.666012481759335,0.617993660293144
"1227",6,38,2,2,27,3,1,0,2,0.633155392625956,0.655100008231066
"1228",6,35,2,1,28,2,1,1,4,0.69198254080852,0.72911932325063
"1229",6,38,2,2,29,2,2,1,4,0.480062623800568,0.493464515889184
"1230",6,34,2,1,30,3,1,1,3,0.93484498034414,0.996336670799279
"1231",6,33,2,2,31,3,2,1,3,0.990357638829902,1.05796532898844
"1232",6,27,2,2,32,1,2,1,5,0.353269091816329,0.321116822962521
"1233",6,18,2,1,33,3,1,1,3,0.736678127187188,0.685546368486118
"1234",6,37,2,2,34,3,2,1,3,1.1228518563864,1.04125374253197
"1235",6,31,2,2,35,1,2,1,4,0.539191112810538,0.528262245905969
"1236",6,21,2,2,36,1,2,1,4,0.253242186257427,0.233472958372231
"1237",6,38,2,2,37,2,1,0,2,0.630695893949033,0.61375076012668
"1238",6,35,2,1,38,3,1,1,2,0.937247040574658,0.985128853402522
"1239",6,38,2,2,39,3,2,1,2,0.889576788119703,0.901392348546712
"1240",6,34,2,2,40,1,2,1,4,0.501043844418538,0.501720408146335
"1241",6,33,2,1,41,3,1,1,2,0.649822579629056,0.656082585342076
"1242",6,27,2,2,42,3,2,1,3,1.07881237415338,1.07726407548356
"1243",6,18,2,1,43,2,1,1,4,0.911332880671903,0.84517436814751
"1244",6,37,2,2,44,2,2,1,4,0.659858816094364,0.690027442719406
"1245",6,31,2,1,45,2,2,0,2,0.77499669458995,0.834666413570906
"1246",6,21,2,1,46,1,1,1,4,0.393186065291051,0.387775063249805
"1247",6,38,2,2,47,3,2,1,3,0.927339781327421,0.994384472984084
"1248",6,35,2,2,48,2,2,1,3,0.608425325799533,0.603877794721995
"1249",6,38,2,2,49,1,1,0,3,0.538995332602547,0.554002195294895
"1250",6,34,2,2,50,2,1,0,2,0.409029664241605,0.453496794564663
"1251",6,33,2,2,51,1,2,1,5,0.388983271178758,0.336620481412693
"1252",6,27,2,1,52,1,1,1,5,0.444918700838451,0.595002596122087
"1253",6,18,2,1,53,3,2,0,2,1.20545085587611,1.25608764787427
"1254",6,37,2,2,54,2,1,0,3,0.54526113418241,0.612570389242949
"1255",6,31,2,2,55,3,2,1,3,0.450778661252667,0.594890828266716
"1256",6,21,2,2,56,3,1,0,1,0.465365164103059,0.349538787749296
"1257",6,38,2,2,57,2,2,1,3,0.583187822553,0.611429054918409
"1258",6,35,2,1,58,3,2,0,1,0.556139780828632,0.526659440845769
"1259",6,38,2,2,59,3,2,1,2,0.469657803139499,0.512130805305085
"1260",6,34,2,1,60,1,1,1,4,0.44842055771046,0.536762039532831
"1261",6,33,2,2,61,2,2,1,4,0.584656346129393,0.605860662397332
"1262",6,27,2,1,62,1,2,0,4,0.709068274247987,0.752968381022114
"1263",6,18,2,2,63,2,2,1,3,0.505298028107118,0.414651976511749
"1264",6,37,2,1,64,1,1,1,4,0.379060582154364,0.326609819336076
"1265",6,31,2,2,65,3,1,0,2,0.800299475355103,0.848697511846852
"1266",6,21,2,2,66,1,2,1,4,0.423135206186609,0.384332848040955
"1267",6,38,2,2,67,3,1,0,2,0.823807036126807,0.772787675107327
"1268",6,35,2,1,68,1,1,1,5,0.467988863705388,0.560947705979848
"1269",6,38,2,1,69,2,2,0,3,0.63907970938211,0.61263863511029
"1270",6,34,2,2,70,3,1,0,1,1.25693464128644,1.22227646777044
"1271",6,33,2,2,71,3,2,1,2,1.15702412410349,1.22014852597907
"1272",6,27,2,1,72,3,1,1,3,0.666471712150941,0.655784194501611
"1273",6,18,2,2,73,2,2,1,3,0.806674422412019,0.780247607087884
"1274",6,37,2,1,74,1,1,1,4,0.505809253081548,0.424988994981197
"1275",6,31,2,1,75,1,2,0,3,0.443060768727824,0.43047682840719
"1276",6,21,2,2,76,1,2,1,5,0.496552547884305,0.416944650453249
"1277",6,38,2,2,77,2,1,0,3,0.668160997384419,0.567070778513305
"1278",6,35,2,2,78,2,1,0,3,0.443170779754518,0.466826665580121
"1279",6,38,2,2,79,2,2,1,3,0.593440421266239,0.56804997319501
"1280",6,34,2,2,80,3,1,0,1,1.31523444684973,1.20215546459469
"1281",6,33,2,1,81,1,2,0,4,0.582431502671152,0.534250182033243
"1282",6,27,2,1,82,1,2,0,3,0.63744221427708,0.670691594227592
"1283",6,18,2,1,83,1,1,1,4,0.485369656688211,0.529529023031685
"1284",6,37,2,1,84,3,1,1,2,0.85011707555027,0.791712595491998
"1285",6,31,2,1,85,2,2,0,3,0.781171324912079,0.742076310314178
"1286",6,21,2,2,86,1,2,1,4,0.445729573240984,0.48795960065467
"1287",6,38,2,2,87,1,2,1,5,0.37117800006891,0.379022145464665
"1288",6,35,2,2,88,3,1,0,2,0.960856287625555,0.960726693039078
"1289",6,38,2,2,89,3,1,0,1,0.292780639073467,0.336912301631555
"1290",6,34,2,2,90,3,1,0,2,1.188282266727,1.17795844867212
"1291",6,33,2,1,91,3,1,1,2,1.08213849017359,1.06172617292739
"1292",6,27,2,1,92,2,2,0,3,0.733543889199399,0.725807224285299
"1293",6,18,2,1,93,1,1,1,4,0.350094413818698,0.389685764744422
"1294",6,37,2,1,94,3,1,1,3,0.843284367095503,0.932890834159181
"1295",6,31,2,2,95,3,1,0,1,0.981898250625864,1.00465617686551
"1296",6,21,2,2,96,3,1,0,2,1.09727924361732,1.09592588821863
"1297",6,38,2,1,97,1,1,1,4,0.365537056901511,0.346316184887041
"1298",6,35,2,1,98,1,1,1,5,0.489617762401573,0.462236775378444
"1299",6,38,2,2,99,1,2,1,5,0.359775134475616,0.333511342413256
"1300",6,34,2,1,100,1,2,0,3,0.561109296111588,0.608205066317669
"1301",6,33,2,1,101,3,1,1,3,0.47221238079325,0.527207003844611
"1302",6,27,2,1,102,2,2,0,2,0.672338738345904,0.718155579422482
"1303",6,18,2,2,103,3,1,0,2,1.20079600306021,1.25140191339563
"1304",6,37,2,2,104,1,2,1,4,0.543315116450589,0.545128787159619
"1305",6,31,2,2,105,2,2,1,4,0.577420393553489,0.598586674472592
"1306",6,21,2,2,106,2,2,1,4,0.635798677832187,0.734623369695689
"1307",6,38,2,1,107,1,1,1,4,0.417069746159717,0.524380720244012
"1308",6,35,2,2,108,1,1,0,3,0.561639400455706,0.546991758846541
"1309",6,38,2,1,109,2,2,0,2,0.729348259417464,0.750503957330132
"1310",6,34,2,2,110,3,1,0,1,0.714177483253376,0.747500679561866
"1311",6,33,2,1,111,2,1,1,3,0.44788726548984,0.330147961458665
"1312",6,27,2,1,112,2,1,1,4,0.673418164440661,0.669963738107711
"1313",6,18,2,1,113,3,2,0,1,1.64934168372303,1.58828248755953
"1314",6,37,2,1,114,3,1,1,3,0.392204866285938,0.411943206199695
"1315",6,31,2,2,115,3,2,1,3,0.858940794707269,0.861281911974048
"1316",6,21,2,2,116,2,1,0,2,0.696438966985921,0.68432195938617
"1317",6,38,2,1,117,1,1,1,4,0.293274487513971,0.319230838695178
"1318",6,35,2,2,118,3,2,1,3,0.545859006619132,0.500199938758618
"1319",6,38,2,1,119,3,2,0,1,1.12127677747221,1.10588354391455
"1320",6,34,2,1,120,3,1,1,3,0.425511187682777,0.361448784292717
"1321",6,33,2,1,121,2,1,1,3,0.710928132730733,0.740505511922503
"1322",6,27,2,1,122,2,1,1,4,0.475165878690085,0.49374902413669
"1323",6,18,2,1,123,3,2,0,2,1.48735228163522,1.37617180304822
"1324",6,37,2,1,124,1,1,1,4,0.356896118082042,0.306475083865314
"1325",6,31,2,2,125,2,1,0,3,0.723386031472775,0.79399421427057
"1326",6,21,2,1,126,2,1,1,4,0.418143895224357,0.382480471373817
"1327",6,38,2,1,127,1,1,1,5,0.360512865851039,0.357843854859561
"1328",6,35,2,1,128,1,1,1,4,0.55933819738095,0.626129954064588
"1329",6,38,2,1,129,2,2,0,2,0.684704246692626,0.683181603682682
"1330",6,34,2,1,130,1,1,1,4,0.316824604930207,0.317777814687775
"1331",6,33,2,1,131,2,1,1,4,0.761261835021647,0.798603423045738
"1332",6,27,2,2,132,1,2,1,4,0.386266343777847,0.430098760819692
"1333",6,18,2,2,133,1,2,1,4,0.366843375787272,0.323690246496971
"1334",6,37,2,2,134,1,2,1,5,0.354114796671236,0.374052281387049
"1335",6,31,2,2,135,3,2,1,3,0.498679118741025,0.48568781366103
"1336",6,21,2,1,136,2,1,1,4,0.661751995290277,0.709001454169576
"1337",6,38,2,1,137,3,2,0,2,0.879192271758916,0.901991765703062
"1338",6,35,2,2,138,1,2,1,5,0.422699820887377,0.324353966123612
"1339",6,38,2,1,139,1,1,1,5,0.433099859289096,0.393379990213543
"1340",6,34,2,1,140,2,2,0,2,0.882790134872455,0.894153784703605
"1341",6,33,2,1,141,2,2,0,2,0.869760265231231,0.840502426369268
"1342",6,27,2,2,142,2,2,1,4,0.866527472973808,0.897817489625824
"1343",6,18,2,2,143,3,1,0,1,0.16058712511662,0.197800139895925
"1344",6,37,2,2,144,3,2,1,2,0.678513293068906,0.76659324760857
"1345",6,31,2,2,145,2,1,0,3,0.159429622997681,0.173922242355041
"1346",6,21,2,1,146,1,1,1,5,0.376815976206802,0.383743394287473
"1347",6,38,2,2,147,1,2,1,5,0.350137006869499,0.403351549069651
"1348",6,35,2,1,148,3,1,1,3,0.754067211469087,0.750357398490844
"1349",6,38,2,2,149,3,1,0,2,0.676671860034727,0.693143201056949
"1350",6,34,2,2,150,1,2,1,4,0.432303153247797,0.458669558556457
"1351",6,33,2,1,151,1,1,1,5,0.453013793087476,0.461965521053255
"1352",6,27,2,1,152,3,2,0,1,0.944019554973171,0.962488105970631
"1353",6,18,2,2,153,1,1,0,3,0.423208963921113,0.364518980015549
"1354",6,37,2,1,154,2,1,1,4,0.780763784000444,0.780852791137786
"1355",6,31,2,2,155,2,1,0,2,0.581324685228717,0.58560752468758
"1356",6,21,2,1,156,2,1,1,4,0.507668674795024,0.538025662124416
"1357",6,38,2,1,157,1,1,1,5,0.439027595431222,0.419269916921556
"1358",6,35,2,2,158,3,2,1,3,0.864302446421781,0.795368136422868
"1359",6,38,2,2,159,2,1,0,3,0.8107378615465,0.827281472134056
"1360",6,34,2,2,160,2,1,0,2,0.691137311925585,0.646604316404601
"1361",6,33,2,2,161,3,2,1,3,0.7996202052556,0.776375822068644
"1362",6,27,2,1,162,1,1,1,4,0.417680672509649,0.458313732321001
"1363",6,18,2,2,163,3,2,1,3,0.975698257955844,1.01744955505797
"1364",6,37,2,2,164,2,1,0,3,0.798244795832979,0.832217102310021
"1365",6,31,2,1,165,1,1,1,5,0.329603463741773,0.431137165513908
"1366",6,21,2,2,166,3,1,0,2,0.712793678875002,0.704581164202595
"1367",6,38,2,1,167,1,1,1,5,0.414349965064145,0.431752628254002
"1368",6,35,2,1,168,1,1,1,4,0.312768518418006,0.320301331411963
"1369",6,38,2,2,169,3,1,0,1,0.732827019966061,0.756075097647215
"1370",6,34,2,1,170,1,2,0,4,0.467298630312516,0.47550739136935
"1371",6,33,2,1,171,3,2,0,1,0.67576913295173,0.732328403679291
"1372",6,27,2,2,172,2,2,1,3,0.617470284522803,0.59690907207442
"1373",6,18,2,1,173,1,1,1,4,0.343008015558071,0.303045594981243
"1374",6,37,2,2,174,1,2,1,4,0.391116863916972,0.382486418660286
"1375",6,31,2,1,175,2,2,0,2,0.658629316205074,0.662973979327777
"1376",6,21,2,1,176,2,1,1,4,0.59524472588983,0.531497396691206
"1377",6,38,2,2,177,3,2,1,3,1.05207526809425,0.994350802387017
"1378",6,35,2,1,178,2,1,1,3,0.532528754446279,0.514538719634133
"1379",6,38,2,1,179,1,2,0,4,0.514637992491172,0.51416636576741
"1380",6,34,2,2,180,2,2,1,3,0.746093684418643,0.731272801345557
"1381",6,33,2,2,181,2,1,0,3,0.604944374094875,0.55528112696345
"1382",6,27,2,2,182,1,2,1,5,0.495908919298338,0.544307330701331
"1383",6,18,2,1,183,1,1,1,5,0.327364659752822,0.336851954032835
"1384",6,37,2,2,184,1,2,1,5,0.43683630015368,0.476126232648688
"1385",6,31,2,1,185,3,2,0,1,1.2187755286342,1.11079766365855
"1386",6,21,2,2,186,2,2,1,3,0.403893981707733,0.444619080767785
"1387",6,38,2,1,187,2,1,1,4,0.566294647356747,0.474042944316499
"1388",6,35,2,1,188,2,1,1,3,0.638443845338112,0.600726052032935
"1389",6,38,2,1,189,2,2,0,3,0.711951467508976,0.724693596630252
"1390",6,34,2,1,190,2,1,1,4,0.546289590773656,0.554826115088647
"1391",6,33,2,1,191,3,1,1,2,0.972125137675919,1.01544441103752
"1392",6,27,2,2,192,1,2,1,4,0.460554252624795,0.394343927113836
"1393",6,18,2,2,193,3,1,0,1,1.00710841131838,1.01480202895491
"1394",6,37,2,2,194,3,2,1,3,0.930263695594861,0.85460350485632
"1395",6,31,2,2,195,2,1,0,3,0.658632621297003,0.714106765802188
"1396",6,21,2,1,196,3,1,1,3,0.810840047859052,0.873206846787296
"1397",6,38,2,2,197,3,2,1,2,0.844188328203684,0.791041035585391
"1398",6,35,2,1,198,1,1,1,5,0.416744530722904,0.484346433306093
"1399",6,38,2,2,199,2,2,1,3,0.42030142360304,0.434461970502085
"1400",6,34,2,1,200,1,1,1,4,0.353316318298955,0.365087316313082
"1401",6,33,2,1,201,2,1,1,3,0.506638009972306,0.496452054894099
"1402",6,27,2,1,202,2,2,0,2,0.739870449039718,0.70613651745863
"1403",6,18,2,1,203,1,1,1,5,0.405176977087846,0.351621556407533
"1404",6,37,2,1,204,3,2,0,2,1.28473204648538,1.3100023672472
"1405",6,31,2,2,205,1,1,0,4,0.446024350459496,0.414022504819188
"1406",6,21,2,1,206,3,2,0,2,0.273218897857104,0.371113355823706
"1407",6,38,2,2,207,1,2,1,5,0.377755642042531,0.427576831307045
"1408",6,35,2,1,208,2,1,1,4,0.594521695088792,0.528207899556307
"1409",6,38,2,1,209,3,2,0,1,0.375980841692928,0.414600342222527
"1410",6,34,2,2,210,1,2,1,4,0.463082377450251,0.483539976098866
"1411",6,33,2,2,211,1,2,1,5,0.40802644008315,0.401329307532214
"1412",6,27,2,1,212,3,1,1,2,1.21608199578592,1.20451668411956
"1413",6,18,2,2,213,1,2,1,5,0.457668872477503,0.541923408962617
"1414",6,37,2,2,214,2,2,1,3,0.844614287964925,0.839004742372319
"1415",6,31,2,1,215,3,2,0,1,1.02171116240491,1.03694873501806
"1416",6,21,2,1,216,2,1,1,4,0.554455144239287,0.602350469958257
"1417",6,38,2,2,217,2,2,1,3,0.482985670376132,0.567275525732927
"1418",6,35,2,2,218,3,2,1,2,0.723619326403066,0.742497546758112
"1419",6,38,2,2,219,2,2,1,3,0.419324944084236,0.479798426397003
"1420",6,34,2,2,220,2,2,1,3,0.555836192249387,0.495239479647039
"1421",6,33,2,1,221,1,1,1,5,0.347693813110601,0.385915238317895
"1422",6,27,2,1,222,1,1,1,5,0.340544436616311,0.314568879214588
"1423",6,18,2,1,223,3,2,0,1,1.46010831993494,1.43123698129062
"1424",6,37,2,2,224,3,2,1,3,0.847831542264908,0.890221713120005
"1425",6,31,2,1,225,3,2,0,1,1.04821612890547,1.02348801063568
"1426",6,21,2,1,226,1,1,1,4,0.448365496174411,0.445514360295514
"1427",6,38,2,1,227,1,1,1,4,0.425494362147744,0.431539692856561
"1428",6,35,2,2,228,2,1,0,3,0.875061731126681,0.791572800997912
"1429",6,38,2,2,229,3,1,0,2,0.842150621754288,0.965014121685308
"1430",6,34,2,2,230,3,2,1,3,0.485809799193683,0.451127291489917
"1431",6,33,2,1,231,1,2,0,4,0.587274048032101,0.62138524044474
"1432",6,27,2,2,232,3,2,1,2,0.661329198949467,0.602643480480845
"1433",6,18,2,1,233,3,2,0,2,1.62121830900062,1.62048782559864
"1434",6,37,2,2,234,3,1,0,1,0.968122001596814,0.965240859607324
"1435",6,31,2,2,235,1,2,1,5,0.280825336069487,0.232794221433386
"1436",6,21,2,1,236,1,2,0,4,0.669112226199599,0.689384725945762
"1437",6,38,2,2,237,1,2,1,5,0.426998778348062,0.441925422610255
"1438",6,35,2,1,238,2,2,0,3,0.51912187917926,0.55716675214333
"1439",6,38,2,1,239,3,2,0,1,0.848783072913074,0.714132013710066
"1440",6,34,2,1,240,1,1,1,5,0.327115124057836,0.372145924067948
"1441",5,31,1,2,1,2,1,0,3,0.453007417594605,0.385012433501047
"1442",5,32,1,2,2,2,2,1,4,0.615512037120161,0.613402875224354
"1443",5,24,1,2,3,2,2,1,4,0.468516044606558,0.530790174017446
"1444",5,37,1,2,4,2,2,1,4,0.716352792584234,0.762324622919692
"1445",5,19,1,2,5,1,2,1,5,0.3031626253707,0.314780373960688
"1446",5,38,1,2,6,1,1,0,4,0.62924232300726,0.596954034552569
"1447",5,33,1,2,7,3,1,0,2,0.683713614819782,0.71037019180832
"1448",5,24,1,1,8,3,1,1,3,0.880394505735528,0.876709783315578
"1449",5,30,1,2,9,2,2,1,3,0.291179663727054,0.240212521277396
"1450",5,37,1,2,10,2,2,1,3,0.75183648500899,0.775830277656621
"1451",5,31,1,2,11,2,2,1,3,0.586922851132247,0.643745538224123
"1452",5,32,1,1,12,1,2,0,3,0.499462199661743,0.50268972922205
"1453",5,24,1,2,13,1,2,1,5,0.272532660256892,0.256540764930021
"1454",5,37,1,2,14,3,2,1,3,0.678454917517359,0.643149290659215
"1455",5,19,1,1,15,3,1,1,2,0.793432244769265,0.873846400813409
"1456",5,38,1,1,16,3,1,1,3,0.665894281908457,0.720806743631099
"1457",5,33,1,2,17,3,2,1,3,0.914683491375875,0.862930789486309
"1458",5,24,1,1,18,3,1,1,2,0.248789931659605,0.291956419608407
"1459",5,30,1,2,19,1,2,1,5,0.534101290565317,0.528945253634409
"1460",5,37,1,2,20,2,1,0,2,0.683320667764236,0.633377007045884
"1461",5,31,1,2,21,3,2,1,3,1.06252199138265,1.04804153108887
"1462",5,32,1,2,22,1,2,1,5,0.488267218480129,0.5157148831352
"1463",5,24,1,2,23,1,2,1,5,0.504203982930992,0.399455820908023
"1464",5,37,1,1,24,1,1,1,5,0.29780285238023,0.318876355491624
"1465",5,19,1,2,25,1,2,1,5,0.246474627136455,0.21730320073803
"1466",5,38,1,1,26,1,2,0,4,0.296127483224334,0.38159547961199
"1467",5,33,1,1,27,3,1,1,3,0.710277257330969,0.668501994299129
"1468",5,24,1,1,28,1,1,1,4,0.402578892662655,0.407038262804489
"1469",5,30,1,1,29,1,2,0,4,0.661649185982652,0.623310908056132
"1470",5,37,1,2,30,2,2,1,3,0.57060489864789,0.650546705547833
"1471",5,31,1,1,31,3,2,0,1,1.64605947883202,1.52530804626717
"1472",5,32,1,2,32,1,2,1,4,0.318330068950833,0.383770578542198
"1473",5,24,1,1,33,3,1,1,3,0.695929166204405,0.646043718535735
"1474",5,37,1,1,34,2,1,1,4,0.498490852591887,0.528687240732038
"1475",5,19,1,2,35,2,2,1,3,0.507693011442929,0.39870750880241
"1476",5,38,1,1,36,2,2,0,2,0.567345212493142,0.601815272037692
"1477",5,33,1,1,37,3,1,1,2,1.19564791058239,1.24045454875104
"1478",5,24,1,2,38,1,1,0,3,0.476580995122917,0.423088546966593
"1479",5,30,1,2,39,1,2,1,5,0.410199788332385,0.371592880207489
"1480",5,37,1,1,40,3,1,1,3,0.902665827002397,0.873765330327106
"1481",5,31,1,1,41,2,1,1,3,0.792103871046817,0.763167942574119
"1482",5,32,1,2,42,3,1,0,1,0.703607023290633,0.709949774956959
"1483",5,24,1,2,43,2,2,1,3,0.518902938816934,0.576386010153584
"1484",5,37,1,2,44,2,1,0,2,0.602635540643482,0.612963919299578
"1485",5,19,1,2,45,3,1,0,2,0.893482777213326,0.874755117216253
"1486",5,38,1,1,46,1,1,1,4,0.243446190488541,0.269419076739325
"1487",5,33,1,2,47,2,2,1,4,0.576527617699607,0.531052848916297
"1488",5,24,1,1,48,3,1,1,2,0.788623682320221,0.841257301188245
"1489",5,30,1,2,49,2,2,1,4,0.602124765413162,0.672030133830741
"1490",5,37,1,1,50,1,1,1,5,0.276231423708257,0.296394363445731
"1491",5,31,1,2,51,2,2,1,3,0.745451670606446,0.727614542056266
"1492",5,32,1,2,52,3,2,1,2,0.873351830472918,0.830608278934664
"1493",5,24,1,1,53,3,2,0,1,1.33765652533451,1.33165662824462
"1494",5,37,1,2,54,3,2,1,3,0.941288282416913,0.917831831117339
"1495",5,19,1,2,55,1,2,1,4,0.510607751715549,0.489176469655373
"1496",5,38,1,2,56,2,1,0,2,0.89485223999122,0.90619052922992
"1497",5,33,1,2,57,3,2,1,2,1.08778281149666,1.04335540914691
"1498",5,24,1,2,58,3,1,0,2,1.05012319100503,1.07635393718605
"1499",5,30,1,1,59,3,1,1,3,0.639553204221574,0.689849473403186
"1500",5,37,1,2,60,1,2,1,4,0.500051104916561,0.537407607665233
"1501",5,31,1,1,61,1,1,1,4,0.517701137838306,0.525322034584696
"1502",5,32,1,2,62,2,2,1,3,0.560922187842661,0.591717059259187
"1503",5,24,1,2,63,1,2,1,5,0.381695899554554,0.379033476390301
"1504",5,37,1,1,64,2,1,1,4,0.75657475747406,0.722611984978246
"1505",5,19,1,2,65,1,2,1,4,0.372026061578258,0.343968121684305
"1506",5,38,1,2,66,1,2,1,5,0.38586464893245,0.418637272603915
"1507",5,33,1,1,67,2,1,1,4,0.540831546895048,0.539929710405577
"1508",5,24,1,2,68,3,1,0,1,1.23558030507569,1.23654681291616
"1509",5,30,1,1,69,3,1,1,3,0.846245034408336,0.785177494607868
"1510",5,37,1,1,70,3,2,0,2,0.606703586388162,0.536736750168182
"1511",5,31,1,1,71,3,1,1,3,0.957752078036014,0.971926772583454
"1512",5,32,1,2,72,2,1,0,2,0.777976324799986,0.768433074277947
"1513",5,24,1,1,73,1,1,1,5,0.447149211916497,0.416514601242006
"1514",5,37,1,1,74,3,2,0,2,1.52817269543202,1.45925875465482
"1515",5,19,1,1,75,3,1,1,2,0.57799849231002,0.633350942215147
"1516",5,38,1,1,76,1,1,1,4,0.300855775459977,0.221024552879939
"1517",5,33,1,2,77,3,2,1,2,0.724017539384578,0.738540002311038
"1518",5,24,1,1,78,1,1,1,5,0.329470688910858,0.356116529323848
"1519",5,30,1,2,79,1,1,0,4,0.594172509966116,0.670924015026163
"1520",5,37,1,1,80,2,2,0,3,0.703511634149873,0.656270960811645
"1521",5,31,1,2,81,1,2,1,5,0.432630249805049,0.445338265905749
"1522",5,32,1,1,82,3,2,0,1,1.21218983819761,1.19088385621647
"1523",5,24,1,1,83,2,2,0,2,0.746308299861437,0.739803085804071
"1524",5,37,1,2,84,3,1,0,1,0.983889764422634,1.04953754878111
"1525",5,19,1,2,85,2,2,1,3,0.689711364268613,0.684104624126034
"1526",5,38,1,1,86,1,1,1,5,0.43898337688891,0.422785330785303
"1527",5,33,1,1,87,2,2,0,3,0.562076273174443,0.613215541599442
"1528",5,24,1,2,88,3,2,1,3,0.580519259336781,0.525740864331217
"1529",5,30,1,1,89,2,1,1,4,0.401209720603638,0.477978134471256
"1530",5,37,1,1,90,2,1,1,3,0.748258499462617,0.728105634821012
"1531",5,31,1,1,91,2,2,0,2,0.698514866876269,0.689202195013592
"1532",5,32,1,1,92,2,2,0,3,0.798811058665075,0.861337173057629
"1533",5,24,1,1,93,3,1,1,3,0.973068612901538,0.879695092785725
"1534",5,37,1,2,94,3,2,1,3,0.697694769085012,0.679276668784686
"1535",5,19,1,2,95,1,2,1,4,0.353199763777235,0.361849741078475
"1536",5,38,1,2,96,3,1,0,1,1.12956988410326,1.15906720378114
"1537",5,33,1,1,97,1,1,1,4,0.527892091900163,0.574834882518449
"1538",5,24,1,1,98,1,1,1,4,0.398260059693893,0.443868695903521
"1539",5,30,1,1,99,1,2,0,3,0.512697042672339,0.498718836616148
"1540",5,37,1,1,100,3,1,1,2,0.681973834143873,0.654733578617372
"1541",5,31,1,1,101,1,1,1,4,0.534463264927475,0.567821209023211
"1542",5,32,1,1,102,2,2,0,3,1.00733659732623,1.10977311966315
"1543",5,24,1,2,103,1,2,1,4,0.272320733319638,0.26152424046202
"1544",5,37,1,2,104,1,2,1,4,0.504845030133099,0.591633095516367
"1545",5,19,1,2,105,1,2,1,5,0.376931037296066,0.387681538159083
"1546",5,38,1,1,106,3,1,1,3,0.811993908949612,0.862205039780267
"1547",5,33,1,1,107,2,1,1,4,0.737391652303238,0.738290351000262
"1548",5,24,1,1,108,3,2,0,2,1.39649278484908,1.44248302120635
"1549",5,30,1,1,109,1,1,1,5,0.299298995612781,0.272831308689591
"1550",5,37,1,2,110,1,2,1,5,0.479075175922228,0.456912696753248
"1551",5,31,1,2,111,3,2,1,3,0.720929756702798,0.780829962083283
"1552",5,32,1,1,112,2,1,1,4,0.526957129481977,0.527116259706544
"1553",5,24,1,2,113,2,2,1,4,0.515699251626578,0.504983582590784
"1554",5,37,1,2,114,1,1,0,4,0.454829321701694,0.409762623419492
"1555",5,19,1,2,115,1,2,1,4,0.306307756026748,0.340772526667843
"1556",5,38,1,1,116,2,2,0,2,0.818298772420395,0.763168393896752
"1557",5,33,1,1,117,2,1,1,3,0.601256261074197,0.600339011833047
"1558",5,24,1,1,118,2,2,0,2,0.486916883373757,0.507123553094504
"1559",5,30,1,2,119,2,1,0,3,0.835124463630216,0.838594468239173
"1560",5,37,1,2,120,3,1,0,2,1.01694029240889,1.08086356886679
"1561",5,31,1,1,121,2,2,0,3,0.521906726134632,0.595037351581999
"1562",5,32,1,2,122,1,2,1,5,0.441098396791266,0.496890719334709
"1563",5,24,1,2,123,2,1,0,2,0.968293429978257,0.863905158030966
"1564",5,37,1,2,124,1,1,0,4,0.652613922366401,0.689556225315027
"1565",5,19,1,2,125,1,2,1,4,0.593855482368004,0.607103642286024
"1566",5,38,1,1,126,2,1,1,4,0.369518319616391,0.327277201344936
"1567",5,33,1,1,127,3,1,1,3,0.734552121475569,0.697052737872431
"1568",5,24,1,1,128,3,1,1,3,1.06563168395482,1.03453423521815
"1569",5,30,1,1,129,3,2,0,2,0.97091526694006,0.990916720156991
"1570",5,37,1,1,130,3,2,0,1,0.553907388894931,0.569586254599026
"1571",5,31,1,2,131,2,2,1,3,0.589687277741711,0.488403927004653
"1572",5,32,1,2,132,2,1,0,2,0.662948899893924,0.595364063247811
"1573",5,24,1,2,133,2,2,1,3,0.707166320356499,0.745849231494701
"1574",5,37,1,2,134,1,2,1,4,0.487696609222044,0.413888676946939
"1575",5,19,1,2,135,3,2,1,2,0.682759464516478,0.671697527265423
"1576",5,38,1,2,136,3,1,0,2,1.33275836589485,1.29561415699668
"1577",5,33,1,1,137,2,1,1,4,0.585808058583846,0.577190200816851
"1578",5,24,1,2,138,3,2,1,2,0.658259748843853,0.607230165657928
"1579",5,30,1,1,139,3,1,1,2,0.66981835000772,0.655802307960555
"1580",5,37,1,1,140,1,1,1,5,0.508511175431446,0.457068810683807
"1581",5,31,1,1,141,2,2,0,2,0.827154504058315,0.780536863286865
"1582",5,32,1,1,142,3,1,1,3,0.767746457223606,0.794181680366263
"1583",5,24,1,1,143,3,2,0,2,0.868487347149308,0.939638648090512
"1584",5,37,1,1,144,2,2,0,2,0.700041474579912,0.723813041748671
"1585",5,19,1,2,145,2,1,0,3,0.960442359994863,0.896141417783591
"1586",5,38,1,1,146,2,1,1,3,0.655560655052104,0.552857587504004
"1587",5,33,1,2,147,1,2,1,5,0.47867850161803,0.455883093227607
"1588",5,24,1,1,148,2,2,0,3,0.625221561332575,0.674414623513487
"1589",5,30,1,1,149,2,1,1,3,0.699242681852156,0.724568261551946
"1590",5,37,1,2,150,3,1,0,1,0.976368131562776,0.882545746158308
"1591",5,31,1,1,151,2,1,1,3,0.684723350955352,0.650461704749403
"1592",5,32,1,2,152,1,1,0,4,0.407921839799676,0.400420490166589
