"","subj_no","age","group","stim","trial","difficulty","resp","corr","conf","RT_day1","RT_day2"
"1",12,30,2,2,1,2,1,0,2,0.69254013744217,0.699624161374553
"2",12,18,2,1,2,1,1,1,4,0.366514027278789,0.371336670001635
"3",12,28,2,2,3,2,2,1,4,0.621424637189876,0.562327968904109
"4",12,24,2,1,4,3,2,0,1,1.15570285346568,1.14958346369311
"5",12,25,2,2,5,2,2,1,3,0.70568468268595,0.730809139123876
"6",12,21,2,2,6,2,1,0,3,0.918467186940805,0.888184883068289
"7",12,23,2,2,7,2,1,0,2,0.858462805357796,0.830627627652877
"8",12,36,2,2,8,2,2,1,4,0.57626143136053,0.573279438202423
"9",12,26,2,1,9,3,1,1,2,1.12132446886142,1.126377136613
"10",12,31,2,2,10,1,2,1,5,0.454713139182563,0.431113747429827
"11",12,30,2,1,11,3,1,1,3,0.915589075840603,0.953383081951287
"12",12,18,2,2,12,3,1,0,1,1.00212519736679,1.01891630189814
"13",12,28,2,1,13,2,1,1,3,0.765038765624711,0.814140334060399
"14",12,24,2,2,14,3,1,0,1,1.07939824116609,1.02441945780615
"15",12,25,2,1,15,2,2,0,3,0.605918488886516,0.596991343186599
"16",12,21,2,1,16,3,2,0,2,0.980467061727675,0.979207498017223
"17",12,23,2,2,17,1,2,1,5,0.374464891154662,0.360123178333099
"18",12,36,2,2,18,3,2,1,3,1.12556172508819,1.16544648102056
"19",12,26,2,1,19,1,1,1,4,0.397934836659037,0.378162582291439
"20",12,31,2,2,20,1,2,1,5,0.475737706668492,0.446481488866153
"21",12,30,2,1,21,2,2,0,3,0.552687047580198,0.537305612421345
"22",12,18,2,2,22,1,2,1,4,0.301748920149036,0.332036506335012
"23",12,28,2,2,23,3,1,0,2,1.18177088946603,1.17399831038717
"24",12,24,2,1,24,2,1,1,4,0.63123337031231,0.600405210074826
"25",12,25,2,1,25,1,1,1,5,0.278102877514525,0.286380890706046
"26",12,21,2,2,26,2,1,0,2,0.43406165005421,0.343416569926837
"27",12,23,2,1,27,3,2,0,1,0.578878900054093,0.614862041936945
"28",12,36,2,1,28,3,2,0,2,1.08230916377287,1.15875913795627
"29",12,26,2,2,29,3,2,1,2,0.880922447538383,0.828457046749638
"30",12,31,2,2,30,2,1,0,3,0.635727138938892,0.639878677649504
"31",12,30,2,1,31,1,2,0,3,0.657083591740499,0.609254108720772
"32",12,18,2,1,32,2,1,1,3,0.652503407289693,0.598359771673436
"33",12,28,2,1,33,3,2,0,1,0.635448278068808,0.675420193131611
"34",12,24,2,2,34,1,2,1,4,0.369464037776199,0.367298701022665
"35",12,25,2,1,35,1,1,1,5,0.459954124486868,0.544325854315807
"36",12,21,2,2,36,2,1,0,3,0.735844470581352,0.650998031615768
"37",12,23,2,1,37,3,1,1,3,0.588449018819233,0.55969957349845
"38",12,36,2,2,38,3,1,0,2,0.951442515433102,0.980687567142531
"39",12,26,2,1,39,1,1,1,4,0.383086796227868,0.395752028062473
"40",12,31,2,2,40,2,2,1,3,0.436242164277035,0.414301964019249
"41",12,30,2,1,41,3,2,0,2,1.33598951746875,1.36410173737044
"42",12,18,2,1,42,1,1,1,4,0.381349102602265,0.317774020594081
"43",12,28,2,2,43,3,1,0,1,0.668610134328451,0.685834825285955
"44",12,24,2,2,44,2,1,0,3,0.773510283239933,0.804150321214738
"45",12,25,2,2,45,2,2,1,3,0.73237587798783,0.669446910323867
"46",12,21,2,2,46,2,2,1,4,0.610619512713954,0.565807564223792
"47",12,23,2,1,47,2,1,1,3,0.496410804841782,0.607985191049376
"48",12,36,2,1,48,3,2,0,1,0.790808523121635,0.737930420873104
"49",12,26,2,2,49,3,2,1,3,0.915341845273688,0.844437648628002
"50",12,31,2,1,50,2,1,1,3,0.56739982182664,0.581844188769066
"51",12,30,2,1,51,2,2,0,2,0.826811919538766,0.826310505739202
"52",12,18,2,1,52,1,2,0,3,0.564900801114582,0.622015799666442
"53",12,28,2,1,53,1,2,0,3,0.508489963528504,0.495879026200067
"54",12,24,2,1,54,1,1,1,4,0.249119031828775,0.211137201666671
"55",12,25,2,1,55,3,2,0,1,0.936506508022187,0.976205737935428
"56",12,21,2,1,56,1,1,1,5,0.440931264277161,0.398925614314343
"57",12,23,2,1,57,2,1,1,4,0.670649348050877,0.665738168263802
"58",12,36,2,1,58,2,1,1,4,0.646719578623593,0.724201286108145
"59",12,26,2,2,59,1,2,1,4,0.421234301151258,0.463432727913848
"60",12,31,2,2,60,2,2,1,4,0.675527187482526,0.725568903582871
"61",12,30,2,2,61,1,2,1,5,0.355793605232249,0.38469890157017
"62",12,18,2,1,62,1,1,1,5,0.466599732824803,0.442476850082677
"63",12,28,2,1,63,2,2,0,2,0.908346751285998,0.950593778818735
"64",12,24,2,2,64,2,2,1,4,0.459754621794364,0.464185826673632
"65",12,25,2,2,65,1,2,1,4,0.326661150912431,0.342912938891238
"66",12,21,2,2,66,3,2,1,3,1.03294245994051,0.990952490641011
"67",12,23,2,1,67,3,1,1,2,0.749778407085641,0.728799323669317
"68",12,36,2,1,68,3,1,1,3,0.758366941081584,0.763774565040942
"69",12,26,2,2,69,3,2,1,2,0.72053528679887,0.640621091959797
"70",12,31,2,1,70,1,1,1,4,0.557437112051705,0.528571166550692
"71",12,30,2,2,71,1,2,1,5,0.412617719712736,0.414702282219172
"72",12,18,2,1,72,1,2,0,4,0.444185756721094,0.517589402527355
"73",12,28,2,2,73,1,2,1,4,0.450219687840065,0.410349240677594
"74",12,24,2,1,74,2,2,0,3,0.785713129243811,0.797323770353287
"75",12,25,2,2,75,1,1,0,3,0.691812541657611,0.752714277440582
"76",12,21,2,1,76,2,2,0,3,0.493055339126617,0.443159454628385
"77",12,23,2,2,77,1,2,1,5,0.367845530977216,0.379787109744052
"78",12,36,2,2,78,3,2,1,3,0.546324619219268,0.561592320732012
"79",12,26,2,1,79,2,1,1,4,0.602381609264214,0.644926277784297
"80",12,31,2,2,80,1,2,1,4,0.384455401395817,0.4490661293495
"81",12,30,2,1,81,1,1,1,5,0.428972495845009,0.426858708184298
"82",12,18,2,1,82,3,1,1,3,0.554898421448851,0.565236943116298
"83",12,28,2,2,83,2,1,0,3,0.57632622150676,0.508077035924469
"84",12,24,2,2,84,3,1,0,2,0.983514384193488,0.933798231680157
"85",12,25,2,1,85,3,1,1,3,0.875167835882108,0.986035024372421
"86",12,21,2,1,86,3,1,1,2,0.800797957416506,0.806489694261954
"87",12,23,2,2,87,3,2,1,3,0.79431607246146,0.710939114852982
"88",12,36,2,1,88,3,1,1,3,0.944229790820312,0.940926066946207
"89",12,26,2,2,89,3,1,0,2,1.24101378986016,1.19926874841763
"90",12,31,2,2,90,1,1,0,4,0.516252330853755,0.609610826731428
"91",12,30,2,2,91,2,1,0,2,0.476654061014171,0.501379842988667
"92",12,18,2,1,92,3,2,0,2,1.08783165493677,1.13680605697751
"93",12,28,2,2,93,2,2,1,3,0.606009388156827,0.541452816774508
"94",12,24,2,2,94,2,2,1,3,0.545670931619979,0.588861445622656
"95",12,25,2,2,95,2,1,0,3,0.648150588076173,0.640103147648784
"96",12,21,2,2,96,2,2,1,4,0.723460753378882,0.740084586572135
"97",12,23,2,1,97,2,2,0,2,0.769745157898102,0.693232702010313
"98",12,36,2,2,98,2,2,1,3,0.604427451956667,0.552763642751455
"99",12,26,2,2,99,1,2,1,4,0.293362929313187,0.250255652073435
"100",12,31,2,1,100,2,1,1,3,0.635744623942142,0.6179558350645
"101",12,30,2,2,101,1,2,1,4,0.308573825221758,0.226093589681217
"102",12,18,2,1,102,1,1,1,4,0.488002949785604,0.422526984202648
"103",12,28,2,2,103,1,2,1,5,0.324769823337913,0.321614037508532
"104",12,24,2,1,104,1,1,1,4,0.397792868474492,0.498742101868273
"105",12,25,2,2,105,2,1,0,2,0.69127065028612,0.620476123490851
"106",12,21,2,2,106,2,1,0,3,0.776693878269256,0.696809534048127
"107",12,23,2,1,107,3,1,1,2,0.628039040097565,0.670596781585151
"108",12,36,2,1,108,3,1,1,3,1.19372312063126,1.15337135637618
"109",12,26,2,1,109,2,1,1,3,0.501195738499115,0.446527906517468
"110",12,31,2,1,110,1,1,1,5,0.361147274496831,0.395216468307851
"111",12,30,2,1,111,3,2,0,1,0.616250513274011,0.554858532802987
"112",12,18,2,1,112,3,2,0,2,0.825959858535479,0.892116673370715
"113",12,28,2,2,113,2,1,0,2,0.821083318633356,0.768923491127499
"114",12,24,2,2,114,1,2,1,4,0.297974036791152,0.314893605482064
"115",12,25,2,2,115,1,2,1,4,0.494027933860285,0.515533460528314
"116",12,21,2,2,116,1,1,0,3,0.615780328084927,0.662626880826255
"117",12,23,2,1,117,2,1,1,3,0.596990985618575,0.623847868884343
"118",12,36,2,2,118,2,1,0,2,0.801561626666668,0.741531000546595
"119",12,26,2,2,119,3,1,0,1,1.40442612212835,1.40014875245122
"120",12,31,2,2,120,3,2,1,2,0.78346106261742,0.799823233847153
"121",12,30,2,1,121,3,2,0,2,0.747587218570988,0.725385355449607
"122",12,18,2,1,122,1,2,0,4,0.517028955912401,0.376123108898508
"123",12,28,2,2,123,3,1,0,2,0.83346083392066,0.816955497489059
"124",12,24,2,1,124,3,2,0,1,1.25867148058691,1.26988171714657
"125",12,25,2,2,125,1,2,1,4,0.507931082143425,0.5958023055647
"126",12,21,2,1,126,1,1,1,5,0.40826106107754,0.455362553417652
"127",12,23,2,2,127,1,2,1,4,0.473891425678299,0.522715825923582
"128",12,36,2,2,128,2,1,0,3,0.755069898747703,0.777574027069585
"129",12,26,2,1,129,1,1,1,4,0.374065598991402,0.352734028467965
"130",12,31,2,2,130,2,2,1,4,0.683793341908492,0.725557015210007
"131",12,30,2,1,131,2,1,1,3,0.684706695607563,0.68206601144068
"132",12,18,2,1,132,3,2,0,2,0.534905104007277,0.470130365344364
"133",12,28,2,1,133,3,2,0,2,0.681746523923094,0.703227029124378
"134",12,24,2,1,134,2,2,0,3,0.899544231353447,0.925703508510922
"135",12,25,2,2,135,2,1,0,2,0.598318938912484,0.580891166698157
"136",12,21,2,2,136,2,1,0,2,0.53413603412888,0.552880807461773
"137",12,23,2,2,137,2,2,1,3,0.639513991786775,0.594145884933669
"138",12,36,2,2,138,1,2,1,4,0.427873797622579,0.466502063539004
"139",12,26,2,1,139,2,1,1,4,0.616499603512841,0.620842493352002
"140",12,31,2,2,140,1,1,0,4,0.481993472099249,0.420161541852459
"141",12,30,2,1,141,3,1,1,3,0.683874680600369,0.644799152206254
"142",12,18,2,1,142,2,2,0,3,0.707711837172316,0.690303726850081
"143",12,28,2,2,143,3,1,0,2,1.00286129974618,1.01502420434115
"144",12,24,2,2,144,1,2,1,4,0.365814501731054,0.32207103986792
"145",12,25,2,1,145,3,2,0,1,0.824265876224032,0.754928845416744
"146",12,21,2,1,146,1,1,1,4,0.363380584089387,0.358443866736132
"147",12,23,2,1,147,2,2,0,3,0.562361030163686,0.638707467793133
"148",12,36,2,2,148,3,1,0,1,1.05965641531434,1.01192520911136
"149",12,26,2,2,149,3,1,0,1,0.752682522711262,0.764728971314786
"150",12,31,2,2,150,2,2,1,4,0.632940615971313,0.615235776519781
"151",12,30,2,2,151,1,2,1,5,0.419637648462034,0.3796528629907
"152",12,18,2,1,152,2,1,1,3,0.463129361438931,0.315153586783977
"153",12,28,2,1,153,3,2,0,1,1.47246679869349,1.48144997915637
"154",12,24,2,2,154,1,2,1,4,0.375249302624361,0.365030871798672
"155",12,25,2,1,155,3,2,0,1,1.00567326658391,0.97630501588327
"156",12,21,2,2,156,2,1,0,3,0.689284046979917,0.705735522093519
"157",12,23,2,2,157,1,1,0,4,0.502410514576103,0.627656736239659
"158",12,36,2,1,158,3,2,0,2,0.956469967277111,1.01174193036454
"159",12,26,2,1,159,2,1,1,3,0.633676742282029,0.617294302810081
"160",12,31,2,1,160,3,2,0,2,1.36672983901725,1.35909037234783
"161",12,30,2,1,161,3,2,0,2,0.951794350267387,0.991079277395698
"162",12,18,2,2,162,2,2,1,3,0.577808372050424,0.583849448965774
"163",12,28,2,1,163,1,1,1,5,0.338366021212688,0.289442136223478
"164",12,24,2,2,164,1,2,1,5,0.482151015459172,0.470387567132496
"165",12,25,2,2,165,1,2,1,4,0.335282234423093,0.415938477083587
"166",12,21,2,2,166,3,1,0,2,1.17576549711066,1.2434420347777
"167",12,23,2,1,167,3,2,0,1,1.01018661701305,1.03292688936725
"168",12,36,2,2,168,1,1,0,3,0.58500363064479,0.570068199187574
"169",12,26,2,1,169,3,2,0,2,0.923858882802857,0.943823676576627
"170",12,31,2,1,170,1,1,1,5,0.500895627470903,0.50891823969299
"171",12,30,2,1,171,1,1,1,5,0.368849264245087,0.434584453888539
"172",12,18,2,1,172,3,2,0,1,1.56706706996154,1.53670555697425
"173",12,28,2,1,173,1,1,1,4,0.510278378040565,0.488124914448943
"174",12,24,2,2,174,2,2,1,4,0.668747543739675,0.661489582023104
"175",12,25,2,1,175,3,2,0,2,0.94415337772218,0.92630553270063
"176",12,21,2,1,176,2,2,0,2,0.932131235343211,0.970604812323101
"177",12,23,2,2,177,2,1,0,2,0.498187919749326,0.517285475585709
"178",12,36,2,2,178,3,2,1,2,0.946579246352973,0.993006414281855
"179",12,26,2,2,179,1,2,1,4,0.459985485715646,0.385141964646182
"180",12,31,2,1,180,3,2,0,2,1.27108369194014,1.36445771987677
"181",12,30,2,2,181,1,2,1,4,0.461907651586843,0.373443913462879
"182",12,18,2,2,182,3,2,1,3,0.680271565950636,0.632548651905789
"183",12,28,2,2,183,1,2,1,5,0.453054187811975,0.455645786293311
"184",12,24,2,1,184,2,1,1,3,0.572063879283764,0.550159742805394
"185",12,25,2,2,185,3,1,0,2,1.30828788187218,1.3369381666005
"186",12,21,2,1,186,1,1,1,5,0.458084315093082,0.518678018089154
"187",12,23,2,2,187,2,1,0,3,0.651166258129183,0.628097219761839
"188",12,36,2,2,188,3,1,0,1,0.915473480258757,0.948522893597675
"189",12,26,2,2,189,2,2,1,4,0.589162993910484,0.538990963254485
"190",12,31,2,1,190,2,2,0,2,0.643446906836528,0.708769375212142
"191",12,30,2,2,191,1,2,1,4,0.480294248734542,0.444478390694202
"192",12,18,2,1,192,1,1,1,5,0.365609112224726,0.300922271613594
"193",12,28,2,1,193,3,1,1,3,0.900019605363683,0.896202991101748
"194",12,24,2,2,194,2,1,0,2,0.594822576374536,0.604716231429622
"195",12,25,2,2,195,2,1,0,2,0.875106128729456,0.836976848504699
"196",12,21,2,1,196,2,1,1,3,0.582284410772585,0.550754640528645
"197",12,23,2,2,197,2,2,1,4,0.443586201775544,0.487092508618881
"198",12,36,2,2,198,1,2,1,5,0.474898943509049,0.423972055742315
"199",12,26,2,2,199,2,2,1,3,0.773419065614442,0.773884088766249
"200",12,31,2,1,200,2,1,1,4,0.56758016730851,0.621848075945497
"201",12,30,2,1,201,3,1,1,3,0.917534241600402,0.929676389814577
"202",12,18,2,2,202,1,2,1,5,0.140698247043093,0.124053568304619
"203",12,28,2,1,203,3,2,0,1,0.746304738933532,0.752328937450031
"204",12,24,2,2,204,1,1,0,4,0.592648200920599,0.696954427725806
"205",12,25,2,1,205,2,1,1,3,0.970393051501346,1.00229610458715
"206",12,21,2,1,206,1,1,1,5,0.357750295485941,0.341013527287521
"207",12,23,2,2,207,3,1,0,2,0.190740352694732,0.213066722853937
"208",12,36,2,1,208,2,1,1,4,0.517689882520726,0.518437064995025
"209",12,26,2,1,209,3,2,0,2,1.08403477874029,1.10186309522722
"210",12,31,2,1,210,2,2,0,3,0.564630950442707,0.606747538613823
"211",12,30,2,1,211,2,1,1,4,0.408924674482834,0.372849671145009
"212",12,18,2,2,212,1,2,1,4,0.524080389734233,0.497394707529521
"213",12,28,2,1,213,3,1,1,3,0.507056156233658,0.473284213388917
"214",12,24,2,1,214,1,1,1,4,0.356660836376306,0.290021305410601
"215",12,25,2,1,215,1,2,0,3,0.533815655125602,0.591658213404243
"216",12,21,2,2,216,1,1,0,4,0.525510448486491,0.502069806722069
"217",12,23,2,2,217,1,2,1,4,0.31712496861197,0.323521954600709
"218",12,36,2,1,218,3,1,1,3,0.536269665539824,0.605001793545506
"219",12,26,2,2,219,1,1,0,3,0.459399720532995,0.457175186486734
"220",12,31,2,1,220,2,1,1,3,0.581952591747858,0.538585807663541
"221",12,30,2,1,221,3,2,0,1,1.20926978622501,1.13457712257453
"222",12,18,2,2,222,3,2,1,2,0.884189690953465,0.850955241934723
"223",12,28,2,1,223,3,2,0,2,1.28565141873258,1.35101129824869
"224",12,24,2,1,224,3,2,0,1,0.83607101862087,0.879880473207125
"225",12,25,2,2,225,1,2,1,4,0.300805620211858,0.345850275195276
"226",12,21,2,2,226,1,1,0,4,0.609334328054768,0.600297934195389
"227",12,23,2,2,227,2,2,1,3,0.697936450192747,0.585760039910313
"228",12,36,2,2,228,2,2,1,4,0.375623139077926,0.294917911587018
"229",12,26,2,2,229,1,2,1,4,0.373384980576569,0.439574057605748
"230",12,31,2,1,230,1,2,0,3,0.308644359485291,0.241540864029431
"231",12,30,2,1,231,3,2,0,1,1.11511790708433,1.06959617337312
"232",12,18,2,1,232,1,2,0,3,0.391127975096612,0.359336568202903
"233",12,28,2,1,233,3,2,0,1,1.07755486289501,0.99554632943236
"234",12,24,2,1,234,3,1,1,2,0.99561540750428,1.03610758204637
"235",12,25,2,2,235,1,2,1,5,0.429174392149685,0.424832301428169
"236",12,21,2,1,236,3,1,1,2,0.543679631230266,0.583662101008895
"237",12,23,2,1,237,2,2,0,3,0.712712881068425,0.669593655018043
"238",12,36,2,2,238,1,2,1,4,0.417975051819539,0.374603317873307
"239",12,26,2,2,239,3,2,1,3,0.885817608591661,0.885601425701479
"240",12,31,2,2,240,3,1,0,1,1.42032494026364,1.33685240066488
"241",11,27,1,2,1,3,2,1,3,0.925495095702228,0.975708041214951
"242",11,40,1,2,2,1,2,1,4,0.393506989447055,0.413194442536755
"243",11,30,1,1,3,3,2,0,1,0.323540230936726,0.331734332515546
"244",11,33,1,1,4,2,2,0,2,0.63139045898285,0.559868131554031
"245",11,19,1,1,5,2,1,1,4,0.681398720870423,0.662021367666892
"246",11,30,1,2,6,2,2,1,3,0.546604954183163,0.535997098179182
"247",11,31,1,2,7,2,2,1,3,0.550618885281436,0.516598603166206
"248",11,34,1,1,8,2,2,0,2,0.555388236821051,0.571251473628237
"249",11,34,1,1,9,2,1,1,3,0.685306314583162,0.550157649025529
"250",11,38,1,2,10,2,1,0,2,0.731342206185774,0.695220923456385
"251",11,27,1,2,11,3,2,1,3,0.702996104274952,0.726059057279474
"252",11,40,1,1,12,1,1,1,4,0.423219800228444,0.348083778891074
"253",11,30,1,2,13,2,2,1,3,0.334445547298145,0.328834686876327
"254",11,33,1,1,14,1,2,0,4,0.577994498166345,0.621909025722077
"255",11,19,1,2,15,1,1,0,4,0.491545336968968,0.501703473138532
"256",11,30,1,2,16,2,2,1,4,0.461474706024796,0.433745995141831
"257",11,31,1,2,17,2,1,0,2,0.678844737214879,0.747125694801399
"258",11,34,1,1,18,3,2,0,1,1.30733181323171,1.25077680327267
"259",11,34,1,2,19,2,2,1,4,0.48917086033443,0.473028205284014
"260",11,38,1,1,20,1,1,1,4,0.458250028835056,0.555413336928298
"261",11,27,1,1,21,2,2,0,3,0.555677718941379,0.493725227147899
"262",11,40,1,1,22,2,1,1,4,0.496971080203463,0.552562208392323
"263",11,30,1,1,23,1,1,1,4,0.31043010802718,0.291615242177294
"264",11,33,1,1,24,3,2,0,1,1.45900077861342,1.41159642699377
"265",11,19,1,2,25,1,2,1,4,0.413894733382141,0.468788197948307
"266",11,30,1,2,26,3,2,1,3,0.50764260174355,0.421697744562602
"267",11,31,1,1,27,1,1,1,4,0.40001243587207,0.450782646295243
"268",11,34,1,2,28,1,2,1,4,0.37181561342164,0.386860902385491
"269",11,34,1,2,29,3,2,1,2,0.733841065711314,0.816208320983377
"270",11,38,1,1,30,1,1,1,5,0.366765023827756,0.332512139859966
"271",11,27,1,1,31,3,2,0,2,0.767996515982732,0.72925537481923
"272",11,40,1,1,32,1,1,1,4,0.299413330066563,0.25442772019842
"273",11,30,1,1,33,1,1,1,4,0.30521892997413,0.266813461962863
"274",11,33,1,2,34,2,1,0,2,0.589128827451243,0.632079016062332
"275",11,19,1,1,35,3,1,1,3,0.649353119401658,0.665640088242498
"276",11,30,1,1,36,3,1,1,2,0.466178698365223,0.549631726616561
"277",11,31,1,2,37,3,2,1,3,0.925215671980133,0.925522812829923
"278",11,34,1,2,38,2,2,1,3,0.656862679504538,0.64480465399599
"279",11,34,1,2,39,1,1,0,4,0.585502761979915,0.552978958722745
"280",11,38,1,2,40,2,1,0,3,0.683159131571327,0.655862776590819
"281",11,27,1,1,41,3,1,1,2,1.0697003416531,1.0352399262845
"282",11,40,1,1,42,2,1,1,3,0.687890002010034,0.683659086203055
"283",11,30,1,2,43,2,1,0,3,0.792512089082554,0.764530752132629
"284",11,33,1,2,44,2,2,1,3,0.670630443885525,0.575285961590507
"285",11,19,1,1,45,3,2,0,2,1.06159334579854,1.03529542734491
"286",11,30,1,2,46,3,2,1,2,0.974943038544099,1.00286488680548
"287",11,31,1,2,47,3,1,0,2,0.622124115801865,0.582936406896362
"288",11,34,1,1,48,2,1,1,4,0.621889153635802,0.547582974463085
"289",11,34,1,2,49,1,2,1,4,0.35538565880542,0.384240120615246
"290",11,38,1,1,50,2,1,1,4,0.811398802908635,0.816607610873154
"291",11,27,1,2,51,3,1,0,2,1.02986345874128,1.01657054485643
"292",11,40,1,1,52,3,1,1,2,0.961649486023155,1.01145785180573
"293",11,30,1,1,53,1,2,0,4,0.527569748794182,0.494245865172972
"294",11,33,1,1,54,1,2,0,3,0.662251092488665,0.562645804067861
"295",11,19,1,2,55,2,2,1,4,0.488381837873295,0.510740101924109
"296",11,30,1,1,56,1,1,1,4,0.351746203916053,0.434030074159332
"297",11,31,1,1,57,1,1,1,5,0.404593153785647,0.344042710736323
"298",11,34,1,2,58,2,2,1,3,0.937147258305287,0.926916092532854
"299",11,34,1,2,59,2,2,1,4,0.433673825195729,0.553798649094655
"300",11,38,1,1,60,3,1,1,3,0.587217182115227,0.574590731644928
"301",11,27,1,1,61,1,2,0,3,0.640059113253755,0.652453768493252
"302",11,40,1,1,62,3,2,0,2,0.97893640899178,0.90755066554623
"303",11,30,1,2,63,3,2,1,3,0.573252936752198,0.553868227358373
"304",11,33,1,1,64,2,1,1,4,0.659747358884882,0.74242037520414
"305",11,19,1,2,65,2,2,1,3,0.697182741881011,0.676068182724961
"306",11,30,1,2,66,3,1,0,2,0.49930788710716,0.46107329336004
"307",11,31,1,2,67,3,1,0,1,0.889457455348204,0.918457473656549
"308",11,34,1,1,68,1,1,1,4,0.592673484830453,0.636688467455078
"309",11,34,1,2,69,3,2,1,3,0.641121880079746,0.72515348159881
"310",11,38,1,1,70,1,1,1,4,0.496937609809824,0.474109868505408
"311",11,27,1,1,71,3,2,0,1,1.45894475521971,1.50832250075968
"312",11,40,1,1,72,2,1,1,4,0.538473336723072,0.619000083006469
"313",11,30,1,1,73,3,1,1,2,0.774136833825794,0.742928234204319
"314",11,33,1,1,74,1,1,1,5,0.281528821701472,0.291124350064171
"315",11,19,1,2,75,3,2,1,2,0.614636854735101,0.541626519139982
"316",11,30,1,1,76,1,1,1,5,0.369817811668216,0.365454492589874
"317",11,31,1,1,77,3,2,0,2,0.74002424936068,0.769761300301193
"318",11,34,1,1,78,1,1,1,4,0.343777536852758,0.371187499755009
"319",11,34,1,2,79,1,1,0,4,0.741756658769871,0.650071347205427
"320",11,38,1,2,80,1,2,1,5,0.443483762558373,0.400835965642024
"321",11,27,1,2,81,1,1,0,4,0.483698007157442,0.427309548539988
"322",11,40,1,1,82,1,2,0,3,0.596385868139352,0.556453273673888
"323",11,30,1,1,83,3,1,1,2,0.93797616880613,0.972048249794465
"324",11,33,1,2,84,3,1,0,2,0.723039940663287,0.705680296223143
"325",11,19,1,1,85,1,2,0,4,0.426768931432987,0.310629181366328
"326",11,30,1,2,86,2,2,1,4,0.673423704346908,0.696087644533687
"327",11,31,1,1,87,2,1,1,3,0.632047010496749,0.642499234971372
"328",11,34,1,2,88,3,2,1,2,0.95031021306582,0.940051242843461
"329",11,34,1,1,89,1,2,0,3,0.593165802060274,0.582514043702412
"330",11,38,1,1,90,1,1,1,4,0.318766516933251,0.294335410854753
"331",11,27,1,2,91,2,2,1,4,0.546907955499368,0.57635417326166
"332",11,40,1,1,92,2,2,0,2,0.520584134424717,0.506751951613677
"333",11,30,1,1,93,2,1,1,4,0.439096835636217,0.478839861060213
"334",11,33,1,1,94,1,1,1,4,0.451057567640368,0.434897209759666
"335",11,19,1,1,95,3,2,0,2,1.10419599680932,1.1178888354201
"336",11,30,1,2,96,1,2,1,5,0.384119064674293,0.440226586218876
"337",11,31,1,2,97,2,1,0,2,0.391573012461769,0.315505894319723
"338",11,34,1,2,98,2,2,1,4,0.71110278262126,0.728255319181353
"339",11,34,1,2,99,1,2,1,4,0.524838055097921,0.588012870050584
"340",11,38,1,1,100,1,1,1,4,0.502951753216825,0.518222886020171
"341",11,27,1,2,101,3,1,0,2,1.35911518303495,1.3649919961772
"342",11,40,1,2,102,3,2,1,2,0.92553002883322,0.935636028701659
"343",11,30,1,1,103,2,1,1,3,0.34366596704687,0.375596394920047
"344",11,33,1,2,104,2,1,0,3,0.844357316968708,0.914484875276855
"345",11,19,1,2,105,2,2,1,3,0.452355114259333,0.405232233059536
"346",11,30,1,2,106,3,2,1,2,0.581820587840509,0.49836577463095
"347",11,31,1,1,107,2,2,0,2,0.351006297329833,0.387834334255847
"348",11,34,1,2,108,1,1,0,3,0.599672146844159,0.657120637504326
"349",11,34,1,1,109,2,1,1,4,0.786037064902551,0.818976067772999
"350",11,38,1,2,110,2,2,1,4,0.501221911979048,0.475139182265709
"351",11,27,1,1,111,1,1,1,5,0.364480277917445,0.3992971891932
"352",11,40,1,1,112,1,2,0,4,0.613543773110081,0.594923779176389
"353",11,30,1,2,113,2,2,1,4,0.605357408742639,0.615601705400316
"354",11,33,1,2,114,2,2,1,4,0.499312964867514,0.501088166683566
"355",11,19,1,2,115,2,2,1,3,0.522491128076003,0.493232943250397
"356",11,30,1,1,116,3,1,1,2,0.608843468375511,0.62022071517703
"357",11,31,1,2,117,3,2,1,3,0.808362170840133,0.762034622802322
"358",11,34,1,1,118,3,1,1,3,0.675450295843246,0.680676430884094
"359",11,34,1,2,119,2,1,0,2,0.641363459134499,0.656569849738052
"360",11,38,1,2,120,3,2,1,3,0.603684332925525,0.618369666234247
"361",11,27,1,2,121,2,2,1,4,0.57806987836341,0.526439914598173
"362",11,40,1,2,122,1,2,1,4,0.478021851941845,0.453241010227182
"363",11,30,1,1,123,2,1,1,4,0.740820659226402,0.755534009537398
"364",11,33,1,1,124,1,1,1,4,0.485490680745879,0.410330149186925
"365",11,19,1,2,125,1,2,1,4,0.41256956099499,0.438216708063424
"366",11,30,1,2,126,1,2,1,5,0.292595913955236,0.332377541250164
"367",11,31,1,2,127,1,2,1,4,0.4423848272675,0.524860766709407
"368",11,34,1,1,128,1,2,0,3,0.58546915491892,0.594906637632
"369",11,34,1,2,129,3,1,0,1,1.01565707763592,1.00435399823835
"370",11,38,1,2,130,2,2,1,3,0.675414269666807,0.595074652784666
"371",11,27,1,1,131,1,2,0,3,0.487683439759913,0.509786528761306
"372",11,40,1,2,132,1,2,1,4,0.358109942504826,0.452479337034753
"373",11,30,1,1,133,3,1,1,2,0.768188629544755,0.747744712216315
"374",11,33,1,1,134,1,1,1,4,0.31743675741028,0.291839488497729
"375",11,19,1,1,135,1,1,1,4,0.384699499319074,0.295392902720535
"376",11,30,1,1,136,3,1,1,3,0.738143485493093,0.716236865515716
"377",11,31,1,2,137,2,2,1,4,0.725514966577433,0.749473260034127
"378",11,34,1,1,138,1,1,1,4,0.520735686179273,0.470660579888894
"379",11,34,1,1,139,3,1,1,3,0.672355818726346,0.551293290341557
"380",11,38,1,2,140,1,2,1,5,0.417407145512495,0.373440362750152
"381",11,27,1,2,141,3,2,1,2,0.915872729950791,0.850698523583493
"382",11,40,1,2,142,1,2,1,5,0.305371297343996,0.261570408365617
"383",11,30,1,1,143,1,1,1,5,0.512436705993912,0.422761422805242
"384",11,33,1,2,144,3,1,0,1,0.764545731605727,0.723699720452271
"385",11,19,1,1,145,2,2,0,2,0.567652151686755,0.561101096333894
"386",11,30,1,1,146,1,1,1,5,0.542188277843641,0.447940825186286
"387",11,31,1,2,147,1,2,1,5,0.428409711464383,0.441464737038932
"388",11,34,1,2,148,2,1,0,2,0.741655508911272,0.736583756444217
"389",11,34,1,1,149,1,1,1,4,0.247983649466181,0.351781234504489
"390",11,38,1,2,150,3,2,1,3,0.706132405576594,0.691068253039927
"391",11,27,1,1,151,3,2,0,1,0.263480791962015,0.2448708843767
"392",11,40,1,2,152,2,1,0,3,0.569607909047377,0.598826241332917
"393",11,30,1,2,153,3,1,0,1,0.842468945781717,0.859899264687681
"394",11,33,1,1,154,1,2,0,3,0.589051945235252,0.587421955847899
"395",11,19,1,1,155,3,2,0,2,0.678027952101579,0.75598397098017
"396",11,30,1,1,156,2,1,1,4,0.575117902648905,0.535482384457867
"397",11,31,1,2,157,2,2,1,4,0.420422412948528,0.422549882378451
"398",11,34,1,2,158,3,2,1,2,0.794558149285233,0.733260132683912
"399",11,34,1,2,159,1,2,1,5,0.344460689229807,0.375893925172827
"400",11,38,1,2,160,2,1,0,3,0.823889303916889,0.830738009948147
"401",11,27,1,2,161,2,2,1,3,0.769224934783457,0.816696542658184
"402",11,40,1,2,162,2,1,0,2,0.68820474245857,0.677625119951163
"403",11,30,1,2,163,3,2,1,3,0.550352672058357,0.543792821201438
"404",11,33,1,2,164,3,2,1,3,0.535694258896204,0.49935696073364
"405",11,19,1,2,165,3,1,0,2,0.875890842342169,0.872872281158335
"406",11,30,1,1,166,3,2,0,2,1.40387418863445,1.3914937660529
"407",11,31,1,2,167,1,2,1,4,0.436911852519118,0.469822881146135
"408",11,34,1,1,168,3,1,1,2,0.922465496529246,0.848096558653893
"409",11,34,1,1,169,1,2,0,4,0.581732906742031,0.454858148008608
"410",11,38,1,2,170,3,2,1,3,1.09578664526861,1.08137929366149
"411",11,27,1,2,171,3,1,0,1,0.893873825394145,0.899872712634827
"412",11,40,1,2,172,2,2,1,3,0.703556254555825,0.732049673959415
"413",11,30,1,1,173,3,1,1,2,0.566019110667544,0.540954148494776
"414",11,33,1,2,174,2,2,1,4,0.780095744453007,0.861150410861909
"415",11,19,1,1,175,2,1,1,3,0.802958250516549,0.799561512633988
"416",11,30,1,1,176,3,1,1,2,0.688200733024622,0.744870878640012
"417",11,31,1,1,177,3,2,0,2,1.00399927972504,0.928281208705598
"418",11,34,1,2,178,3,2,1,3,0.908850441147659,0.832706494170911
"419",11,34,1,1,179,2,1,1,4,0.572340433496391,0.656831461703326
"420",11,38,1,1,180,2,1,1,4,0.56783129393605,0.472137678806386
"421",11,27,1,1,181,3,1,1,3,1.00226534280754,0.920003611952413
"422",11,40,1,1,182,2,2,0,3,0.456416154475814,0.48533586844192
"423",11,30,1,2,183,1,2,1,4,0.453621548700421,0.387691054454692
"424",11,33,1,1,184,2,1,1,3,0.563218502847736,0.604233441906542
"425",11,19,1,1,185,3,1,1,3,0.803784860401707,0.723449525769885
"426",11,30,1,2,186,2,1,0,3,0.65492753062672,0.777618422484092
"427",11,31,1,1,187,1,1,1,4,0.417454725396141,0.424038722959946
"428",11,34,1,2,188,2,2,1,4,0.657763452810828,0.695905619627294
"429",11,34,1,2,189,2,2,1,3,0.64536696033555,0.722230436608083
"430",11,38,1,2,190,2,2,1,4,0.668949677156283,0.665841519850046
"431",11,27,1,2,191,2,2,1,3,0.597199499606785,0.550477653865273
"432",11,40,1,1,192,3,2,0,2,1.39569431059383,1.44074567287839
"433",11,30,1,2,193,2,2,1,3,0.514342319009969,0.534400758876797
"434",11,33,1,2,194,3,1,0,2,1.34631690914778,1.37421279144056
"435",11,19,1,2,195,1,1,0,3,0.665199114171845,0.636991051164638
"436",11,30,1,1,196,1,1,1,5,0.271530059253077,0.306360649014731
"437",11,31,1,1,197,2,1,1,3,0.481374853192102,0.510651918896855
"438",11,34,1,2,198,1,2,1,5,0.531326159645938,0.544003246215908
"439",11,34,1,1,199,1,1,1,4,0.393500695770679,0.480303383870667
"440",11,38,1,1,200,2,2,0,3,0.761620734191289,0.748972611057749
"441",11,27,1,2,201,3,2,1,2,1.02471813687434,1.03288105212921
"442",11,40,1,2,202,1,2,1,5,0.599984986994288,0.576139281039932
"443",11,30,1,1,203,3,2,0,2,0.61113216956082,0.641651755579788
"444",11,33,1,1,204,1,1,1,4,0.244330029346081,0.250281331854325
"445",11,19,1,2,205,3,1,0,1,1.7983558153817,1.82479748202824
"446",11,30,1,2,206,3,2,1,2,0.854915088662999,0.908611142698112
"447",11,31,1,2,207,1,2,1,5,0.426806497393881,0.426726178479911
"448",11,34,1,2,208,2,1,0,3,0.525132773377628,0.537973427953785
"449",11,34,1,2,209,2,2,1,3,0.542014357008649,0.563768485980757
"450",11,38,1,2,210,2,2,1,3,0.803549431691316,0.763818500061881
"451",11,27,1,2,211,1,2,1,4,0.453946320308248,0.469111576419388
"452",11,40,1,2,212,3,2,1,2,0.579517558096073,0.533979390924861
"453",11,30,1,1,213,3,2,0,1,1.17324126578337,1.17293739517403
"454",11,33,1,1,214,2,2,0,2,0.737256263473953,0.692959235471154
"455",11,19,1,1,215,2,2,0,2,0.857865391547467,0.90310495590963
"456",11,30,1,1,216,1,2,0,4,0.480004418780335,0.506576985293751
"457",11,31,1,1,217,1,1,1,4,0.345704570590291,0.383762249650619
"458",11,34,1,1,218,2,2,0,2,0.890128013568116,0.867358923169009
"459",11,34,1,1,219,3,1,1,3,0.414699125712052,0.383705627180257
"460",11,38,1,1,220,2,1,1,4,0.554869225570141,0.562317784448968
"461",11,27,1,1,221,2,2,0,2,0.74476158723775,0.721472259704579
"462",11,40,1,1,222,3,2,0,2,0.548815450266185,0.514747244791937
"463",11,30,1,1,223,1,1,1,4,0.452449734459319,0.40782750994731
"464",11,33,1,1,224,3,2,0,1,1.21069576814369,1.2704244199237
"465",11,19,1,2,225,3,1,0,1,1.69647922046667,1.6642458375457
"466",11,30,1,2,226,1,2,1,4,0.517993329216739,0.534410658493856
"467",11,31,1,1,227,3,1,1,2,1.06123699092195,1.10753887541595
"468",11,34,1,2,228,1,2,1,4,0.331358940511521,0.41850397511833
"469",11,34,1,1,229,1,1,1,4,0.292557227573935,0.37713255846297
"470",11,38,1,2,230,3,2,1,2,0.89541745768258,0.923412851219852
"471",11,27,1,1,231,3,1,1,3,0.885637753042561,0.892512167365226
"472",11,40,1,2,232,3,2,1,2,0.622546798329405,0.56092945008245
"473",11,30,1,1,233,1,1,1,5,0.30309983765364,0.269896673694225
"474",11,33,1,1,234,3,1,1,3,0.396724685400103,0.356911253255079
"475",11,19,1,2,235,1,2,1,5,0.325057858846351,0.44867505110594
"476",11,30,1,2,236,1,2,1,4,0.436586706347761,0.416991798694265
"477",11,31,1,1,237,2,1,1,3,0.583725218461444,0.657079966487754
"478",11,34,1,2,238,1,2,1,5,0.310681768233368,0.319234129101678
"479",11,34,1,1,239,1,1,1,4,0.452516339757073,0.378906935381109
"480",11,38,1,1,240,3,1,1,2,0.622463246241977,0.61165418682325
"481",10,23,2,2,1,2,1,0,2,0.607614943256334,0.644375420617055
"482",10,36,2,1,2,3,2,0,1,0.709003690648685,0.709635834402646
"483",10,38,2,2,3,2,2,1,4,0.623201343356036,0.659813796203654
"484",10,25,2,2,4,1,1,0,3,0.688075932617567,0.65884212399094
"485",10,20,2,1,5,2,1,1,4,0.729647977614218,0.690004498951564
"486",10,40,2,1,6,1,1,1,5,0.409868386653865,0.42840863431723
"487",10,23,2,2,7,3,1,0,2,0.731638088206367,0.842601544972388
"488",10,20,2,2,8,1,1,0,4,0.443952475990547,0.492088502676117
"489",10,40,2,2,9,3,1,0,1,1.34663842111463,1.30998525476369
"490",10,23,2,2,10,1,1,0,4,0.569362745180381,0.62759366203244
"491",10,23,2,1,11,1,1,1,5,0.346703072254113,0.315573030249009
"492",10,36,2,1,12,2,2,0,2,0.742877026058049,0.770711772831353
"493",10,38,2,2,13,3,1,0,1,0.99696099209907,1.03169175693058
"494",10,25,2,2,14,2,2,1,3,0.6421189212578,0.747216445777587
"495",10,20,2,1,15,2,2,0,3,0.840221102554756,0.841043305794056
"496",10,40,2,1,16,2,1,1,4,0.591093908532666,0.657109384108507
"497",10,23,2,1,17,1,1,1,4,0.611222703128785,0.647788602028269
"498",10,20,2,2,18,1,2,1,5,0.481894354998255,0.496174255862047
"499",10,40,2,1,19,1,1,1,4,0.387171006440054,0.344103568957187
"500",10,23,2,1,20,1,2,0,4,0.626453324415254,0.58210778951464
"501",10,23,2,2,21,3,2,1,3,0.327720792917462,0.357158098826698
"502",10,36,2,1,22,1,1,1,5,0.455750739300231,0.464471521984688
"503",10,38,2,2,23,1,2,1,4,0.40837268237081,0.449921589099822
"504",10,25,2,2,24,3,2,1,2,0.574115282410826,0.556022920851687
"505",10,20,2,1,25,2,2,0,3,1.01032221861057,1.03176969487761
"506",10,40,2,1,26,2,1,1,4,0.664281647685352,0.539796876446213
"507",10,23,2,1,27,3,2,0,2,0.363580392302839,0.270201450971137
"508",10,20,2,1,28,1,1,1,5,0.5618533313372,0.423211857021066
"509",10,40,2,1,29,2,2,0,2,0.738129859752472,0.657586676142396
"510",10,23,2,1,30,2,1,1,3,0.764468335022627,0.777838736497393
"511",10,23,2,1,31,1,1,1,5,0.357697176473411,0.372386335732105
"512",10,36,2,2,32,1,1,0,4,0.610569746428827,0.686348969772736
"513",10,38,2,1,33,1,1,1,4,0.325982420781719,0.33984348203935
"514",10,25,2,1,34,1,1,1,5,0.404291361346831,0.427859103047825
"515",10,20,2,2,35,1,2,1,5,0.400538388932855,0.456826677966525
"516",10,40,2,2,36,2,2,1,4,0.345243242612696,0.413131330475029
"517",10,23,2,1,37,1,1,1,4,0.400560349209375,0.409012960906922
"518",10,20,2,2,38,3,1,0,1,1.14269255315762,1.08251767446616
"519",10,40,2,1,39,1,1,1,4,0.349436275585413,0.322323975377082
"520",10,23,2,1,40,1,1,1,5,0.323634222219537,0.313288372251119
"521",10,23,2,1,41,1,2,0,4,0.476460698878079,0.459177060882036
"522",10,36,2,2,42,3,2,1,3,0.500213940072176,0.520388961493181
"523",10,38,2,1,43,2,2,0,2,0.685351504397382,0.621800431761258
"524",10,25,2,2,44,1,1,0,4,0.59257261646032,0.655364188796022
"525",10,20,2,2,45,3,1,0,1,0.597877238812866,0.627110922774536
"526",10,40,2,2,46,3,2,1,2,0.908052728715827,0.952619309709671
"527",10,23,2,1,47,3,2,0,1,0.644122677805534,0.608514708235757
"528",10,20,2,2,48,3,1,0,1,0.334055672302499,0.38838830705153
"529",10,40,2,1,49,3,1,1,2,0.624890659883099,0.645025065338988
"530",10,23,2,2,50,2,1,0,2,0.5569056333427,0.564253922055831
"531",10,23,2,2,51,3,2,1,2,0.911362285473987,0.931403252712165
"532",10,36,2,1,52,2,1,1,4,0.596018526828819,0.510733626176995
"533",10,38,2,2,53,2,1,0,2,0.883815310224645,0.892360743327089
"534",10,25,2,2,54,1,2,1,5,0.335169347723035,0.361428291904552
"535",10,20,2,2,55,2,2,1,4,0.704454726677762,0.702559141166974
"536",10,40,2,1,56,2,2,0,3,0.69476067347048,0.793781311825982
"537",10,23,2,1,57,1,1,1,5,0.445639596815912,0.453179564534058
"538",10,20,2,1,58,2,1,1,4,0.749589630923082,0.79779911840147
"539",10,40,2,1,59,3,2,0,1,0.568534597792706,0.586682876088424
"540",10,23,2,1,60,3,2,0,2,0.641264271818936,0.671123868818484
"541",10,23,2,1,61,1,1,1,4,0.312065459971303,0.32894963394767
"542",10,36,2,2,62,3,1,0,2,1.60844131414771,1.63201771027594
"543",10,38,2,1,63,2,2,0,3,0.805195829746215,0.803291825510788
"544",10,25,2,2,64,2,1,0,3,0.612223246565237,0.605593431087221
"545",10,20,2,2,65,3,2,1,2,0.678516496449543,0.623197134932529
"546",10,40,2,2,66,2,2,1,3,0.63499179334671,0.715821291636375
"547",10,23,2,2,67,2,2,1,4,0.555285806719682,0.568554839469464
"548",10,20,2,1,68,3,2,0,1,1.27402864305213,1.19883693228489
"549",10,40,2,1,69,3,1,1,2,0.219311959765489,0.116359458543236
"550",10,23,2,1,70,1,1,1,4,0.33580444498102,0.383299922017017
"551",10,23,2,2,71,1,2,1,5,0.471202742586779,0.45225452342946
"552",10,36,2,1,72,3,1,1,3,1.03017111371023,1.01562702033324
"553",10,38,2,2,73,2,1,0,3,0.703835674275394,0.695275854690947
"554",10,25,2,2,74,2,2,1,3,0.516324508713217,0.522421204740443
"555",10,20,2,1,75,1,1,1,4,0.447349020433378,0.429246448035979
"556",10,40,2,1,76,2,2,0,3,0.492185067467804,0.48364761822765
"557",10,23,2,2,77,1,2,1,5,0.383958644207931,0.330026782292318
"558",10,20,2,2,78,1,1,0,3,0.587853922597692,0.592629501816962
"559",10,40,2,1,79,3,2,0,2,0.946251901562454,0.990827687760673
"560",10,23,2,1,80,2,2,0,2,0.749904644150338,0.745266810733329
"561",10,23,2,1,81,2,2,0,3,0.485144360170986,0.433188776277427
"562",10,36,2,2,82,2,2,1,4,0.484459508000181,0.544343016548334
"563",10,38,2,2,83,3,2,1,3,0.781701098376676,0.730229915093164
"564",10,25,2,2,84,2,2,1,4,0.740147085658572,0.799642476910665
"565",10,20,2,1,85,3,2,0,2,1.91458042542412,1.88383752939241
"566",10,40,2,2,86,2,1,0,2,0.553737935501264,0.584202883383792
"567",10,23,2,2,87,2,1,0,3,0.547247347281847,0.586262046950519
"568",10,20,2,1,88,1,1,1,4,0.317610208864168,0.261788269932247
"569",10,40,2,1,89,2,1,1,3,0.540301588936584,0.482670425209992
"570",10,23,2,1,90,1,1,1,4,0.390166084604744,0.423199014623739
"571",10,23,2,1,91,1,1,1,4,0.466199135535203,0.419893301595428
"572",10,36,2,2,92,1,2,1,5,0.409720009364351,0.327022359191241
"573",10,38,2,1,93,1,1,1,5,0.336501536787141,0.345849709971051
"574",10,25,2,1,94,3,2,0,2,0.457969688319137,0.385125138403805
"575",10,20,2,1,95,1,1,1,4,0.412032398502611,0.409943616797558
"576",10,40,2,1,96,1,2,0,3,0.666323491077492,0.692660039898015
"577",10,23,2,2,97,2,1,0,3,0.795658023202606,0.818287982570988
"578",10,20,2,1,98,3,1,1,3,0.608571705140329,0.686026584830149
"579",10,40,2,1,99,1,1,1,4,0.473768287161419,0.466086563892372
"580",10,23,2,2,100,1,2,1,5,0.479980401471415,0.505041129580571
"581",10,23,2,2,101,1,2,1,5,0.439443077138936,0.416286306917378
"582",10,36,2,2,102,1,2,1,4,0.424194149764179,0.498701457671717
"583",10,38,2,2,103,1,1,0,4,0.436428708391534,0.360546020734426
"584",10,25,2,1,104,1,1,1,5,0.418444746114172,0.372403199056792
"585",10,20,2,1,105,1,1,1,5,0.293013754525174,0.30339745450116
"586",10,40,2,1,106,1,1,1,5,0.582502902193565,0.657357256197998
"587",10,23,2,1,107,2,1,1,4,0.534374711870443,0.557470441352825
"588",10,20,2,2,108,1,2,1,5,0.336064367008089,0.359906835597783
"589",10,40,2,1,109,3,2,0,1,1.29100895091868,1.23321891750019
"590",10,23,2,1,110,2,1,1,3,0.725975080822472,0.753190400665631
"591",10,23,2,2,111,2,1,0,3,0.576441647706063,0.603919585998974
"592",10,36,2,1,112,3,1,1,3,1.2973702667461,1.24971896402346
"593",10,38,2,2,113,3,2,1,2,0.832990021941063,0.91028851046002
"594",10,25,2,1,114,2,2,0,2,0.542661475890517,0.535634878942645
"595",10,20,2,1,115,3,2,0,1,1.35553840206915,1.36191455114773
"596",10,40,2,2,116,3,1,0,1,1.29315232255548,1.328906348537
"597",10,23,2,2,117,2,1,0,2,0.193095073540954,0.191327680134729
"598",10,20,2,1,118,3,1,1,3,0.602234453232209,0.624800206210683
"599",10,40,2,2,119,3,2,1,3,0.222090870059849,0.175869763500009
"600",10,23,2,2,120,1,2,1,4,0.362065425061623,0.314093094559383
"601",10,23,2,1,121,1,1,1,5,0.338201041764599,0.394323153445564
"602",10,36,2,2,122,2,2,1,4,0.670427646172276,0.725042157831882
"603",10,38,2,2,123,2,1,0,3,1.02164257708029,0.968585509052707
"604",10,25,2,2,124,2,2,1,3,0.527589524118988,0.532116941515563
"605",10,20,2,2,125,3,2,1,2,0.690219811365698,0.806042705197932
"606",10,40,2,1,126,1,1,1,5,0.489730403781178,0.536068674113533
"607",10,23,2,1,127,3,1,1,3,0.742156817525633,0.724192184367136
"608",10,20,2,1,128,3,2,0,2,1.11807141092035,1.01007532541807
"609",10,40,2,1,129,2,2,0,3,0.635707108165646,0.501851898369953
"610",10,23,2,2,130,1,2,1,5,0.380205430497236,0.369836880311648
"611",10,23,2,1,131,1,1,1,4,0.331750810185399,0.368717560878806
"612",10,36,2,1,132,2,1,1,3,0.568641322080733,0.521722102240533
"613",10,38,2,2,133,3,1,0,1,0.834445640282511,0.793514949735925
"614",10,25,2,2,134,2,1,0,3,0.517211452139499,0.607853116543782
"615",10,20,2,2,135,1,2,1,5,0.472808880258042,0.454603092903595
"616",10,40,2,2,136,3,2,1,2,0.722992831602636,0.781235429565298
"617",10,23,2,1,137,2,2,0,3,0.847214480252215,0.848024762874557
"618",10,20,2,2,138,3,2,1,3,0.715650875790844,0.748376171396751
"619",10,40,2,2,139,2,2,1,4,0.48778777776615,0.461993162257403
"620",10,23,2,1,140,3,2,0,2,0.461789122666009,0.470731462241291
"621",10,23,2,2,141,2,2,1,3,0.594193901087024,0.648936070858187
"622",10,36,2,2,142,2,1,0,3,0.323221071931271,0.355044777425046
"623",10,38,2,1,143,2,2,0,3,0.675680719374842,0.656276647012521
"624",10,25,2,2,144,1,2,1,5,0.446713702081305,0.458746098162971
"625",10,20,2,1,145,2,1,1,3,0.759247299816847,0.782252967625834
"626",10,40,2,1,146,2,2,0,2,0.910926790043365,0.832251134009114
"627",10,23,2,1,147,3,1,1,3,0.407681540262191,0.35424717968132
"628",10,20,2,2,148,3,2,1,2,0.510287537430188,0.518608388088771
"629",10,40,2,1,149,3,1,1,2,1.09781942249003,1.12627813868952
"630",10,23,2,2,150,3,2,1,2,0.552914086122541,0.54750033376591
"631",10,23,2,2,151,3,1,0,1,1.01542119289405,1.07834250674251
"632",10,36,2,1,152,3,1,1,2,0.666994748408376,0.649283997050929
"633",10,38,2,2,153,1,2,1,5,0.457113178199557,0.465528365732907
"634",10,25,2,2,154,3,1,0,2,1.03947212380859,1.01480159581561
"635",10,20,2,1,155,3,2,0,1,0.92757502554708,0.914839152815999
"636",10,40,2,2,156,3,1,0,2,1.87401849855066,1.85305039610859
"637",10,23,2,2,157,1,2,1,5,0.477071084146645,0.557865541194064
"638",10,20,2,1,158,3,1,1,2,0.914170397115113,0.930496900486278
"639",10,40,2,1,159,3,1,1,2,1.18868301233632,1.15464727842022
"640",10,23,2,2,160,1,1,0,4,0.557932424708794,0.479187163257192
"641",10,23,2,2,161,3,1,0,2,0.937677160473614,0.931796116137931
"642",10,36,2,2,162,1,2,1,5,0.429393745151196,0.431117482225241
"643",10,38,2,1,163,2,1,1,4,0.526725480095653,0.570821398981994
"644",10,25,2,1,164,1,1,1,4,0.434591809550306,0.411498870460353
"645",10,20,2,2,165,3,2,1,2,0.684042290792983,0.623863238051741
"646",10,40,2,2,166,1,2,1,5,0.339181170728668,0.359192756474645
"647",10,23,2,1,167,1,2,0,4,0.535676456740113,0.533067450406284
"648",10,20,2,1,168,1,1,1,5,0.376046054876379,0.378858256728902
"649",10,40,2,2,169,2,2,1,3,0.806902566471629,0.765979023285008
"650",10,23,2,2,170,3,1,0,2,0.855112919567227,0.926508275021911
"651",10,23,2,1,171,3,1,1,3,0.741193841290214,0.725157853937828
"652",10,36,2,1,172,2,2,0,3,0.964202138934949,0.873730926167823
"653",10,38,2,2,173,1,2,1,4,0.469057604913454,0.490506614743264
"654",10,25,2,2,174,2,1,0,3,0.879890963375822,0.925766440169248
"655",10,20,2,2,175,2,2,1,4,0.728949610586162,0.661241030457389
"656",10,40,2,2,176,3,2,1,2,0.620190847530879,0.607938686796984
"657",10,23,2,2,177,2,1,0,2,0.639304680060488,0.697928052975532
"658",10,20,2,1,178,1,2,0,3,0.467570269383394,0.404976627463404
"659",10,40,2,1,179,1,1,1,5,0.426299497946765,0.459008202081269
"660",10,23,2,2,180,1,2,1,5,0.330614179094453,0.256791189401766
"661",10,23,2,1,181,3,1,1,3,0.83658215282336,0.816824187865686
"662",10,36,2,2,182,3,2,1,3,0.922727832348167,0.923894909464734
"663",10,38,2,2,183,2,1,0,2,0.566726215573437,0.57527802861946
"664",10,25,2,1,184,1,2,0,4,0.566248843625115,0.543125179199453
"665",10,20,2,2,185,3,1,0,1,0.941515787522662,0.930748134951527
"666",10,40,2,1,186,2,2,0,2,0.832893224991899,0.827346190202017
"667",10,23,2,1,187,2,1,1,4,0.667254257763472,0.787253447354669
"668",10,20,2,2,188,1,2,1,4,0.301439309586135,0.254705941614149
"669",10,40,2,2,189,3,2,1,3,0.848160817230081,0.922046469951626
"670",10,23,2,1,190,2,1,1,4,0.496157219158736,0.489343137952939
"671",10,23,2,1,191,2,1,1,3,0.586845406160137,0.599698062533184
"672",10,36,2,2,192,3,1,0,2,1.42471140496307,1.42558715772728
"673",10,38,2,1,193,2,1,1,3,0.535854853374363,0.477239619233211
"674",10,25,2,2,194,1,2,1,4,0.459649595221168,0.414863034155811
"675",10,20,2,1,195,3,1,1,2,0.774746042101871,0.746814861755516
"676",10,40,2,2,196,3,1,0,2,1.28726758227933,1.25942271077066
"677",10,23,2,2,197,3,2,1,3,0.904819528778006,0.785131815343387
"678",10,20,2,1,198,2,2,0,2,0.816467389082345,0.905918087995954
"679",10,40,2,2,199,1,2,1,5,0.445509205555596,0.460229655389613
"680",10,23,2,1,200,3,1,1,2,0.983236590934209,0.872030543723186
"681",10,23,2,2,201,1,2,1,4,0.254005036220431,0.313164741467547
"682",10,36,2,2,202,1,2,1,4,0.273323352154941,0.233323425327531
"683",10,38,2,2,203,3,2,1,3,0.949226948678084,0.918796917285508
"684",10,25,2,1,204,3,2,0,2,1.39494000851202,1.39219533061467
"685",10,20,2,2,205,2,1,0,3,0.858222033590337,0.836735710006786
"686",10,40,2,2,206,2,1,0,3,0.703372376116182,0.724600451115583
"687",10,23,2,2,207,2,1,0,2,0.54769291634373,0.538744427863781
"688",10,20,2,1,208,3,1,1,2,0.570355656967762,0.588643998168114
"689",10,40,2,2,209,2,2,1,3,0.706353489623875,0.749250623985601
"690",10,23,2,2,210,3,1,0,2,0.981922533638404,1.01298561043442
"691",10,23,2,2,211,2,1,0,2,0.671686434269943,0.639841964589454
"692",10,36,2,2,212,2,1,0,2,0.699719880363334,0.619896125409732
"693",10,38,2,2,213,2,2,1,4,0.574769627411864,0.582860033091761
"694",10,25,2,1,214,3,2,0,1,0.97306355595806,1.01429027891221
"695",10,20,2,2,215,3,2,1,3,0.91020537231494,0.943329540306477
"696",10,40,2,2,216,1,2,1,5,0.429907942066246,0.453169642778507
"697",10,23,2,1,217,3,1,1,2,0.723650069397173,0.75477333208769
"698",10,20,2,1,218,3,1,1,3,0.802430814824303,0.878334391613871
"699",10,40,2,1,219,2,1,1,4,0.523903635374852,0.547155211749648
"700",10,23,2,2,220,2,2,1,3,0.467086912324669,0.492270956702563
"701",10,23,2,1,221,1,1,1,5,0.387664873471317,0.376231962754709
"702",10,36,2,2,222,1,2,1,5,0.503718536533976,0.444588065591688
"703",10,38,2,2,223,2,2,1,3,0.570387071302855,0.545811018716612
"704",10,25,2,1,224,1,1,1,5,0.473269780455384,0.398538046145716
"705",10,20,2,1,225,3,1,1,3,0.69918013878324,0.717013924288811
"706",10,40,2,1,226,1,1,1,5,0.416538342112573,0.391568821650417
"707",10,23,2,2,227,2,2,1,3,0.417188384801378,0.378370072943806
"708",10,20,2,1,228,2,1,1,3,0.529460662662655,0.504377557949861
"709",10,40,2,1,229,3,2,0,2,0.993038526826201,1.00079741262425
"710",10,23,2,2,230,1,2,1,5,0.232439803409586,0.175206782425145
"711",10,23,2,1,231,1,1,1,5,0.457681401647672,0.520509919111424
"712",10,36,2,2,232,3,1,0,2,0.362783386171308,0.299466912173158
"713",10,38,2,2,233,3,1,0,2,0.737894768201262,0.726301273561449
"714",10,25,2,1,234,1,1,1,4,0.420214983243723,0.432105139315837
"715",10,20,2,1,235,2,2,0,2,0.613570557821651,0.66104434343655
"716",10,40,2,1,236,3,2,0,1,1.36973695243014,1.35160308624999
"717",10,23,2,2,237,2,2,1,4,0.524990174239759,0.385077193645985
"718",10,20,2,1,238,3,1,1,3,0.829970837347903,0.898203856265522
"719",10,40,2,1,239,2,1,1,4,0.610758377581147,0.597785864281855
"720",10,23,2,1,240,1,1,1,5,0.436070959495963,0.444225949250955
"721",9,34,1,2,1,1,2,1,4,0.40921431300055,0.421868872544299
"722",9,26,1,1,2,1,1,1,5,0.389465282410816,0.323201167709352
"723",9,37,1,2,3,3,1,0,2,1.56539074808952,1.64242934163671
"724",9,33,1,1,4,2,1,1,3,0.664727700581641,0.667687667521232
"725",9,38,1,2,5,2,2,1,3,0.646166908494568,0.641408969893833
"726",9,35,1,1,6,2,2,0,2,0.780621600485562,0.796283548005086
"727",9,35,1,2,7,2,2,1,4,0.48360374327249,0.560275194989441
"728",9,31,1,2,8,1,2,1,5,0.380001855458798,0.380675891832914
"729",9,28,1,2,9,2,1,0,2,0.817424787137749,0.85199198488582
"730",9,31,1,1,10,3,2,0,1,0.885659799684401,0.903352118678124
"731",9,34,1,2,11,3,1,0,1,0.785089258307602,0.775162352257551
"732",9,26,1,2,12,3,2,1,2,1.07131540478459,1.11787609704382
"733",9,37,1,1,13,3,1,1,3,0.789743931223324,0.770504594839837
"734",9,33,1,2,14,2,1,0,2,0.917101322596957,0.860682060462196
"735",9,38,1,2,15,2,1,0,3,0.47348688955752,0.432041186041285
"736",9,35,1,2,16,2,1,0,3,0.531913106066788,0.554080364604284
"737",9,35,1,1,17,2,2,0,2,0.634259939702093,0.615307831964883
"738",9,31,1,1,18,1,1,1,4,0.320762019954493,0.382143622733556
"739",9,28,1,2,19,2,2,1,4,0.348192445209188,0.361500800540551
"740",9,31,1,2,20,2,2,1,3,0.661755191973678,0.680145317562247
"741",9,34,1,2,21,1,2,1,4,0.442539159292726,0.434971195712604
"742",9,26,1,2,22,3,1,0,2,0.864367458569315,0.821455735938683
"743",9,37,1,2,23,2,1,0,3,0.45508614326555,0.528147846640451
"744",9,33,1,2,24,1,1,0,3,0.550773240007784,0.576083343539786
"745",9,38,1,2,25,3,2,1,3,0.764489384801263,0.786707089556218
"746",9,35,1,2,26,1,2,1,4,0.423228894775366,0.454490739956841
"747",9,35,1,2,27,3,1,0,2,0.747788843845573,0.894752011292851
"748",9,31,1,1,28,1,2,0,3,0.443159703237753,0.470462274000946
"749",9,28,1,1,29,3,1,1,3,0.822373554837206,0.842542147036969
"750",9,31,1,2,30,3,2,1,2,0.58070863075167,0.56730973730025
"751",9,34,1,1,31,1,2,0,3,0.648357674706184,0.649852938223964
"752",9,26,1,1,32,3,2,0,2,0.364302598853308,0.301819117661564
"753",9,37,1,1,33,1,1,1,4,0.315172560953205,0.319507216546146
"754",9,33,1,2,34,2,1,0,2,0.605399868185362,0.621330251477529
"755",9,38,1,2,35,1,1,0,4,0.65769736828452,0.698418402363777
"756",9,35,1,2,36,2,1,0,3,0.793430299019759,0.754284606293602
"757",9,35,1,1,37,2,1,1,4,0.680131686732947,0.832039876771686
"758",9,31,1,1,38,3,1,1,3,1.00679174794606,1.0522275142132
"759",9,28,1,1,39,3,2,0,2,1.52565198339951,1.55210310523157
"760",9,31,1,1,40,1,1,1,5,0.424528740800203,0.425861904683901
"761",9,34,1,2,41,1,2,1,5,0.409240817580505,0.323255551564772
"762",9,26,1,2,42,1,2,1,4,0.434237515372834,0.488721729127413
"763",9,37,1,1,43,2,1,1,4,0.558496420182479,0.640861846293967
"764",9,33,1,1,44,1,1,1,4,0.424367804842972,0.448832401165951
"765",9,38,1,1,45,2,1,1,3,0.595207311976853,0.608909994102494
"766",9,35,1,2,46,3,1,0,1,1.12367625783622,1.08359221008812
"767",9,35,1,1,47,2,1,1,4,0.504135379090654,0.425228051028155
"768",9,31,1,1,48,2,1,1,3,0.722687760825814,0.762138679151614
"769",9,28,1,1,49,2,1,1,4,0.605950215294634,0.609356376736994
"770",9,31,1,1,50,2,1,1,4,0.672192475417841,0.703581590059494
"771",9,34,1,2,51,1,2,1,5,0.457080809929412,0.409840192414118
"772",9,26,1,1,52,3,1,1,2,0.878425939575066,0.903622911533463
"773",9,37,1,2,53,1,1,0,4,0.562620200248107,0.546134668160225
"774",9,33,1,2,54,1,2,1,4,0.461929868145489,0.447409149362636
"775",9,38,1,2,55,2,2,1,3,0.714296605817244,0.670329190375058
"776",9,35,1,1,56,1,1,1,5,0.480769475077991,0.532173223586902
"777",9,35,1,2,57,1,2,1,5,0.454920384896033,0.385568090585764
"778",9,31,1,2,58,3,1,0,2,0.680329505875203,0.620525266911828
"779",9,28,1,2,59,2,1,0,2,0.474502573971494,0.539286099232127
"780",9,31,1,2,60,1,2,1,5,0.384985939862256,0.359014975124853
"781",9,34,1,1,61,2,1,1,4,0.847481509877825,0.827538409496521
"782",9,26,1,1,62,1,1,1,4,0.479818008661691,0.43301845203765
"783",9,37,1,2,63,2,2,1,4,0.44795260227435,0.486538795405826
"784",9,33,1,2,64,1,2,1,4,0.412280212281196,0.45443043097641
"785",9,38,1,2,65,2,1,0,2,0.63343061852344,0.710094790683337
"786",9,35,1,1,66,1,1,1,5,0.283963578607964,0.234174408669097
"787",9,35,1,1,67,1,1,1,4,0.492754129422205,0.587143382874835
"788",9,31,1,1,68,1,1,1,4,0.536409147769662,0.494914883471726
"789",9,28,1,1,69,1,2,0,4,0.585989380525384,0.562531325217536
"790",9,31,1,2,70,3,2,1,3,0.650788619628215,0.719630549719131
"791",9,34,1,2,71,2,2,1,3,0.787352365375945,0.854616877952655
"792",9,26,1,1,72,3,1,1,3,0.975155950136123,0.934530611018634
"793",9,37,1,1,73,3,1,1,2,0.608708179064822,0.526243328371131
"794",9,33,1,1,74,3,2,0,2,0.94515695316692,0.967887777488016
"795",9,38,1,1,75,1,1,1,5,0.372600273372629,0.347739262767933
"796",9,35,1,2,76,3,1,0,1,0.734815334774344,0.828525611894218
"797",9,35,1,1,77,2,2,0,2,0.689972032267292,0.708436988165414
"798",9,31,1,1,78,1,2,0,4,0.358893579879812,0.33036204779307
"799",9,28,1,2,79,1,2,1,5,0.384573029653662,0.48265506826223
"800",9,31,1,1,80,2,1,1,3,0.647117519254539,0.562534441459859
"801",9,34,1,1,81,1,2,0,3,0.477742285607759,0.442100607426053
"802",9,26,1,1,82,3,1,1,2,0.753273943541372,0.726133483155539
"803",9,37,1,2,83,2,2,1,3,0.706905485470421,0.703869089100677
"804",9,33,1,2,84,1,2,1,5,0.36485741521864,0.338543513996154
"805",9,38,1,1,85,3,1,1,3,0.635858635884041,0.58775716013927
"806",9,35,1,2,86,2,2,1,4,0.761429828565165,0.832867638420357
"807",9,35,1,1,87,2,2,0,3,0.921054068714529,0.777912567099294
"808",9,31,1,2,88,3,1,0,1,1.10139356068382,1.13852856442212
"809",9,28,1,2,89,1,2,1,4,0.289822031282893,0.312334069092424
"810",9,31,1,2,90,1,2,1,4,0.466107064746587,0.395100706993466
"811",9,34,1,2,91,2,2,1,4,0.371859038386296,0.425611670199617
"812",9,26,1,1,92,1,1,1,5,0.376537946645845,0.370077839946889
"813",9,37,1,2,93,3,1,0,2,1.05002795054019,1.03431315825579
"814",9,33,1,1,94,2,1,1,3,0.68007610829393,0.68286276164671
"815",9,38,1,2,95,3,1,0,1,0.615819290565858,0.554020208844065
"816",9,35,1,1,96,1,2,0,3,0.577031455547167,0.621873469139778
"817",9,35,1,1,97,2,1,1,4,0.453782982342313,0.489858007346677
"818",9,31,1,2,98,1,2,1,5,0.341483018337294,0.326471897722431
"819",9,28,1,2,99,3,1,0,1,1.38830866367751,1.38213945501206
"820",9,31,1,2,100,3,2,1,2,1.00671690309627,0.983329055616963
"821",9,34,1,2,101,1,2,1,5,0.370457848930047,0.309635798598473
"822",9,26,1,1,102,3,2,0,2,1.27697075157028,1.2207596821935
"823",9,37,1,1,103,2,2,0,2,0.590395298054482,0.625454782039744
"824",9,33,1,2,104,1,2,1,5,0.449911278543516,0.39260572245332
"825",9,38,1,2,105,3,1,0,2,0.864499371301029,0.839051185690332
"826",9,35,1,1,106,3,1,1,3,1.27787582251944,1.30377728689376
"827",9,35,1,1,107,3,1,1,3,0.720126288473341,0.80136404648911
"828",9,31,1,2,108,1,1,0,3,0.560125056458413,0.620946234266934
"829",9,28,1,1,109,3,1,1,3,0.916331553617964,0.859187560727428
"830",9,31,1,1,110,1,2,0,4,0.575354355594258,0.578576655577823
"831",9,34,1,2,111,2,2,1,4,0.733303957619012,0.747976552678161
"832",9,26,1,1,112,1,1,1,5,0.310007663390504,0.331501595204123
"833",9,37,1,2,113,3,2,1,2,0.871566588485151,0.921155443037337
"834",9,33,1,1,114,3,2,0,1,0.861620953019539,0.853198859901031
"835",9,38,1,1,115,3,1,1,3,0.7784369772482,0.806849873875204
"836",9,35,1,2,116,3,2,1,2,0.594099073087862,0.617668581009521
"837",9,35,1,1,117,3,2,0,2,1.4546984647819,1.5395705171995
"838",9,31,1,2,118,3,2,1,3,0.814488841511893,0.737205430344582
"839",9,28,1,2,119,3,1,0,2,0.705681954789075,0.744081885705048
"840",9,31,1,1,120,1,1,1,4,0.431708567577186,0.550041622507127
"841",9,34,1,2,121,1,1,0,4,0.649997395744501,0.603579375771517
"842",9,26,1,2,122,3,2,1,3,0.701580612161511,0.676051552874139
"843",9,37,1,2,123,1,1,0,4,0.613497562469934,0.528759567666028
"844",9,33,1,1,124,3,1,1,3,0.600689210572479,0.557002645048399
"845",9,38,1,1,125,3,2,0,1,0.755129265052797,0.765575678053845
"846",9,35,1,2,126,3,2,1,3,0.546301647699585,0.607083652057661
"847",9,35,1,1,127,2,2,0,2,0.619643530675943,0.570256351582058
"848",9,31,1,1,128,2,1,1,3,0.598374363071816,0.636937935329606
"849",9,28,1,2,129,2,2,1,3,0.551647120093657,0.548486467983209
"850",9,31,1,1,130,3,1,1,2,0.87947430558278,0.915467428268557
"851",9,34,1,1,131,2,1,1,4,0.570299669226794,0.53914710404723
"852",9,26,1,1,132,1,1,1,5,0.562769790750784,0.584711332691836
"853",9,37,1,2,133,1,2,1,4,0.297375757208761,0.344764447342943
"854",9,33,1,1,134,1,1,1,4,0.337029934723431,0.347010616032072
"855",9,38,1,2,135,2,2,1,3,0.742699154711364,0.728103557225272
"856",9,35,1,2,136,2,2,1,4,0.536127826584313,0.513167216405734
"857",9,35,1,1,137,1,1,1,4,0.407054565433327,0.415963437151993
"858",9,31,1,2,138,1,2,1,4,0.463933776893161,0.505258831749139
"859",9,28,1,2,139,3,2,1,2,1.0156241970873,0.935771724066488
"860",9,31,1,1,140,3,1,1,3,0.573377037322188,0.559126659242116
"861",9,34,1,1,141,1,1,1,5,0.337519253927322,0.335066050194152
"862",9,26,1,1,142,3,2,0,1,1.25914782425969,1.28747465328466
"863",9,37,1,2,143,2,1,0,2,0.630585005465354,0.716231367521507
"864",9,33,1,1,144,2,1,1,4,0.768202165553973,0.79774581511817
"865",9,38,1,2,145,3,2,1,3,0.916718825089287,0.915071570142138
"866",9,35,1,2,146,2,2,1,3,0.86474229299876,0.801298007444564
"867",9,35,1,2,147,1,2,1,4,0.448211098326213,0.466452535736977
"868",9,31,1,2,148,1,2,1,4,0.383804475655562,0.403555421593391
"869",9,28,1,1,149,1,1,1,4,0.51124318504053,0.513514727603791
"870",9,31,1,1,150,1,1,1,4,0.462600924143273,0.50691493990303
"871",9,34,1,1,151,2,1,1,3,0.482289505477094,0.413561843910673
"872",9,26,1,2,152,2,2,1,3,0.561175332943329,0.484221813806773
"873",9,37,1,1,153,2,1,1,3,0.549699935588465,0.611073258390677
"874",9,33,1,1,154,1,1,1,5,0.31672162277429,0.286209220672838
"875",9,38,1,1,155,1,2,0,4,0.439249413356576,0.394139621940065
"876",9,35,1,2,156,1,2,1,4,0.436125133812053,0.525831905320797
"877",9,35,1,2,157,3,1,0,2,0.999791623542008,0.900736157328591
"878",9,31,1,2,158,2,1,0,3,0.517903708259344,0.505096016185889
"879",9,28,1,2,159,1,2,1,5,0.48148145455384,0.485782702772651
"880",9,31,1,2,160,1,2,1,5,0.501460833837673,0.479542671678622
"881",9,34,1,1,161,2,1,1,4,0.759260699245593,0.806551772997719
"882",9,26,1,1,162,3,2,0,1,0.530802036592991,0.587778507844289
"883",9,37,1,1,163,3,1,1,2,0.872461765795082,0.961419995388655
"884",9,33,1,2,164,1,2,1,5,0.473328376009809,0.459523204851169
"885",9,38,1,1,165,2,2,0,3,0.711410048320572,0.669086213815549
"886",9,35,1,2,166,3,2,1,3,0.957297565051239,0.894952997517807
"887",9,35,1,2,167,3,1,0,1,1.04170529169336,0.988713733363606
"888",9,31,1,1,168,2,2,0,3,0.64000721333421,0.566277349447853
"889",9,28,1,1,169,2,1,1,3,0.717831108773983,0.793138305200696
"890",9,31,1,1,170,2,2,0,2,0.905626669670716,0.840119203468582
"891",9,34,1,1,171,1,2,0,4,0.452689274631852,0.523008104612629
"892",9,26,1,1,172,3,2,0,2,1.13564817423351,1.16640995577231
"893",9,37,1,1,173,3,1,1,3,0.985236252134981,0.960576044814165
"894",9,33,1,2,174,1,1,0,4,0.598462708474997,0.517042088292472
"895",9,38,1,1,175,3,2,0,2,1.02365142994281,0.95210867469279
"896",9,35,1,2,176,1,2,1,5,0.364325293841832,0.378064780094404
"897",9,35,1,2,177,2,1,0,3,0.634856605472275,0.746322501433813
"898",9,31,1,1,178,2,1,1,4,0.746062146821659,0.742889187548094
"899",9,28,1,2,179,2,2,1,4,0.494031593375859,0.502578644322391
"900",9,31,1,1,180,2,1,1,4,0.526895036094818,0.49485813988213
"901",9,34,1,1,181,3,1,1,2,0.816532790655948,0.898877207902502
"902",9,26,1,1,182,1,1,1,5,0.405919284377478,0.367829631072895
"903",9,37,1,1,183,2,1,1,4,0.399718441914483,0.361521616066014
"904",9,33,1,2,184,2,2,1,3,0.627242775750349,0.620510110564897
"905",9,38,1,2,185,3,1,0,1,0.50621102135294,0.573740644026891
"906",9,35,1,1,186,1,1,1,4,0.438763456217654,0.343174285139158
"907",9,35,1,2,187,1,2,1,5,0.428912580416428,0.424274201632015
"908",9,31,1,2,188,3,1,0,2,0.917888634064157,0.949261459312654
"909",9,28,1,1,189,1,1,1,4,0.421672764546982,0.440561884314728
"910",9,31,1,1,190,1,2,0,4,0.494584070861175,0.503660335078198
"911",9,34,1,2,191,3,2,1,3,0.760145358568128,0.769133151915433
"912",9,26,1,1,192,2,1,1,3,0.582259512898753,0.618454272630966
"913",9,37,1,1,193,3,1,1,2,0.722333176060388,0.722458562703694
"914",9,33,1,1,194,2,2,0,2,0.662260613392062,0.658419805078426
"915",9,38,1,1,195,1,1,1,4,0.317001467184311,0.364873489138949
"916",9,35,1,1,196,3,1,1,2,0.913572201930913,1.00787607397595
"917",9,35,1,1,197,3,1,1,3,0.490605292264037,0.386168956219064
"918",9,31,1,2,198,3,1,0,2,1.40863882415817,1.39338388101
"919",9,28,1,1,199,2,1,1,4,0.682790758132305,0.729326234914673
"920",9,31,1,2,200,3,1,0,2,0.906702200212268,0.806726483609334
"921",9,34,1,2,201,1,2,1,4,0.301304395883226,0.28775211489179
"922",9,26,1,1,202,3,1,1,2,0.981540086638295,0.997961462449291
"923",9,37,1,2,203,1,2,1,4,0.365085579227053,0.320210663187052
"924",9,33,1,2,204,3,2,1,2,0.928101852720482,0.919201813448145
"925",9,38,1,1,205,1,1,1,5,0.43264667516846,0.428688938902933
"926",9,35,1,2,206,3,1,0,2,0.191600528174509,0.216301219254864
"927",9,35,1,2,207,2,1,0,3,0.650203026376951,0.71733293142608
"928",9,31,1,1,208,3,1,1,2,0.740728686758278,0.706689736346177
"929",9,28,1,2,209,2,2,1,4,0.355884437315666,0.380558966064122
"930",9,31,1,1,210,2,2,0,3,0.7111020443295,0.781783347962159
"931",9,34,1,2,211,1,1,0,3,0.576665678434572,0.540114468081951
"932",9,26,1,1,212,1,1,1,5,0.370821454908997,0.387521483688629
"933",9,37,1,2,213,1,2,1,5,0.46192634299622,0.407161601914307
"934",9,33,1,2,214,2,2,1,3,0.695603964089587,0.625376529184302
"935",9,38,1,2,215,3,2,1,2,0.704623246710269,0.68756779886981
"936",9,35,1,1,216,3,2,0,2,0.860594572943382,0.861507053397322
"937",9,35,1,1,217,2,2,0,2,0.792345594401236,0.818847233364317
"938",9,31,1,2,218,2,2,1,3,0.702267771377838,0.799955320464247
"939",9,28,1,1,219,3,1,1,3,0.83353596435711,0.828826816678607
"940",9,31,1,2,220,1,2,1,5,0.371596186782295,0.427253948258298
"941",9,34,1,1,221,2,1,1,4,0.521027671503374,0.557348599951818
"942",9,26,1,1,222,3,2,0,1,1.3225685491927,1.32764152847076
"943",9,37,1,1,223,2,2,0,3,0.529488130132584,0.575749383973842
"944",9,33,1,1,224,2,1,1,4,0.693647503058273,0.653492062773434
"945",9,38,1,2,225,2,2,1,4,0.709687007719907,0.728948418265778
"946",9,35,1,2,226,3,2,1,3,0.587262975798313,0.507914925842128
"947",9,35,1,1,227,2,1,1,4,0.485230522350918,0.520172754384963
"948",9,31,1,2,228,2,2,1,4,0.528916075876278,0.62308776398085
"949",9,28,1,1,229,1,1,1,5,0.383318192854738,0.362229627239618
"950",9,31,1,1,230,1,1,1,4,0.449742072146827,0.470824772778182
"951",9,34,1,1,231,1,1,1,5,0.397494530842126,0.407443789101906
"952",9,26,1,1,232,2,1,1,3,0.609873700377943,0.677493589840108
"953",9,37,1,2,233,3,1,0,1,0.881010126355324,0.913555479998315
"954",9,33,1,2,234,2,2,1,4,0.530919099809197,0.500679335655257
"955",9,38,1,2,235,3,1,0,1,1.2659872511281,1.24772817516138
"956",9,35,1,1,236,3,2,0,2,1.21972013823692,1.23414623908218
"957",9,35,1,2,237,2,1,0,3,0.560513937361963,0.476075805694323
"958",9,31,1,2,238,3,1,0,2,1.15439608708857,1.09003696235772
"959",9,28,1,2,239,2,2,1,3,0.672361965726496,0.684844607374404
"960",9,31,1,2,240,3,2,1,2,0.935790586754091,1.05002107738576
"961",8,25,2,2,1,1,2,1,5,0.447355194779502,0.435185673387758
"962",8,29,2,1,2,2,1,1,3,0.501894175351073,0.516238061816859
"963",8,36,2,1,3,3,1,1,2,0.647452861696636,0.592442105440995
"964",8,24,2,2,4,1,2,1,5,0.379689013232585,0.36635424851274
"965",8,26,2,1,5,2,1,1,4,0.440398841701087,0.516735792021698
"966",8,24,2,1,6,3,2,0,1,0.507858144242385,0.569484687806798
"967",8,18,2,2,7,2,2,1,4,0.586282917925728,0.621139702024015
"968",8,29,2,2,8,2,2,1,4,0.59791173191676,0.54861238283483
"969",8,26,2,1,9,3,2,0,1,0.925466239206447,0.963302096655656
"970",8,40,2,1,10,3,2,0,1,1.90348341894872,1.90968663720606
"971",8,25,2,1,11,2,2,0,2,0.440279385266187,0.501279546194949
"972",8,29,2,2,12,1,1,0,3,0.606427428726431,0.633454634996147
"973",8,36,2,2,13,2,1,0,2,0.940016981057062,0.924244400451584
"974",8,24,2,1,14,3,2,0,1,1.15845609091502,1.13242203392792
"975",8,26,2,2,15,2,1,0,3,0.728771160439023,0.729343612528954
"976",8,24,2,2,16,2,2,1,4,0.505526127079105,0.495635933903531
"977",8,18,2,2,17,1,2,1,4,0.609194504873378,0.585629961849806
"978",8,29,2,2,18,1,2,1,5,0.389464256162636,0.317284592535981
"979",8,26,2,1,19,3,1,1,3,0.634386775805567,0.654542191424583
"980",8,40,2,2,20,1,2,1,5,0.343922586603336,0.373628665247031
"981",8,25,2,1,21,2,1,1,3,0.531271404261042,0.569478368945902
"982",8,29,2,1,22,2,1,1,3,0.515391163812925,0.516532722371175
"983",8,36,2,2,23,3,2,1,2,0.501261315554868,0.50192544083842
"984",8,24,2,2,24,2,2,1,4,0.585983792493868,0.562715503002204
"985",8,26,2,1,25,3,2,0,1,0.591302884358714,0.616603486543898
"986",8,24,2,1,26,2,2,0,2,0.697668585656101,0.749526605286621
"987",8,18,2,1,27,2,2,0,2,1.01819048161914,0.977482109187783
"988",8,29,2,2,28,3,2,1,2,0.914271410659162,0.83729513290107
"989",8,26,2,1,29,3,2,0,1,0.404019724221067,0.459647999336913
"990",8,40,2,2,30,1,2,1,5,0.356099707289722,0.305452590889567
"991",8,25,2,1,31,2,1,1,4,0.392575217700998,0.370823748098441
"992",8,29,2,2,32,2,2,1,3,0.663137368569141,0.595109020997462
"993",8,36,2,2,33,2,2,1,3,0.625780471045837,0.714882184041426
"994",8,24,2,2,34,1,2,1,4,0.370000890378865,0.329936558432351
"995",8,26,2,1,35,3,1,1,2,0.560253732991497,0.681132782776033
"996",8,24,2,1,36,2,2,0,3,0.778216558124218,0.789820901517849
"997",8,18,2,2,37,3,2,1,3,0.618315022314984,0.676800525366936
"998",8,29,2,1,38,1,1,1,4,0.420333110416713,0.397124556174992
"999",8,26,2,1,39,3,2,0,1,1.37346336545174,1.44286433845982
"1000",8,40,2,1,40,1,1,1,4,0.467367553689032,0.506693444097519
"1001",8,25,2,1,41,1,1,1,5,0.375926858541547,0.408484300444797
"1002",8,29,2,2,42,2,1,0,2,0.931230260225897,0.904361560249584
"1003",8,36,2,1,43,2,1,1,3,0.645828099792656,0.646435068072739
"1004",8,24,2,2,44,3,2,1,3,0.83556495791918,0.916692926319606
"1005",8,26,2,1,45,3,2,0,2,1.23330952003239,1.20438488153527
"1006",8,24,2,2,46,2,2,1,4,0.793621487007659,0.716172107517705
"1007",8,18,2,1,47,1,1,1,5,0.538220212945384,0.595341866538349
"1008",8,29,2,1,48,2,1,1,4,0.652948935351025,0.660017202516517
"1009",8,26,2,1,49,2,2,0,3,0.577754105596341,0.549182374910527
"1010",8,40,2,1,50,2,1,1,3,0.662617792328292,0.683699714993023
"1011",8,25,2,2,51,1,2,1,5,0.537981488509203,0.533207561012038
"1012",8,29,2,2,52,1,2,1,5,0.417672991010284,0.438920264691193
"1013",8,36,2,1,53,3,2,0,2,1.72443428044018,1.7677133229947
"1014",8,24,2,2,54,1,2,1,5,0.341813683850917,0.357291610616741
"1015",8,26,2,2,55,2,1,0,3,0.561714867482602,0.512762847227437
"1016",8,24,2,1,56,2,1,1,3,0.613266042360486,0.540178250490268
"1017",8,18,2,1,57,3,2,0,1,0.940270815884429,1.02240999721771
"1018",8,29,2,1,58,2,1,1,3,0.626635398847689,0.644564911138921
"1019",8,26,2,2,59,1,1,0,3,0.438802112489629,0.407328381789253
"1020",8,40,2,1,60,2,1,1,3,0.475939806738888,0.5089102571859
"1021",8,25,2,2,61,2,1,0,2,0.745232839267564,0.770086094417666
"1022",8,29,2,2,62,2,2,1,3,0.477791066070191,0.494921650810822
"1023",8,36,2,1,63,3,1,1,3,1.14362683625875,1.11529035299409
"1024",8,24,2,1,64,3,1,1,3,0.502394023750084,0.546437420372125
"1025",8,26,2,2,65,2,1,0,3,0.668902154524443,0.657183344844729
"1026",8,24,2,1,66,3,1,1,2,0.813767838472413,0.773963163562223
"1027",8,18,2,2,67,2,2,1,3,0.490908454812801,0.452311344176246
"1028",8,29,2,2,68,1,1,0,3,0.544736154736409,0.715964230443846
"1029",8,26,2,1,69,3,1,1,2,0.677158445124841,0.676195760127592
"1030",8,40,2,1,70,2,1,1,4,0.709374420607403,0.818011174804222
"1031",8,25,2,2,71,3,1,0,2,1.3301435073135,1.38847035126371
"1032",8,29,2,1,72,1,1,1,4,0.506180139815885,0.536246552633793
"1033",8,36,2,1,73,3,2,0,2,1.97960907189574,1.99394748599309
"1034",8,24,2,2,74,3,2,1,3,0.825169436477175,0.74101155037829
"1035",8,26,2,2,75,1,2,1,4,0.588609329923316,0.606936558671978
"1036",8,24,2,1,76,3,1,1,2,0.709057722076699,0.70255148475462
"1037",8,18,2,1,77,3,2,0,2,1.22170140714539,1.16935524331636
"1038",8,29,2,2,78,3,1,0,1,0.907762354232288,0.95869229558043
"1039",8,26,2,1,79,3,2,0,1,0.282113766633115,0.240344862749923
"1040",8,40,2,2,80,1,2,1,4,0.468504582113313,0.445847751261371
"1041",8,25,2,2,81,3,2,1,3,0.834278921942316,0.815154107830798
"1042",8,29,2,2,82,1,1,0,4,0.461626227542265,0.48143477771817
"1043",8,36,2,2,83,3,1,0,1,1.29242293962277,1.34585532767705
"1044",8,24,2,2,84,1,1,0,3,0.509122407319641,0.521160712398566
"1045",8,26,2,1,85,3,1,1,3,0.893970410229266,0.989391721241342
"1046",8,24,2,2,86,2,2,1,3,0.616920604521232,0.641896111171976
"1047",8,18,2,2,87,2,2,1,3,0.503102296855253,0.55321834228968
"1048",8,29,2,2,88,3,1,0,2,0.458857111277517,0.45876244097127
"1049",8,26,2,1,89,2,2,0,2,0.49311288016718,0.488690576125992
"1050",8,40,2,1,90,3,2,0,2,0.500256954113519,0.48772183341016
"1051",8,25,2,1,91,1,1,1,5,0.401089082858463,0.382067144866102
"1052",8,29,2,1,92,1,1,1,5,0.43565686757108,0.442679778842227
"1053",8,36,2,2,93,1,2,1,5,0.355273785584596,0.400623034037569
"1054",8,24,2,1,94,3,2,0,1,1.01424639867563,0.999312981883384
"1055",8,26,2,1,95,2,1,1,4,0.59414771269608,0.567317814810201
"1056",8,24,2,1,96,1,1,1,4,0.459464116397264,0.499451758124037
"1057",8,18,2,2,97,3,2,1,2,0.82701209743223,0.86185283489994
"1058",8,29,2,2,98,1,2,1,4,0.4328353025597,0.311304593619222
"1059",8,26,2,2,99,1,2,1,5,0.442978319583477,0.328655507659121
"1060",8,40,2,1,100,1,1,1,5,0.400902101677776,0.431826775490472
"1061",8,25,2,2,101,2,2,1,4,0.597817572440092,0.633631168558085
"1062",8,29,2,2,102,2,2,1,4,0.53294080474654,0.548455447333106
"1063",8,36,2,2,103,2,2,1,4,0.529446958373694,0.544284551838894
"1064",8,24,2,2,104,3,1,0,2,1.5132675889515,1.38133741361564
"1065",8,26,2,2,105,1,2,1,4,0.365147543180565,0.401314259673055
"1066",8,24,2,2,106,3,1,0,1,1.35330739389971,1.39177303367817
"1067",8,18,2,1,107,3,1,1,2,1.16115892065534,1.12829813638141
"1068",8,29,2,1,108,1,1,1,5,0.256090698852642,0.356669234437719
"1069",8,26,2,1,109,2,2,0,2,0.756362607780273,0.709991880822487
"1070",8,40,2,1,110,1,1,1,4,0.412619210013442,0.401265410688075
"1071",8,25,2,2,111,3,2,1,3,0.971267672761889,0.923833197811246
"1072",8,29,2,1,112,1,1,1,4,0.46836413482391,0.485082172881049
"1073",8,36,2,2,113,2,2,1,3,0.359288041558526,0.403652303879073
"1074",8,24,2,1,114,2,2,0,3,0.555571497294243,0.589298266544882
"1075",8,26,2,1,115,2,1,1,4,0.543177639934075,0.588460879734583
"1076",8,24,2,2,116,2,2,1,4,0.638066180369477,0.632988882495356
"1077",8,18,2,1,117,1,2,0,3,0.497506037598912,0.432552699954712
"1078",8,29,2,1,118,3,1,1,2,0.87991562039797,0.92515534693274
"1079",8,26,2,2,119,3,2,1,2,0.874181782921385,0.831507969735616
"1080",8,40,2,1,120,1,1,1,5,0.31570163790316,0.168116344813977
"1081",8,25,2,1,121,1,1,1,4,0.394022411448637,0.400591506492161
"1082",8,29,2,2,122,3,1,0,2,1.17392461834834,1.27096286299174
"1083",8,36,2,2,123,1,2,1,5,0.523534560382486,0.547167756403458
"1084",8,24,2,2,124,2,2,1,4,0.86091730371759,0.930073663752056
"1085",8,26,2,1,125,1,1,1,5,0.411068815572306,0.419782912587058
"1086",8,24,2,1,126,3,2,0,1,0.887802504376871,0.886481043942604
"1087",8,18,2,2,127,3,2,1,3,1.02433981807411,1.08018493951372
"1088",8,29,2,2,128,1,2,1,5,0.475778060765422,0.562998155228529
"1089",8,26,2,2,129,1,2,1,4,0.347368094439281,0.317357595392851
"1090",8,40,2,2,130,1,2,1,4,0.287065759343853,0.295975111896649
"1091",8,25,2,2,131,3,2,1,2,0.895962084965728,0.938338480403261
"1092",8,29,2,2,132,1,2,1,4,0.354112656052486,0.363234661445691
"1093",8,36,2,2,133,2,2,1,4,0.70030157364186,0.75454848877776
"1094",8,24,2,2,134,2,2,1,3,0.605933624120547,0.590104993251656
"1095",8,26,2,2,135,2,2,1,4,0.302651889480622,0.325030773295859
"1096",8,24,2,2,136,1,2,1,4,0.34781450732564,0.330988503268593
"1097",8,18,2,2,137,1,2,1,4,0.514399829560869,0.42485385084177
"1098",8,29,2,1,138,1,1,1,5,0.344054852683698,0.281979895189459
"1099",8,26,2,1,139,1,1,1,4,0.430323792696465,0.553643420027153
"1100",8,40,2,2,140,1,2,1,4,0.24585815505533,0.28401203313301
"1101",8,25,2,2,141,3,2,1,3,1.02230704438542,0.9652435558593
"1102",8,29,2,1,142,2,1,1,3,0.503081495025328,0.55273369142125
"1103",8,36,2,2,143,1,2,1,4,0.426939213641537,0.368730548093955
"1104",8,24,2,1,144,1,2,0,3,0.550970083133601,0.498100568783377
"1105",8,26,2,2,145,2,1,0,2,0.778759023486518,0.731357822138392
"1106",8,24,2,1,146,3,1,1,2,0.948321740069682,1.00707855864207
"1107",8,18,2,1,147,2,1,1,3,0.631777080961858,0.77019084529959
"1108",8,29,2,2,148,1,1,0,4,0.569959569417338,0.590373550446681
"1109",8,26,2,2,149,1,2,1,5,0.357874567308009,0.401679770823211
"1110",8,40,2,1,150,3,2,0,2,0.652871271783723,0.709031017862734
"1111",8,25,2,1,151,3,1,1,2,0.887189943111652,0.921650168076909
"1112",8,29,2,1,152,1,1,1,5,0.378930293629456,0.288081551508042
"1113",8,36,2,2,153,1,2,1,4,0.358849520361469,0.383008420467066
"1114",8,24,2,1,154,1,1,1,5,0.280694341849357,0.262692403226558
"1115",8,26,2,1,155,3,1,1,2,0.403951765400643,0.509558823571452
"1116",8,24,2,1,156,2,1,1,4,0.552467883964853,0.581720305847251
"1117",8,18,2,1,157,1,1,1,4,0.503838043382249,0.589007776995276
"1118",8,29,2,1,158,2,1,1,4,0.600187445909798,0.582608426554717
"1119",8,26,2,2,159,2,1,0,3,0.747928385422762,0.794444248795817
"1120",8,40,2,2,160,1,1,0,4,0.751403105753448,0.771222384018085
"1121",8,25,2,2,161,2,1,0,3,0.588318368857612,0.596560737163674
"1122",8,29,2,1,162,1,1,1,4,0.351857134361,0.282991426968115
"1123",8,36,2,2,163,2,1,0,3,0.826553722772596,0.842398269416401
"1124",8,24,2,1,164,3,2,0,2,0.703875453200761,0.710478527309166
"1125",8,26,2,2,165,1,2,1,4,0.458629480525408,0.466056256109116
"1126",8,24,2,2,166,3,1,0,2,0.960480332525888,0.957390342027986
"1127",8,18,2,1,167,3,2,0,1,1.28472746649312,1.25933094783912
"1128",8,29,2,1,168,2,2,0,3,1.03623817707491,1.0718262864028
"1129",8,26,2,1,169,2,1,1,4,0.593149032163002,0.50690224915934
"1130",8,40,2,1,170,1,2,0,4,0.390339307746261,0.411736773220502
"1131",8,25,2,2,171,3,2,1,3,1.04545730994697,0.943774276875753
"1132",8,29,2,1,172,1,1,1,4,0.464869867524482,0.410193376568058
"1133",8,36,2,2,173,2,1,0,3,0.703857723416131,0.773571321717561
"1134",8,24,2,2,174,2,2,1,3,0.593533706651842,0.685640378448827
"1135",8,26,2,1,175,1,2,0,4,0.623774967129582,0.689882954911253
"1136",8,24,2,2,176,3,2,1,3,0.737379619705466,0.741862412896906
"1137",8,18,2,1,177,3,1,1,3,0.901190757952735,0.896443442203246
"1138",8,29,2,1,178,2,2,0,3,0.796517349116661,0.76736538565063
"1139",8,26,2,1,179,1,1,1,5,0.360764788799683,0.401787525464603
"1140",8,40,2,1,180,2,1,1,4,0.646336100387512,0.738331867707778
"1141",8,25,2,1,181,2,2,0,3,0.76626481341667,0.756142075254816
"1142",8,29,2,2,182,3,2,1,3,0.452443419502724,0.397304338044458
"1143",8,36,2,1,183,3,2,0,1,0.829503378246545,0.847642030429694
"1144",8,24,2,1,184,2,1,1,3,0.726423660073513,0.743379452664702
"1145",8,26,2,1,185,1,1,1,5,0.380291936211686,0.444922963493648
"1146",8,24,2,1,186,2,1,1,3,0.536559477647242,0.474633825717097
"1147",8,18,2,1,187,2,2,0,3,0.741078838657062,0.710424009004013
"1148",8,29,2,2,188,2,2,1,4,0.698992269052947,0.633704801752729
"1149",8,26,2,2,189,3,1,0,2,1.09209211696707,1.01295618323555
"1150",8,40,2,1,190,1,1,1,5,0.373334204823981,0.488108882586822
"1151",8,25,2,2,191,3,2,1,3,0.910860539305415,0.887590201943453
"1152",8,29,2,1,192,2,2,0,3,0.584202660013638,0.572847394307756
"1153",8,36,2,1,193,2,2,0,3,0.815872487021943,0.838893448390328
"1154",8,24,2,2,194,3,1,0,1,0.922270863242305,0.931206048448566
"1155",8,26,2,2,195,3,2,1,3,0.89945450214336,0.831198749629082
"1156",8,24,2,1,196,1,2,0,3,0.583738659076814,0.670310179468915
"1157",8,18,2,2,197,1,2,1,4,0.457734033136205,0.468394448601428
"1158",8,29,2,2,198,2,2,1,4,0.241765441474859,0.368911756060693
"1159",8,26,2,2,199,1,2,1,5,0.253145003344356,0.255130458849931
"1160",8,40,2,1,200,3,1,1,2,0.95894313498766,0.922782458801335
"1161",8,25,2,1,201,1,1,1,5,0.262651284205141,0.304026052098582
"1162",8,29,2,1,202,1,2,0,4,0.584684035312062,0.579890622298879
"1163",8,36,2,1,203,3,2,0,1,0.749017606611517,0.836206082759988
"1164",8,24,2,2,204,3,1,0,1,0.908956853968664,0.888703279702688
"1165",8,26,2,1,205,3,2,0,1,1.39303355243112,1.44470510011941
"1166",8,24,2,1,206,2,1,1,3,0.434174862026252,0.505845800784392
"1167",8,18,2,2,207,1,2,1,4,0.4264980020802,0.348494221829439
"1168",8,29,2,1,208,3,2,0,1,0.90947100472802,0.922368326046569
"1169",8,26,2,2,209,3,2,1,3,0.889718272686289,0.896463269155504
"1170",8,40,2,1,210,1,1,1,4,0.496054449349722,0.617353617860125
"1171",8,25,2,2,211,1,2,1,5,0.489153105423598,0.488718828550249
"1172",8,29,2,2,212,1,2,1,5,0.44367119947944,0.364817574924628
"1173",8,36,2,2,213,2,2,1,4,0.646847203008385,0.701295594412305
"1174",8,24,2,1,214,1,1,1,5,0.310344862165222,0.327772087008449
"1175",8,26,2,1,215,1,1,1,5,0.350085749160311,0.334046159754821
"1176",8,24,2,2,216,2,2,1,4,0.688788572894213,0.753663917563623
"1177",8,18,2,2,217,3,1,0,1,0.831883791819577,0.808211692163294
"1178",8,29,2,2,218,1,2,1,4,0.370232265475411,0.394194067957408
"1179",8,26,2,2,219,1,2,1,5,0.44597139465753,0.456172949523269
"1180",8,40,2,1,220,3,1,1,2,0.754884870583915,0.691100857237437
"1181",8,25,2,1,221,3,2,0,1,0.830134013725719,0.764657545579487
"1182",8,29,2,2,222,3,2,1,3,0.792882722055749,0.817524777278109
"1183",8,36,2,2,223,2,1,0,2,0.782709486272879,0.85030447082542
"1184",8,24,2,1,224,3,2,0,2,0.804243582173378,0.792082525188879
"1185",8,26,2,2,225,3,2,1,2,0.648750525323384,0.543744354763841
"1186",8,24,2,2,226,3,1,0,2,1.02080584395785,1.0524776701755
"1187",8,18,2,2,227,3,1,0,1,1.08794619077527,1.09570021355003
"1188",8,29,2,2,228,3,2,1,2,0.883074155591711,0.930873681638643
"1189",8,26,2,1,229,1,1,1,4,0.267201373863107,0.238718760352165
"1190",8,40,2,2,230,1,2,1,4,0.517153923700359,0.51766754664645
"1191",8,25,2,1,231,3,2,0,1,0.455068172775007,0.470378214230881
"1192",8,29,2,2,232,3,1,0,2,1.28697939764584,1.34480042068096
"1193",8,36,2,2,233,2,1,0,3,0.519746987257192,0.50238489932429
"1194",8,24,2,2,234,3,2,1,3,1.17362731134724,1.1694813280487
"1195",8,26,2,2,235,2,1,0,2,0.748763001107284,0.830237840534248
"1196",8,24,2,2,236,2,2,1,4,0.474182219402259,0.484105342483068
"1197",8,18,2,1,237,2,1,1,3,0.606255362385484,0.590805057534723
"1198",8,29,2,1,238,1,1,1,5,0.398876476460736,0.322088872390726
"1199",8,26,2,1,239,2,2,0,3,0.618727004670933,0.612732827109044
"1200",8,40,2,1,240,2,1,1,3,0.699108663874083,0.742009985071085
"1201",7,25,1,2,1,1,1,0,3,0.674650458103023,0.645068596139425
"1202",7,21,1,2,2,2,1,0,3,0.916274799446267,0.762510583941606
"1203",7,22,1,1,3,3,2,0,2,0.0624557059715228,-0.00741029133811043
"1204",7,38,1,2,4,3,2,1,2,0.689730641844946,0.699724898262371
"1205",7,22,1,1,5,2,1,1,3,0.464209125582957,0.445170750878776
"1206",7,20,1,1,6,1,1,1,5,0.284664030004402,0.399888287507002
"1207",7,30,1,1,7,3,1,1,2,0.855944494282443,0.851111562023323
"1208",7,23,1,1,8,1,2,0,3,0.623112658175899,0.635993464306322
"1209",7,34,1,1,9,3,2,0,1,1.14308313534451,1.15046806903497
"1210",7,38,1,1,10,2,2,0,3,0.86749416466,0.852645712306647
"1211",7,25,1,1,11,2,2,0,2,0.784130290381065,0.766092042588847
"1212",7,21,1,2,12,1,2,1,5,0.261133739594462,0.223997629025206
"1213",7,22,1,2,13,2,2,1,3,0.439994888125023,0.482015531023103
"1214",7,38,1,1,14,2,1,1,4,0.399728115725416,0.362835930838332
"1215",7,22,1,2,15,1,2,1,5,0.396950046806984,0.485116607496365
"1216",7,20,1,2,16,3,2,1,2,0.554418679354026,0.573238304822605
"1217",7,30,1,1,17,1,1,1,4,0.424498106377637,0.281304700998199
"1218",7,23,1,2,18,1,2,1,5,0.32034541763552,0.294030489004784
"1219",7,34,1,2,19,1,2,1,4,0.333367760246219,0.207806385997952
"1220",7,38,1,1,20,1,1,1,5,0.481830844069339,0.483921132072852
"1221",7,25,1,1,21,2,1,1,3,0.771287089795918,0.760823947094857
"1222",7,21,1,1,22,3,2,0,1,0.761564456725552,0.764697158849615
"1223",7,22,1,2,23,3,2,1,2,0.653426120457971,0.684967240510888
"1224",7,38,1,2,24,3,1,0,2,0.995083498678059,0.948393101092202
"1225",7,22,1,2,25,3,2,1,2,0.818692823341687,0.758047216163279
"1226",7,20,1,2,26,2,1,0,3,0.946919376458828,0.968258578764756
"1227",7,30,1,1,27,1,2,0,4,0.448100321256458,0.431713238174332
"1228",7,23,1,2,28,2,1,0,2,0.611252780776858,0.573302622106388
"1229",7,34,1,1,29,1,1,1,5,0.327166064690082,0.254607772167632
"1230",7,38,1,2,30,3,1,0,2,0.243958212888956,0.303219396348172
"1231",7,25,1,2,31,1,2,1,4,0.378579470468459,0.358525156421181
"1232",7,21,1,1,32,1,1,1,4,0.390083328825271,0.426070319315555
"1233",7,22,1,2,33,2,2,1,3,0.556220715301603,0.640741495496265
"1234",7,38,1,2,34,3,1,0,2,1.35495043382481,1.47701139698025
"1235",7,22,1,1,35,2,1,1,3,0.420013607935369,0.321696742404489
"1236",7,20,1,2,36,1,1,0,4,0.559307967802981,0.626073536919545
"1237",7,30,1,1,37,2,2,0,2,0.79898868351116,0.757655541994363
"1238",7,23,1,2,38,1,1,0,4,0.665733269855283,0.711233055559598
"1239",7,34,1,2,39,1,1,0,4,0.464949646187919,0.511579456205086
"1240",7,38,1,2,40,1,2,1,4,0.301217628090768,0.286323196904582
"1241",7,25,1,2,41,3,2,1,3,0.481867424188238,0.467033502520218
"1242",7,21,1,1,42,3,1,1,3,0.631571680126034,0.667636760880477
"1243",7,22,1,2,43,1,1,0,3,0.581588000297861,0.537150614828939
"1244",7,38,1,2,44,1,1,0,4,0.6781934354922,0.649792231760399
"1245",7,22,1,2,45,1,2,1,5,0.466136158759821,0.533989026349033
"1246",7,20,1,1,46,2,1,1,3,0.680896128570058,0.633062675326708
"1247",7,30,1,2,47,3,2,1,3,1.13031920384238,1.16168218938566
"1248",7,23,1,2,48,3,1,0,1,0.331632073766928,0.359002654657561
"1249",7,34,1,2,49,3,1,0,2,0.802556986214027,0.762135082690003
"1250",7,38,1,1,50,2,1,1,4,0.732660904280798,0.794137594934271
"1251",7,25,1,2,51,2,2,1,3,0.569815442830982,0.550745673064276
"1252",7,21,1,2,52,1,2,1,4,0.447117046895566,0.404497429402499
"1253",7,22,1,1,53,2,2,0,3,0.766982496920935,0.837193198018442
"1254",7,38,1,2,54,3,2,1,2,0.635359375758455,0.695615815096305
"1255",7,22,1,2,55,1,1,0,3,0.5222231689731,0.504881067620147
"1256",7,20,1,1,56,1,1,1,4,0.405552329986564,0.42934549887652
"1257",7,30,1,2,57,1,2,1,5,0.362950215378816,0.33745166649269
"1258",7,23,1,2,58,2,1,0,3,0.600840597358612,0.664484807555078
"1259",7,34,1,2,59,2,2,1,3,0.669780585134789,0.667577413411896
"1260",7,38,1,1,60,2,2,0,2,0.650495944117157,0.683135782390837
"1261",7,25,1,2,61,2,2,1,3,0.47065187066312,0.433070785437801
"1262",7,21,1,1,62,1,2,0,3,0.602755315886537,0.598279067256206
"1263",7,22,1,2,63,2,1,0,2,0.644218599078207,0.607003412426859
"1264",7,38,1,1,64,3,1,1,3,0.724633118956832,0.710457835120469
"1265",7,22,1,1,65,2,2,0,2,0.726527818921799,0.715465331357481
"1266",7,20,1,1,66,1,1,1,4,0.487249548960601,0.483323714111301
"1267",7,30,1,1,67,3,1,1,2,0.441027905685045,0.518543417219971
"1268",7,23,1,2,68,3,2,1,2,0.728108957129379,0.755090696081553
"1269",7,34,1,1,69,1,1,1,5,0.338055373199081,0.314039164463541
"1270",7,38,1,2,70,1,2,1,5,0.413247615307163,0.451445118763215
"1271",7,25,1,1,71,1,1,1,5,0.310339913637503,0.225809461676489
"1272",7,21,1,1,72,3,2,0,1,1.17430250186025,1.19941226493685
"1273",7,22,1,2,73,1,2,1,4,0.536911185675625,0.608273442181405
"1274",7,38,1,2,74,2,2,1,3,0.578497278461932,0.584708484273798
"1275",7,22,1,2,75,2,2,1,3,0.571440921123179,0.535818601798256
"1276",7,20,1,1,76,1,1,1,4,0.43119413492136,0.404848241050777
"1277",7,30,1,2,77,2,1,0,2,0.656133979858573,0.694013131352183
"1278",7,23,1,1,78,1,1,1,4,0.334798425430192,0.343890974103865
"1279",7,34,1,2,79,3,2,1,2,0.776770976406359,0.813890139439292
"1280",7,38,1,1,80,2,1,1,3,0.751048551153987,0.823546379757735
"1281",7,25,1,1,81,2,2,0,3,0.474077967869436,0.466377610495686
"1282",7,21,1,2,82,1,2,1,4,0.242436821229565,0.312245747678687
"1283",7,22,1,1,83,1,1,1,5,0.533781239265837,0.567819083725817
"1284",7,38,1,2,84,1,2,1,5,0.325067415906203,0.379165573789141
"1285",7,22,1,1,85,1,1,1,5,0.316063226797277,0.361469154190755
"1286",7,20,1,2,86,2,1,0,2,1.04530508646229,1.16748199617339
"1287",7,30,1,2,87,2,2,1,4,0.4382726225257,0.463587726256194
"1288",7,23,1,1,88,3,1,1,2,0.572627658837634,0.529383015675468
"1289",7,34,1,2,89,3,2,1,3,0.681595673025845,0.698992546243298
"1290",7,38,1,1,90,1,1,1,5,0.354415418799224,0.407490601360792
"1291",7,25,1,2,91,2,1,0,2,0.812400831537665,0.857265903060796
"1292",7,21,1,1,92,3,1,1,3,0.686359427792364,0.656207430030201
"1293",7,22,1,2,93,3,1,0,2,0.15170333985423,0.0918797922070946
"1294",7,38,1,1,94,1,2,0,4,0.575504864012776,0.563910705710836
"1295",7,22,1,2,95,1,2,1,5,0.289951030107781,0.223322985056512
"1296",7,20,1,2,96,3,2,1,3,0.833300312935575,0.80028901912214
"1297",7,30,1,2,97,2,2,1,3,0.439216167791632,0.433600168874637
"1298",7,23,1,1,98,3,1,1,3,0.742685288965402,0.697032258391113
"1299",7,34,1,2,99,2,1,0,3,0.732121887935091,0.718727772479267
"1300",7,38,1,2,100,1,2,1,4,0.345714503398856,0.39193141320494
"1301",7,25,1,1,101,1,2,0,3,0.305866668374236,0.423957481299695
"1302",7,21,1,1,102,3,1,1,3,0.628992525535681,0.650524838863734
"1303",7,22,1,1,103,3,1,1,2,1.160340144804,1.09997542263886
"1304",7,38,1,1,104,2,1,1,4,0.577618402370791,0.642109303869155
"1305",7,22,1,2,105,3,1,0,1,0.825178938947426,0.875616147760141
"1306",7,20,1,2,106,3,2,1,3,0.881115966030917,0.845333557283028
"1307",7,30,1,1,107,3,2,0,1,1.1576975838784,1.13114766532604
"1308",7,23,1,1,108,1,1,1,5,0.213289473179679,0.165985420474523
"1309",7,34,1,1,109,2,2,0,2,0.804785811677614,0.722917503944125
"1310",7,38,1,1,110,3,1,1,2,0.814613937065962,0.786195879768899
"1311",7,25,1,1,111,1,1,1,4,0.507021624897344,0.41635280219521
"1312",7,21,1,2,112,2,2,1,3,0.719321259817653,0.63230933980253
"1313",7,22,1,2,113,3,2,1,2,0.644755431008049,0.630709070677889
"1314",7,38,1,1,114,2,2,0,3,0.31536716050409,0.324505600749596
"1315",7,22,1,1,115,1,1,1,4,0.299399410170708,0.328279912438657
"1316",7,20,1,1,116,2,1,1,4,0.7346051131986,0.807934338591005
"1317",7,30,1,1,117,3,2,0,2,0.612609622122194,0.622538974912277
"1318",7,23,1,2,118,2,2,1,3,0.735338664340817,0.718134372700205
"1319",7,34,1,1,119,2,1,1,3,0.839752251022365,0.95452948507065
"1320",7,38,1,1,120,3,1,1,2,0.8560930270758,0.738931762369834
"1321",7,25,1,1,121,3,2,0,2,1.33874226884531,1.32337606568881
"1322",7,21,1,1,122,1,2,0,3,0.651064628292485,0.609407149692492
"1323",7,22,1,1,123,2,1,1,4,0.388180027359731,0.390690546492851
"1324",7,38,1,2,124,3,1,0,1,1.15764177067523,1.12960856048511
"1325",7,22,1,1,125,2,1,1,4,0.629401029627519,0.643900379121075
"1326",7,20,1,2,126,1,2,1,5,0.477276504407721,0.597715297052618
"1327",7,30,1,1,127,1,2,0,3,0.546351936927193,0.592551476030684
"1328",7,23,1,1,128,2,1,1,3,0.364785447897512,0.330779134597521
"1329",7,34,1,1,129,1,1,1,4,0.454245692988195,0.400541582284736
"1330",7,38,1,2,130,2,2,1,3,0.374936684750078,0.321493738176158
"1331",7,25,1,2,131,2,2,1,4,0.739834532501929,0.819473623182179
"1332",7,21,1,2,132,1,2,1,5,0.380024009707388,0.421852513075666
"1333",7,22,1,2,133,3,1,0,1,1.38214467825374,1.44793396773953
"1334",7,38,1,2,134,3,1,0,1,1.07047526756401,1.08857506912023
"1335",7,22,1,1,135,3,1,1,3,0.512800764313409,0.572766371574754
"1336",7,20,1,2,136,2,2,1,4,0.696111386875759,0.685928094326058
"1337",7,30,1,1,137,1,1,1,5,0.48968271412239,0.486219088404638
"1338",7,23,1,1,138,3,2,0,2,0.987144930095319,0.95248977787121
"1339",7,34,1,2,139,3,2,1,2,1.20573078853536,1.09563593479239
"1340",7,38,1,1,140,2,2,0,2,0.826040031199273,0.837593444302384
"1341",7,25,1,1,141,2,2,0,2,0.748471891108322,0.875313417698756
"1342",7,21,1,1,142,3,1,1,2,0.923124806547839,0.959469239929275
"1343",7,22,1,2,143,2,1,0,2,0.731387101104778,0.665140293504617
"1344",7,38,1,1,144,2,2,0,3,0.83001738672561,0.864388145219854
"1345",7,22,1,2,145,2,1,0,2,0.917892124785743,0.999287460687053
"1346",7,20,1,1,146,1,1,1,5,0.342805812726156,0.308802923187508
"1347",7,30,1,2,147,3,2,1,2,0.553106343996507,0.505324031866102
"1348",7,23,1,2,148,1,2,1,4,0.397798761396958,0.421412069601875
"1349",7,34,1,1,149,1,1,1,4,0.467532372394586,0.500400382622096
"1350",7,38,1,1,150,1,1,1,5,0.458992494007152,0.364332474452517
"1351",7,25,1,1,151,2,2,0,2,0.775673436526688,0.822787783162154
"1352",7,21,1,1,152,3,1,1,3,0.777694705932389,0.79286991898705
"1353",7,22,1,2,153,2,2,1,3,0.672721930905124,0.615258306912913
"1354",7,38,1,2,154,1,2,1,4,0.585794896980498,0.644977184263603
"1355",7,22,1,1,155,1,1,1,4,0.310507343858544,0.32525691857018
"1356",7,20,1,1,156,2,2,0,3,0.936188199598686,0.869546918030806
"1357",7,30,1,2,157,3,2,1,3,0.551684646815696,0.488448094328052
"1358",7,23,1,1,158,2,1,1,3,0.44122143251311,0.366217265176581
"1359",7,34,1,2,159,3,2,1,2,0.819517765144173,0.789758172286399
"1360",7,38,1,2,160,2,2,1,4,0.523331346602372,0.542181303774069
"1361",7,25,1,2,161,3,1,0,2,0.900733816982342,0.812153034232418
"1362",7,21,1,1,162,1,1,1,5,0.448456487461028,0.524049510329138
"1363",7,22,1,2,163,3,1,0,2,0.80409465496503,0.830689922497077
"1364",7,38,1,1,164,1,1,1,4,0.613234288962199,0.611086463407448
"1365",7,22,1,2,165,1,2,1,5,0.29764857284194,0.219641136503351
"1366",7,20,1,1,166,3,2,0,2,1.43366848873477,1.41338598611865
"1367",7,30,1,2,167,2,2,1,4,0.576150143780315,0.598874181410908
"1368",7,23,1,1,168,3,2,0,1,0.874867983117073,0.914822103455419
"1369",7,34,1,1,169,3,2,0,1,1.44163760654005,1.47845107153999
"1370",7,38,1,1,170,3,1,1,3,0.908617638291351,0.903686327465632
"1371",7,25,1,1,171,1,1,1,5,0.361852744541636,0.385131954368915
"1372",7,21,1,2,172,3,1,0,2,0.424506636540621,0.39852688142267
"1373",7,22,1,1,173,2,2,0,3,0.746972245551078,0.708838627476885
"1374",7,38,1,2,174,3,1,0,1,0.790907927688731,0.868803776735422
"1375",7,22,1,2,175,2,1,0,3,0.847881365329221,0.867370289663942
"1376",7,20,1,2,176,2,1,0,2,0.496602464660703,0.573134405171118
"1377",7,30,1,2,177,2,1,0,2,0.773872839237303,0.738997114830181
"1378",7,23,1,2,178,2,2,1,3,0.561585492595319,0.539915070252142
"1379",7,34,1,2,179,2,2,1,4,0.501607077064995,0.496967475604465
"1380",7,38,1,1,180,1,1,1,4,0.196522587229628,0.19520355613541
"1381",7,25,1,1,181,3,2,0,2,0.292915676546289,0.416471073937938
"1382",7,21,1,2,182,1,2,1,5,0.319391525878821,0.354647910008052
"1383",7,22,1,1,183,2,1,1,4,0.674367438532311,0.689450522494962
"1384",7,38,1,2,184,2,1,0,2,0.936611659043285,0.936382614572259
"1385",7,22,1,1,185,1,1,1,4,0.391467539030302,0.410591385445709
"1386",7,20,1,2,186,3,1,0,1,1.16006773691083,1.08906040880224
"1387",7,30,1,2,187,2,1,0,2,0.654837927010579,0.700757100271664
"1388",7,23,1,2,188,1,2,1,4,0.512468749391711,0.492388005264325
"1389",7,34,1,1,189,3,2,0,1,0.473272280600756,0.550723075327385
"1390",7,38,1,1,190,1,2,0,4,0.606211854036751,0.575922292251895
"1391",7,25,1,2,191,2,1,0,3,0.590642534514672,0.518755353950525
"1392",7,21,1,2,192,3,2,1,2,0.930677812196044,0.897453690500463
"1393",7,22,1,1,193,2,1,1,3,0.682786574822486,0.754033901746185
"1394",7,38,1,1,194,3,2,0,1,0.226503703503033,0.197338245115367
"1395",7,22,1,2,195,1,2,1,5,0.365526363755487,0.332914280795507
"1396",7,20,1,1,196,1,1,1,4,0.371480475153065,0.342339641771127
"1397",7,30,1,2,197,3,2,1,2,1.12775052231653,1.03420502795069
"1398",7,23,1,1,198,2,2,0,2,0.747477862117827,0.740899529152541
"1399",7,34,1,2,199,2,2,1,3,0.614723751071252,0.664671001026683
"1400",7,38,1,1,200,3,1,1,3,0.725905101322914,0.732997981869746
"1401",7,25,1,2,201,3,1,0,1,0.633660479885451,0.648313324246342
"1402",7,21,1,1,202,3,1,1,3,0.89629703019587,0.962042786495204
"1403",7,22,1,2,203,3,2,1,3,0.748963155813985,0.734195951875163
"1404",7,38,1,2,204,1,2,1,4,0.531483923845755,0.499619505217745
"1405",7,22,1,1,205,1,2,0,4,0.597655789379961,0.659530826996598
"1406",7,20,1,1,206,1,1,1,4,0.488658201554566,0.535214172217377
"1407",7,30,1,1,207,2,2,0,3,0.636942200393932,0.620734682690851
"1408",7,23,1,1,208,3,1,1,3,0.919457969538909,0.92678611433242
"1409",7,34,1,2,209,1,2,1,5,0.516661407787501,0.48325569953602
"1410",7,38,1,2,210,2,1,0,2,0.687427969135949,0.711436025640128
"1411",7,25,1,1,211,1,1,1,5,0.438656561961984,0.386430623848352
"1412",7,21,1,1,212,3,1,1,3,0.968708035275454,0.970696825630793
"1413",7,22,1,2,213,3,2,1,3,0.854068094148,0.880099332652271
"1414",7,38,1,1,214,1,1,1,5,0.240353673714328,0.344282743227491
"1415",7,22,1,2,215,3,2,1,2,0.792811898323255,0.783237892301217
"1416",7,20,1,2,216,1,2,1,5,0.380879146255859,0.443908732437065
"1417",7,30,1,1,217,2,2,0,2,0.528734860477335,0.524480817960954
"1418",7,23,1,1,218,3,1,1,3,0.890035331775893,0.798477381675919
"1419",7,34,1,1,219,2,2,0,3,0.766936624375546,0.699385574742822
"1420",7,38,1,1,220,1,2,0,3,0.524197975138216,0.628640999344404
"1421",7,25,1,2,221,3,1,0,1,1.110918590716,1.13391623546772
"1422",7,21,1,1,222,3,1,1,3,0.749207974389297,0.811812669130632
"1423",7,22,1,1,223,3,1,1,3,0.980711778659274,0.930324851234409
"1424",7,38,1,2,224,2,1,0,2,0.59429059490441,0.623904254364259
"1425",7,22,1,1,225,3,2,0,2,1.77343222443418,1.78038416851246
"1426",7,20,1,2,226,2,1,0,3,0.556373821493325,0.548181038570775
"1427",7,30,1,2,227,2,2,1,3,0.623012189471347,0.562278211482913
"1428",7,23,1,1,228,2,1,1,3,0.529006470706386,0.633107087303399
"1429",7,34,1,2,229,2,1,0,2,0.610013791861983,0.556108939507936
"1430",7,38,1,1,230,2,1,1,3,0.696851548495721,0.70126124687254
"1431",7,25,1,2,231,1,2,1,5,0.283877817149879,0.282754445275765
"1432",7,21,1,1,232,1,1,1,4,0.449122940126095,0.421774795847091
"1433",7,22,1,1,233,3,1,1,2,0.476340633596247,0.596482216151334
"1434",7,38,1,2,234,3,2,1,3,0.725864474885561,0.713758277692896
"1435",7,22,1,2,235,2,2,1,4,0.586347895398427,0.529964078994043
"1436",7,20,1,2,236,1,2,1,4,0.22263760367082,0.247080751675521
"1437",7,30,1,1,237,1,1,1,4,0.428478470369383,0.448102672721173
"1438",7,23,1,2,238,3,2,1,3,0.623948149865029,0.707468112312291
"1439",7,34,1,2,239,1,1,0,3,0.603691098841103,0.548287273478951
"1440",7,38,1,1,240,3,2,0,1,1.13581379160399,1.10298707182675
"1441",6,33,2,1,1,3,1,1,3,1.03824039679244,1.06510589070156
"1442",6,27,2,1,2,1,1,1,5,0.349931701345092,0.35082002864078
"1443",6,18,2,2,3,1,2,1,4,0.299125265587015,0.293954575308023
"1444",6,37,2,1,4,2,1,1,4,0.776161733023447,0.824338903772419
"1445",6,31,2,2,5,1,2,1,5,0.290418058261035,0.301700227614356
"1446",6,21,2,2,6,2,1,0,2,0.6504007374516,0.635213297492402
"1447",6,38,2,1,7,2,2,0,2,0.627808517082233,0.548391234645745
"1448",6,35,2,2,8,2,1,0,3,0.766796372384394,0.657370844678483
"1449",6,38,2,1,9,3,2,0,2,0.995625823377756,0.967143927392465
"1450",6,34,2,2,10,2,1,0,2,0.621866409004176,0.55556827632152
"1451",6,33,2,2,11,2,2,1,3,0.549378812924114,0.456072320790366
"1452",6,27,2,2,12,3,2,1,2,0.997157027098263,0.968079359073155
"1453",6,18,2,2,13,2,2,1,3,0.461695967552611,0.48219892580756
"1454",6,37,2,1,14,2,1,1,4,0.584360107268247,0.550847985924487
"1455",6,31,2,2,15,3,1,0,1,0.618288381579448,0.638646881647415
"1456",6,21,2,1,16,1,1,1,4,0.231353660564811,0.175027222922454
"1457",6,38,2,1,17,2,2,0,3,0.458945828838854,0.458004013879282
"1458",6,35,2,1,18,3,2,0,2,1.44946236398301,1.45706184913004
"1459",6,38,2,2,19,3,1,0,1,0.657187823116472,0.676085473315758
"1460",6,34,2,2,20,1,2,1,5,0.4815217878756,0.47439744019194
"1461",6,33,2,1,21,2,2,0,2,0.638837135420905,0.590351187691894
"1462",6,27,2,2,22,1,2,1,5,0.41239216485885,0.384847609970081
"1463",6,18,2,1,23,2,2,0,3,0.832181525553572,0.825169321660106
"1464",6,37,2,1,24,2,2,0,2,1.00923526992783,0.983214610627652
"1465",6,31,2,2,25,2,2,1,3,0.582797450187622,0.559576117797385
"1466",6,21,2,1,26,2,2,0,3,0.666012481759335,0.617993660293144
"1467",6,38,2,2,27,3,1,0,2,0.633155392625956,0.655100008231066
"1468",6,35,2,1,28,2,1,1,4,0.69198254080852,0.72911932325063
"1469",6,38,2,2,29,2,2,1,4,0.480062623800568,0.493464515889184
"1470",6,34,2,1,30,3,1,1,3,0.93484498034414,0.996336670799279
"1471",6,33,2,2,31,3,2,1,3,0.990357638829902,1.05796532898844
"1472",6,27,2,2,32,1,2,1,5,0.353269091816329,0.321116822962521
"1473",6,18,2,1,33,3,1,1,3,0.736678127187188,0.685546368486118
"1474",6,37,2,2,34,3,2,1,3,1.1228518563864,1.04125374253197
"1475",6,31,2,2,35,1,2,1,4,0.539191112810538,0.528262245905969
"1476",6,21,2,2,36,1,2,1,4,0.253242186257427,0.233472958372231
"1477",6,38,2,2,37,2,1,0,2,0.630695893949033,0.61375076012668
"1478",6,35,2,1,38,3,1,1,2,0.937247040574658,0.985128853402522
"1479",6,38,2,2,39,3,2,1,2,0.889576788119703,0.901392348546712
"1480",6,34,2,2,40,1,2,1,4,0.501043844418538,0.501720408146335
"1481",6,33,2,1,41,3,1,1,2,0.649822579629056,0.656082585342076
"1482",6,27,2,2,42,3,2,1,3,1.07881237415338,1.07726407548356
"1483",6,18,2,1,43,2,1,1,4,0.911332880671903,0.84517436814751
"1484",6,37,2,2,44,2,2,1,4,0.659858816094364,0.690027442719406
"1485",6,31,2,1,45,2,2,0,2,0.77499669458995,0.834666413570906
"1486",6,21,2,1,46,1,1,1,4,0.393186065291051,0.387775063249805
"1487",6,38,2,2,47,3,2,1,3,0.927339781327421,0.994384472984084
"1488",6,35,2,2,48,2,2,1,3,0.608425325799533,0.603877794721995
"1489",6,38,2,2,49,1,1,0,3,0.538995332602547,0.554002195294895
"1490",6,34,2,2,50,2,1,0,2,0.409029664241605,0.453496794564663
"1491",6,33,2,2,51,1,2,1,5,0.388983271178758,0.336620481412693
"1492",6,27,2,1,52,1,1,1,5,0.444918700838451,0.595002596122087
"1493",6,18,2,1,53,3,2,0,2,1.20545085587611,1.25608764787427
"1494",6,37,2,2,54,2,1,0,3,0.54526113418241,0.612570389242949
"1495",6,31,2,2,55,3,2,1,3,0.450778661252667,0.594890828266716
"1496",6,21,2,2,56,3,1,0,1,0.465365164103059,0.349538787749296
"1497",6,38,2,2,57,2,2,1,3,0.583187822553,0.611429054918409
"1498",6,35,2,1,58,3,2,0,1,0.556139780828632,0.526659440845769
"1499",6,38,2,2,59,3,2,1,2,0.469657803139499,0.512130805305085
"1500",6,34,2,1,60,1,1,1,4,0.44842055771046,0.536762039532831
"1501",6,33,2,2,61,2,2,1,4,0.584656346129393,0.605860662397332
"1502",6,27,2,1,62,1,2,0,4,0.709068274247987,0.752968381022114
"1503",6,18,2,2,63,2,2,1,3,0.505298028107118,0.414651976511749
"1504",6,37,2,1,64,1,1,1,4,0.379060582154364,0.326609819336076
"1505",6,31,2,2,65,3,1,0,2,0.800299475355103,0.848697511846852
"1506",6,21,2,2,66,1,2,1,4,0.423135206186609,0.384332848040955
"1507",6,38,2,2,67,3,1,0,2,0.823807036126807,0.772787675107327
"1508",6,35,2,1,68,1,1,1,5,0.467988863705388,0.560947705979848
"1509",6,38,2,1,69,2,2,0,3,0.63907970938211,0.61263863511029
"1510",6,34,2,2,70,3,1,0,1,1.25693464128644,1.22227646777044
"1511",6,33,2,2,71,3,2,1,2,1.15702412410349,1.22014852597907
"1512",6,27,2,1,72,3,1,1,3,0.666471712150941,0.655784194501611
"1513",6,18,2,2,73,2,2,1,3,0.806674422412019,0.780247607087884
"1514",6,37,2,1,74,1,1,1,4,0.505809253081548,0.424988994981197
"1515",6,31,2,1,75,1,2,0,3,0.443060768727824,0.43047682840719
"1516",6,21,2,2,76,1,2,1,5,0.496552547884305,0.416944650453249
"1517",6,38,2,2,77,2,1,0,3,0.668160997384419,0.567070778513305
"1518",6,35,2,2,78,2,1,0,3,0.443170779754518,0.466826665580121
"1519",6,38,2,2,79,2,2,1,3,0.593440421266239,0.56804997319501
"1520",6,34,2,2,80,3,1,0,1,1.31523444684973,1.20215546459469
"1521",6,33,2,1,81,1,2,0,4,0.582431502671152,0.534250182033243
"1522",6,27,2,1,82,1,2,0,3,0.63744221427708,0.670691594227592
"1523",6,18,2,1,83,1,1,1,4,0.485369656688211,0.529529023031685
"1524",6,37,2,1,84,3,1,1,2,0.85011707555027,0.791712595491998
"1525",6,31,2,1,85,2,2,0,3,0.781171324912079,0.742076310314178
"1526",6,21,2,2,86,1,2,1,4,0.445729573240984,0.48795960065467
"1527",6,38,2,2,87,1,2,1,5,0.37117800006891,0.379022145464665
"1528",6,35,2,2,88,3,1,0,2,0.960856287625555,0.960726693039078
"1529",6,38,2,2,89,3,1,0,1,0.292780639073467,0.336912301631555
"1530",6,34,2,2,90,3,1,0,2,1.188282266727,1.17795844867212
"1531",6,33,2,1,91,3,1,1,2,1.08213849017359,1.06172617292739
"1532",6,27,2,1,92,2,2,0,3,0.733543889199399,0.725807224285299
"1533",6,18,2,1,93,1,1,1,4,0.350094413818698,0.389685764744422
"1534",6,37,2,1,94,3,1,1,3,0.843284367095503,0.932890834159181
"1535",6,31,2,2,95,3,1,0,1,0.981898250625864,1.00465617686551
"1536",6,21,2,2,96,3,1,0,2,1.09727924361732,1.09592588821863
"1537",6,38,2,1,97,1,1,1,4,0.365537056901511,0.346316184887041
"1538",6,35,2,1,98,1,1,1,5,0.489617762401573,0.462236775378444
"1539",6,38,2,2,99,1,2,1,5,0.359775134475616,0.333511342413256
"1540",6,34,2,1,100,1,2,0,3,0.561109296111588,0.608205066317669
"1541",6,33,2,1,101,3,1,1,3,0.47221238079325,0.527207003844611
"1542",6,27,2,1,102,2,2,0,2,0.672338738345904,0.718155579422482
"1543",6,18,2,2,103,3,1,0,2,1.20079600306021,1.25140191339563
"1544",6,37,2,2,104,1,2,1,4,0.543315116450589,0.545128787159619
"1545",6,31,2,2,105,2,2,1,4,0.577420393553489,0.598586674472592
"1546",6,21,2,2,106,2,2,1,4,0.635798677832187,0.734623369695689
"1547",6,38,2,1,107,1,1,1,4,0.417069746159717,0.524380720244012
"1548",6,35,2,2,108,1,1,0,3,0.561639400455706,0.546991758846541
"1549",6,38,2,1,109,2,2,0,2,0.729348259417464,0.750503957330132
"1550",6,34,2,2,110,3,1,0,1,0.714177483253376,0.747500679561866
"1551",6,33,2,1,111,2,1,1,3,0.44788726548984,0.330147961458665
"1552",6,27,2,1,112,2,1,1,4,0.673418164440661,0.669963738107711
"1553",6,18,2,1,113,3,2,0,1,1.64934168372303,1.58828248755953
"1554",6,37,2,1,114,3,1,1,3,0.392204866285938,0.411943206199695
"1555",6,31,2,2,115,3,2,1,3,0.858940794707269,0.861281911974048
"1556",6,21,2,2,116,2,1,0,2,0.696438966985921,0.68432195938617
"1557",6,38,2,1,117,1,1,1,4,0.293274487513971,0.319230838695178
"1558",6,35,2,2,118,3,2,1,3,0.545859006619132,0.500199938758618
"1559",6,38,2,1,119,3,2,0,1,1.12127677747221,1.10588354391455
"1560",6,34,2,1,120,3,1,1,3,0.425511187682777,0.361448784292717
"1561",6,33,2,1,121,2,1,1,3,0.710928132730733,0.740505511922503
"1562",6,27,2,1,122,2,1,1,4,0.475165878690085,0.49374902413669
"1563",6,18,2,1,123,3,2,0,2,1.48735228163522,1.37617180304822
"1564",6,37,2,1,124,1,1,1,4,0.356896118082042,0.306475083865314
"1565",6,31,2,2,125,2,1,0,3,0.723386031472775,0.79399421427057
"1566",6,21,2,1,126,2,1,1,4,0.418143895224357,0.382480471373817
"1567",6,38,2,1,127,1,1,1,5,0.360512865851039,0.357843854859561
"1568",6,35,2,1,128,1,1,1,4,0.55933819738095,0.626129954064588
"1569",6,38,2,1,129,2,2,0,2,0.684704246692626,0.683181603682682
"1570",6,34,2,1,130,1,1,1,4,0.316824604930207,0.317777814687775
"1571",6,33,2,1,131,2,1,1,4,0.761261835021647,0.798603423045738
"1572",6,27,2,2,132,1,2,1,4,0.386266343777847,0.430098760819692
"1573",6,18,2,2,133,1,2,1,4,0.366843375787272,0.323690246496971
"1574",6,37,2,2,134,1,2,1,5,0.354114796671236,0.374052281387049
"1575",6,31,2,2,135,3,2,1,3,0.498679118741025,0.48568781366103
"1576",6,21,2,1,136,2,1,1,4,0.661751995290277,0.709001454169576
"1577",6,38,2,1,137,3,2,0,2,0.879192271758916,0.901991765703062
"1578",6,35,2,2,138,1,2,1,5,0.422699820887377,0.324353966123612
"1579",6,38,2,1,139,1,1,1,5,0.433099859289096,0.393379990213543
"1580",6,34,2,1,140,2,2,0,2,0.882790134872455,0.894153784703605
"1581",6,33,2,1,141,2,2,0,2,0.869760265231231,0.840502426369268
"1582",6,27,2,2,142,2,2,1,4,0.866527472973808,0.897817489625824
"1583",6,18,2,2,143,3,1,0,1,0.16058712511662,0.197800139895925
"1584",6,37,2,2,144,3,2,1,2,0.678513293068906,0.76659324760857
"1585",6,31,2,2,145,2,1,0,3,0.159429622997681,0.173922242355041
"1586",6,21,2,1,146,1,1,1,5,0.376815976206802,0.383743394287473
"1587",6,38,2,2,147,1,2,1,5,0.350137006869499,0.403351549069651
"1588",6,35,2,1,148,3,1,1,3,0.754067211469087,0.750357398490844
"1589",6,38,2,2,149,3,1,0,2,0.676671860034727,0.693143201056949
