"","subj_no","age","group","stim","trial","difficulty","resp","corr","conf","RT_day1","RT_day2"
"1",13,23,1,1,1,1,1,1,4,0.325104332330667,0.338131623800354
"2",13,30,1,2,2,1,2,1,4,0.47972621636328,0.448774583216977
"3",13,21,1,2,3,3,1,0,2,0.815451014904405,0.825622063666337
"4",13,18,1,1,4,3,1,1,2,0.868755543112662,0.947457993040031
"5",13,35,1,2,5,1,2,1,5,0.337053609549962,0.345185712501566
"6",13,29,1,2,6,1,1,0,4,0.781248967388369,0.760158248685654
"7",13,32,1,2,7,3,2,1,2,1.093386434462,1.0172240756279
"8",13,39,1,2,8,1,1,0,3,0.449347021484175,0.46059684958579
"9",13,26,1,2,9,1,2,1,4,0.474245393249129,0.494538073004184
"10",13,18,1,1,10,3,2,0,1,0.710406478448052,0.698946302778527
"11",13,23,1,1,11,1,1,1,4,0.381106107325638,0.418425302083382
"12",13,30,1,2,12,2,1,0,2,0.652678854484621,0.628260533524601
"13",13,21,1,1,13,2,1,1,3,0.556064959563645,0.610472326298551
"14",13,18,1,1,14,1,2,0,4,0.545566826774092,0.523766619217357
"15",13,35,1,2,15,1,2,1,5,0.315819996329037,0.315809646789625
"16",13,29,1,1,16,1,2,0,3,0.330949990813138,0.335576629190097
"17",13,32,1,2,17,1,2,1,4,0.305463780358429,0.241261865951848
"18",13,39,1,2,18,2,2,1,4,0.569678751873449,0.592866758805376
"19",13,26,1,2,19,2,1,0,2,0.84810872189648,0.731729159791091
"20",13,18,1,2,20,3,1,0,2,0.977926703931213,0.999602541025059
"21",13,23,1,1,21,1,1,1,5,0.471325396931967,0.565601600161742
"22",13,30,1,2,22,3,1,0,1,0.970141317612958,1.03667331549197
"23",13,21,1,2,23,1,1,0,4,0.581612066969819,0.654044597952574
"24",13,18,1,2,24,3,1,0,2,1.08099641915544,1.12171691799513
"25",13,35,1,1,25,3,2,0,2,1.40858052292977,1.37762112820575
"26",13,29,1,2,26,2,2,1,4,0.706750153919343,0.748378105789244
"27",13,32,1,2,27,3,2,1,3,0.405920937285911,0.367361880047456
"28",13,39,1,2,28,1,2,1,5,0.473810415103186,0.449647371007299
"29",13,26,1,2,29,1,1,0,4,0.380035855164952,0.354450137284645
"30",13,18,1,1,30,3,2,0,1,0.938860816292908,0.886222328930529
"31",13,23,1,1,31,3,2,0,2,1.1672023502897,1.14704174951324
"32",13,30,1,1,32,1,1,1,5,0.409088008711809,0.421899007283142
"33",13,21,1,2,33,1,2,1,5,0.350966949934445,0.401239654659353
"34",13,18,1,2,34,3,2,1,2,0.592972300046028,0.576655559337076
"35",13,35,1,2,35,1,1,0,4,0.557070402405995,0.587210193305007
"36",13,29,1,2,36,2,2,1,3,0.493436964887468,0.510191327894679
"37",13,32,1,2,37,2,1,0,3,0.758873973747948,0.77435139220257
"38",13,39,1,2,38,1,2,1,4,0.372661816873452,0.352639394069836
"39",13,26,1,1,39,2,1,1,4,0.888855362829235,0.919162553704317
"40",13,18,1,1,40,2,1,1,4,0.542831540284056,0.522576846415902
"41",13,23,1,2,41,2,1,0,2,0.51374423759186,0.591509360907813
"42",13,30,1,1,42,2,2,0,3,0.903624402159426,0.92192078002098
"43",13,21,1,2,43,1,2,1,5,0.579982801237327,0.626211734785082
"44",13,18,1,1,44,3,2,0,1,1.33518696315927,1.40541783166375
"45",13,35,1,2,45,2,1,0,2,0.952749431213942,0.910158054999867
"46",13,29,1,1,46,1,1,1,5,0.451817516818638,0.490240309168794
"47",13,32,1,2,47,2,1,0,2,0.684039972980002,0.669444827034888
"48",13,39,1,2,48,2,2,1,4,0.390666624694229,0.397188512133953
"49",13,26,1,1,49,1,2,0,3,0.52613566646417,0.554195816495264
"50",13,18,1,2,50,2,2,1,4,0.717432741207732,0.736633143579871
"51",13,23,1,1,51,3,2,0,2,0.749000679199161,0.660714679264716
"52",13,30,1,1,52,1,2,0,3,0.587327636082215,0.55772355701017
"53",13,21,1,1,53,1,1,1,5,0.441623706183182,0.431810210619325
"54",13,18,1,1,54,1,1,1,5,0.38619116411353,0.440827637342624
"55",13,35,1,1,55,1,1,1,4,0.314196425790778,0.365311086397098
"56",13,29,1,1,56,1,1,1,4,0.421001347143799,0.369717401319785
"57",13,32,1,2,57,3,1,0,2,0.741100512768426,0.741353496638103
"58",13,39,1,2,58,3,1,0,2,0.433541758021792,0.47110106675753
"59",13,26,1,1,59,3,2,0,2,0.80866904188779,0.782032732445409
"60",13,18,1,2,60,2,1,0,2,0.738280258478555,0.736209561325514
"61",13,23,1,1,61,2,2,0,3,0.57843122756134,0.566328475378398
"62",13,30,1,2,62,3,1,0,2,0.137327108452292,0.119853071132925
"63",13,21,1,2,63,3,1,0,1,0.693675199872387,0.855048106505462
"64",13,18,1,2,64,3,1,0,1,1.04380207941768,1.1144306506217
"65",13,35,1,1,65,2,1,1,3,0.666781536792854,0.686473385216431
"66",13,29,1,1,66,1,1,1,4,0.41148503342767,0.438486474687197
"67",13,32,1,2,67,3,1,0,2,1.2388986592558,1.26981144845228
"68",13,39,1,2,68,1,2,1,4,0.454842998260465,0.460232702195898
"69",13,26,1,2,69,2,1,0,3,0.644235022562513,0.613397106970981
"70",13,18,1,1,70,1,1,1,5,0.344708940811928,0.417623874510796
"71",13,23,1,1,71,1,1,1,4,0.485189195792769,0.500644813758629
"72",13,30,1,2,72,2,2,1,4,0.460559267530093,0.488846557169021
"73",13,21,1,1,73,3,1,1,3,0.511667108130314,0.481534640071361
"74",13,18,1,1,74,2,1,1,4,0.630415173219992,0.673820166569534
"75",13,35,1,2,75,3,1,0,1,1.1546597526157,1.10640411360898
"76",13,29,1,1,76,2,1,1,4,0.920990227607258,0.930098718711427
"77",13,32,1,1,77,2,2,0,2,0.843305246098896,0.828862197627532
"78",13,39,1,2,78,1,2,1,4,0.331913449632163,0.366128938083659
"79",13,26,1,2,79,1,2,1,5,0.37065559165673,0.388166590745828
"80",13,18,1,2,80,3,1,0,2,0.796480267576232,0.800803244539622
"81",13,23,1,1,81,3,2,0,1,0.815410991061517,0.749784464657851
"82",13,30,1,2,82,1,2,1,4,0.33989491453096,0.3153699407842
"83",13,21,1,1,83,2,1,1,3,0.590172423312007,0.51001759075167
"84",13,18,1,2,84,1,2,1,5,0.51475723952413,0.512278386983607
"85",13,35,1,1,85,3,2,0,1,1.12601809962801,1.09764395988959
"86",13,29,1,2,86,3,2,1,2,0.727185832222075,0.695480715879727
"87",13,32,1,1,87,3,2,0,1,0.980744524154012,0.989840897838864
"88",13,39,1,2,88,1,2,1,4,0.356970101312672,0.366960328602396
"89",13,26,1,1,89,2,2,0,2,0.715420109995669,0.71600524198587
"90",13,18,1,1,90,3,2,0,1,0.407697900449013,0.344353069112615
"91",13,23,1,1,91,2,1,1,3,0.636609092187455,0.652523789285537
"92",13,30,1,2,92,2,1,0,2,0.696095503850959,0.653399239184014
"93",13,21,1,1,93,3,1,1,3,0.793630584977112,0.793541092880021
"94",13,18,1,2,94,3,1,0,2,0.873967353250593,0.849877939714675
"95",13,35,1,2,95,2,1,0,3,0.684706614217898,0.645246652806836
"96",13,29,1,2,96,3,1,0,1,1.14709262765088,1.13125734996642
"97",13,32,1,2,97,2,2,1,4,0.538040550939761,0.594032502210474
"98",13,39,1,2,98,2,1,0,3,0.72290072684811,0.725179470775753
"99",13,26,1,1,99,3,2,0,1,1.06937308120219,1.1207600506994
"100",13,18,1,1,100,1,2,0,3,0.45576631773055,0.37560758005741
"101",13,23,1,1,101,1,1,1,5,0.562778937911228,0.512537254247728
"102",13,30,1,1,102,3,2,0,2,1.07086733590356,1.0096369250661
"103",13,21,1,2,103,3,1,0,1,1.7663623548376,1.8149237449841
"104",13,18,1,2,104,3,2,1,2,0.818915774609387,0.78642530388331
"105",13,35,1,2,105,3,1,0,1,0.992914355368265,0.917182910842465
"106",13,29,1,2,106,3,2,1,3,1.02713723598957,1.05971915719583
"107",13,32,1,2,107,3,1,0,1,1.50266971221778,1.5628817746081
"108",13,39,1,2,108,3,2,1,2,0.708773728084091,0.701691827925102
"109",13,26,1,1,109,2,2,0,2,0.622989644029462,0.646331154053201
"110",13,18,1,1,110,2,2,0,3,0.711280092319219,0.676211853404747
"111",13,23,1,1,111,1,1,1,5,0.336144810115452,0.20576318622712
"112",13,30,1,1,112,3,1,1,3,0.36155650200205,0.305028258267459
"113",13,21,1,1,113,3,1,1,3,0.650912984351757,0.585277965172182
"114",13,18,1,2,114,1,2,1,4,0.578333643515895,0.568067263046165
"115",13,35,1,1,115,2,1,1,4,0.698482854592618,0.772937426699122
"116",13,29,1,1,116,1,2,0,4,0.691244104918342,0.746617614598933
"117",13,32,1,2,117,1,2,1,5,0.504527529621891,0.515745397997763
"118",13,39,1,2,118,2,1,0,3,0.617320728828795,0.744989945589831
"119",13,26,1,1,119,1,1,1,5,0.324115043663571,0.4093791444386
"120",13,18,1,1,120,1,2,0,4,0.576403761357406,0.560329098980834
"121",13,23,1,1,121,1,1,1,4,0.395465092027263,0.345213603750627
"122",13,30,1,2,122,3,1,0,2,1.33997938674654,1.34864785598812
"123",13,21,1,1,123,1,1,1,4,0.317773475582135,0.285152694471135
"124",13,18,1,1,124,2,2,0,3,0.591060881719378,0.500286002038569
"125",13,35,1,2,125,3,2,1,2,0.584979672960651,0.559471739970042
"126",13,29,1,2,126,3,1,0,1,1.23771311217249,1.22784291844519
"127",13,32,1,2,127,1,2,1,4,0.436552182486233,0.425695128196671
"128",13,39,1,1,128,1,1,1,4,0.397412985429293,0.352880918985893
"129",13,26,1,2,129,1,2,1,5,0.333926953779825,0.329496467280947
"130",13,18,1,2,130,2,2,1,3,0.642095126511883,0.670889118956074
"131",13,23,1,1,131,3,1,1,2,0.404868871392292,0.378059607510388
"132",13,30,1,1,132,3,2,0,1,0.686714215056554,0.646944787663929
"133",13,21,1,1,133,1,1,1,5,0.367074045885228,0.333077486520035
"134",13,18,1,2,134,2,2,1,3,0.81112286721246,0.823927744185498
"135",13,35,1,2,135,1,2,1,5,0.292784841856261,0.320170607141481
"136",13,29,1,2,136,1,2,1,5,0.352038956234055,0.372811770279112
"137",13,32,1,2,137,1,2,1,4,0.379791796871914,0.340766672925454
"138",13,39,1,2,138,2,2,1,3,0.493975287644912,0.433458776232585
"139",13,26,1,2,139,1,2,1,4,0.439524088386491,0.408223958455948
"140",13,18,1,1,140,1,2,0,4,0.693151537430911,0.667993973808375
"141",13,23,1,1,141,2,1,1,4,0.403924174578544,0.31117929436005
"142",13,30,1,1,142,3,1,1,3,1.03347503279247,1.01342156210535
"143",13,21,1,1,143,2,1,1,3,0.72474096015481,0.739218714141416
"144",13,18,1,2,144,1,2,1,4,0.438550972713521,0.415711334946295
"145",13,35,1,2,145,3,1,0,1,0.128455720854199,0.0488490171609987
"146",13,29,1,1,146,3,2,0,2,0.136262621152977,0.12744631558152
"147",13,32,1,1,147,3,2,0,2,1.29897624679005,1.30966746242703
"148",13,39,1,1,148,3,2,0,2,0.487143172882349,0.474304732970021
"149",13,26,1,2,149,3,2,1,3,0.749044407811845,0.687320168778444
"150",13,18,1,2,150,3,2,1,3,0.938331443976903,0.90055318380532
"151",13,23,1,1,151,3,1,1,2,0.974448300930571,0.890400644334149
"152",13,30,1,1,152,1,1,1,4,0.426618764226799,0.45028957628957
"153",13,21,1,2,153,3,1,0,1,1.34339454227865,1.39354217109183
"154",13,18,1,1,154,3,1,1,3,0.681299614781615,0.643641053434082
"155",13,35,1,1,155,1,1,1,5,0.292935858312778,0.348179549992814
"156",13,29,1,1,156,1,2,0,4,0.616908744722006,0.651047004413507
"157",13,32,1,2,157,3,1,0,1,0.438328408186384,0.446088281673605
"158",13,39,1,1,158,1,1,1,4,0.359761714480727,0.375539447302389
"159",13,26,1,1,159,1,1,1,4,0.282487493924439,0.357585622819057
"160",13,18,1,1,160,1,1,1,5,0.277426320589576,0.27196449532308
"161",13,23,1,1,161,3,1,1,3,0.859497790564514,0.834845701080697
"162",13,30,1,1,162,1,1,1,4,0.298471507395767,0.3338993863129
"163",13,21,1,2,163,1,2,1,4,0.481970891319669,0.455134028666577
"164",13,18,1,1,164,2,1,1,3,0.378718930897276,0.333491982593652
"165",13,35,1,2,165,3,2,1,2,0.703313928841895,0.679914832581636
"166",13,29,1,2,166,1,2,1,4,0.45912170333933,0.494636591601442
"167",13,32,1,2,167,2,2,1,3,0.867885330205463,0.841414602694172
"168",13,39,1,1,168,2,2,0,3,0.789158312384576,0.854240259022183
"169",13,26,1,1,169,1,1,1,4,0.504368032207219,0.487267495664889
"170",13,18,1,2,170,3,2,1,3,0.978837925644516,0.963871144377957
"171",13,23,1,2,171,3,2,1,3,0.746962972193621,0.691783454267034
"172",13,30,1,2,172,2,2,1,4,0.503882015903239,0.501042985887012
"173",13,21,1,2,173,3,1,0,1,0.514361654039919,0.468058203945774
"174",13,18,1,1,174,1,1,1,5,0.519489685060501,0.432097868778889
"175",13,35,1,1,175,1,1,1,4,0.206221287468921,0.169321405487107
"176",13,29,1,2,176,2,1,0,3,0.823897614134126,0.782448725254539
"177",13,32,1,1,177,1,1,1,5,0.390248901085506,0.355854835934408
"178",13,39,1,2,178,2,2,1,4,0.622062335964133,0.610573986634688
"179",13,26,1,1,179,1,1,1,4,0.457925779176773,0.407788887266584
"180",13,18,1,1,180,2,2,0,3,0.732294261499379,0.759114439795214
"181",13,23,1,2,181,2,2,1,3,0.558047139300679,0.620191400568718
"182",13,30,1,2,182,2,2,1,3,0.406893746613416,0.443214212672847
"183",13,21,1,1,183,2,2,0,2,0.656189295397677,0.648791369828293
"184",13,18,1,2,184,2,2,1,4,0.538346770518032,0.610711210372274
"185",13,35,1,1,185,2,1,1,4,0.624399660370234,0.62265019683231
"186",13,29,1,1,186,2,1,1,3,0.576106861489193,0.549521494377542
"187",13,32,1,1,187,2,1,1,4,0.520111015012204,0.629292750325727
"188",13,39,1,1,188,2,1,1,4,0.529498364162808,0.461149628069273
"189",13,26,1,1,189,3,2,0,2,1.04600602416782,1.08324537071738
"190",13,18,1,1,190,2,1,1,4,0.414737136960849,0.361393783760999
"191",13,23,1,1,191,3,2,0,2,1.1698701553325,1.14601381133326
"192",13,30,1,1,192,2,2,0,3,0.670609122672923,0.667231236217969
"193",13,21,1,2,193,2,1,0,3,1.02542200830766,0.985735320031557
"194",13,18,1,2,194,2,2,1,4,0.732951569069617,0.729441300384218
"195",13,35,1,1,195,3,2,0,2,1.26800141272469,1.25752651495192
"196",13,29,1,1,196,3,2,0,1,0.792168447079492,0.817220620651043
"197",13,32,1,1,197,2,1,1,4,0.479508072251821,0.500904364790697
"198",13,39,1,2,198,3,1,0,1,0.635562601058843,0.576375108257436
"199",13,26,1,2,199,2,2,1,4,0.734852384188314,0.747291976306541
"200",13,18,1,2,200,3,1,0,1,0.741683100186554,0.729328370090877
"201",13,23,1,2,201,2,2,1,3,0.666759550121874,0.69014850102653
"202",13,30,1,1,202,2,1,1,4,0.556876093959954,0.466526246944101
"203",13,21,1,1,203,3,2,0,1,0.603817482218085,0.613596279509771
"204",13,18,1,1,204,1,1,1,5,0.30292137273104,0.261896574895939
"205",13,35,1,1,205,2,1,1,4,0.58423468265386,0.56574636180624
"206",13,29,1,2,206,1,2,1,5,0.424934071029045,0.429442023270871
"207",13,32,1,1,207,3,2,0,1,0.407106409643843,0.402646780572487
"208",13,39,1,1,208,2,1,1,4,0.39877666539798,0.484279043818617
"209",13,26,1,2,209,1,2,1,4,0.365132010359326,0.300126778548454
"210",13,18,1,2,210,3,2,1,3,0.856748519414449,0.834786748950926
"211",13,23,1,1,211,1,1,1,4,0.371972829972654,0.367104817928021
"212",13,30,1,1,212,3,2,0,1,0.706581675876315,0.779256156518221
"213",13,21,1,1,213,1,1,1,5,0.438269360377398,0.530482234359578
"214",13,18,1,1,214,2,1,1,4,0.596792195952633,0.603690558312627
"215",13,35,1,2,215,2,2,1,3,0.679201937798037,0.721255806359426
"216",13,29,1,1,216,2,1,1,4,0.740358123513377,0.74412911188927
"217",13,32,1,2,217,2,2,1,3,0.69659900370101,0.738469431447027
"218",13,39,1,2,218,1,1,0,3,0.621047638089712,0.661498660886044
"219",13,26,1,1,219,1,1,1,5,0.549742271702307,0.616987077530669
"220",13,18,1,1,220,2,2,0,2,0.60334836783728,0.484292681659003
"221",13,23,1,2,221,2,1,0,3,0.596829645428255,0.557979947412567
"222",13,30,1,2,222,3,2,1,2,0.600983758782822,0.57675175863903
"223",13,21,1,2,223,2,2,1,4,0.55475709101757,0.57307708481106
"224",13,18,1,2,224,3,1,0,2,1.37332203441881,1.45540201944681
"225",13,35,1,2,225,3,2,1,2,0.716514718043445,0.687597775844042
"226",13,29,1,1,226,2,1,1,3,0.556023932944376,0.640330933585567
"227",13,32,1,2,227,1,1,0,3,0.444088767346714,0.442674982026104
"228",13,39,1,1,228,3,1,1,2,0.801649490322217,0.802323508106083
"229",13,26,1,1,229,3,2,0,1,0.676185506142432,0.639769470475866
"230",13,18,1,2,230,2,1,0,2,0.498294478928806,0.460311238203653
"231",13,23,1,2,231,2,2,1,4,0.495899999249549,0.560215563947861
"232",13,30,1,2,232,2,1,0,2,0.899126041929886,0.828372664217931
"233",13,21,1,2,233,1,1,0,3,0.436070984618238,0.416589331462886
"234",13,18,1,2,234,3,1,0,2,1.37129038465993,1.39571008562786
"235",13,35,1,1,235,2,2,0,2,0.556704777885833,0.596372702730046
"236",13,29,1,1,236,2,1,1,3,0.50344101900386,0.546714554662819
"237",13,32,1,1,237,1,1,1,5,0.375615349675757,0.387930673553243
"238",13,39,1,1,238,2,1,1,3,0.5304992548614,0.497201559436658
"239",13,26,1,2,239,2,1,0,3,0.573269209763527,0.564555049751851
"240",13,18,1,1,240,3,2,0,1,1.1967518854289,1.20908465665479
"241",12,30,2,2,1,2,1,0,2,0.69254013744217,0.699624161374553
"242",12,18,2,1,2,1,1,1,4,0.366514027278789,0.371336670001635
"243",12,28,2,2,3,2,2,1,4,0.621424637189876,0.562327968904109
"244",12,24,2,1,4,3,2,0,1,1.15570285346568,1.14958346369311
"245",12,25,2,2,5,2,2,1,3,0.70568468268595,0.730809139123876
"246",12,21,2,2,6,2,1,0,3,0.918467186940805,0.888184883068289
"247",12,23,2,2,7,2,1,0,2,0.858462805357796,0.830627627652877
"248",12,36,2,2,8,2,2,1,4,0.57626143136053,0.573279438202423
"249",12,26,2,1,9,3,1,1,2,1.12132446886142,1.126377136613
"250",12,31,2,2,10,1,2,1,5,0.454713139182563,0.431113747429827
"251",12,30,2,1,11,3,1,1,3,0.915589075840603,0.953383081951287
"252",12,18,2,2,12,3,1,0,1,1.00212519736679,1.01891630189814
"253",12,28,2,1,13,2,1,1,3,0.765038765624711,0.814140334060399
"254",12,24,2,2,14,3,1,0,1,1.07939824116609,1.02441945780615
"255",12,25,2,1,15,2,2,0,3,0.605918488886516,0.596991343186599
"256",12,21,2,1,16,3,2,0,2,0.980467061727675,0.979207498017223
"257",12,23,2,2,17,1,2,1,5,0.374464891154662,0.360123178333099
"258",12,36,2,2,18,3,2,1,3,1.12556172508819,1.16544648102056
"259",12,26,2,1,19,1,1,1,4,0.397934836659037,0.378162582291439
"260",12,31,2,2,20,1,2,1,5,0.475737706668492,0.446481488866153
"261",12,30,2,1,21,2,2,0,3,0.552687047580198,0.537305612421345
"262",12,18,2,2,22,1,2,1,4,0.301748920149036,0.332036506335012
"263",12,28,2,2,23,3,1,0,2,1.18177088946603,1.17399831038717
"264",12,24,2,1,24,2,1,1,4,0.63123337031231,0.600405210074826
"265",12,25,2,1,25,1,1,1,5,0.278102877514525,0.286380890706046
"266",12,21,2,2,26,2,1,0,2,0.43406165005421,0.343416569926837
"267",12,23,2,1,27,3,2,0,1,0.578878900054093,0.614862041936945
"268",12,36,2,1,28,3,2,0,2,1.08230916377287,1.15875913795627
"269",12,26,2,2,29,3,2,1,2,0.880922447538383,0.828457046749638
"270",12,31,2,2,30,2,1,0,3,0.635727138938892,0.639878677649504
"271",12,30,2,1,31,1,2,0,3,0.657083591740499,0.609254108720772
"272",12,18,2,1,32,2,1,1,3,0.652503407289693,0.598359771673436
"273",12,28,2,1,33,3,2,0,1,0.635448278068808,0.675420193131611
"274",12,24,2,2,34,1,2,1,4,0.369464037776199,0.367298701022665
"275",12,25,2,1,35,1,1,1,5,0.459954124486868,0.544325854315807
"276",12,21,2,2,36,2,1,0,3,0.735844470581352,0.650998031615768
"277",12,23,2,1,37,3,1,1,3,0.588449018819233,0.55969957349845
"278",12,36,2,2,38,3,1,0,2,0.951442515433102,0.980687567142531
"279",12,26,2,1,39,1,1,1,4,0.383086796227868,0.395752028062473
"280",12,31,2,2,40,2,2,1,3,0.436242164277035,0.414301964019249
"281",12,30,2,1,41,3,2,0,2,1.33598951746875,1.36410173737044
"282",12,18,2,1,42,1,1,1,4,0.381349102602265,0.317774020594081
"283",12,28,2,2,43,3,1,0,1,0.668610134328451,0.685834825285955
"284",12,24,2,2,44,2,1,0,3,0.773510283239933,0.804150321214738
"285",12,25,2,2,45,2,2,1,3,0.73237587798783,0.669446910323867
"286",12,21,2,2,46,2,2,1,4,0.610619512713954,0.565807564223792
"287",12,23,2,1,47,2,1,1,3,0.496410804841782,0.607985191049376
"288",12,36,2,1,48,3,2,0,1,0.790808523121635,0.737930420873104
"289",12,26,2,2,49,3,2,1,3,0.915341845273688,0.844437648628002
"290",12,31,2,1,50,2,1,1,3,0.56739982182664,0.581844188769066
"291",12,30,2,1,51,2,2,0,2,0.826811919538766,0.826310505739202
"292",12,18,2,1,52,1,2,0,3,0.564900801114582,0.622015799666442
"293",12,28,2,1,53,1,2,0,3,0.508489963528504,0.495879026200067
"294",12,24,2,1,54,1,1,1,4,0.249119031828775,0.211137201666671
"295",12,25,2,1,55,3,2,0,1,0.936506508022187,0.976205737935428
"296",12,21,2,1,56,1,1,1,5,0.440931264277161,0.398925614314343
"297",12,23,2,1,57,2,1,1,4,0.670649348050877,0.665738168263802
"298",12,36,2,1,58,2,1,1,4,0.646719578623593,0.724201286108145
"299",12,26,2,2,59,1,2,1,4,0.421234301151258,0.463432727913848
"300",12,31,2,2,60,2,2,1,4,0.675527187482526,0.725568903582871
"301",12,30,2,2,61,1,2,1,5,0.355793605232249,0.38469890157017
"302",12,18,2,1,62,1,1,1,5,0.466599732824803,0.442476850082677
"303",12,28,2,1,63,2,2,0,2,0.908346751285998,0.950593778818735
"304",12,24,2,2,64,2,2,1,4,0.459754621794364,0.464185826673632
"305",12,25,2,2,65,1,2,1,4,0.326661150912431,0.342912938891238
"306",12,21,2,2,66,3,2,1,3,1.03294245994051,0.990952490641011
"307",12,23,2,1,67,3,1,1,2,0.749778407085641,0.728799323669317
"308",12,36,2,1,68,3,1,1,3,0.758366941081584,0.763774565040942
"309",12,26,2,2,69,3,2,1,2,0.72053528679887,0.640621091959797
"310",12,31,2,1,70,1,1,1,4,0.557437112051705,0.528571166550692
"311",12,30,2,2,71,1,2,1,5,0.412617719712736,0.414702282219172
"312",12,18,2,1,72,1,2,0,4,0.444185756721094,0.517589402527355
"313",12,28,2,2,73,1,2,1,4,0.450219687840065,0.410349240677594
"314",12,24,2,1,74,2,2,0,3,0.785713129243811,0.797323770353287
"315",12,25,2,2,75,1,1,0,3,0.691812541657611,0.752714277440582
"316",12,21,2,1,76,2,2,0,3,0.493055339126617,0.443159454628385
"317",12,23,2,2,77,1,2,1,5,0.367845530977216,0.379787109744052
"318",12,36,2,2,78,3,2,1,3,0.546324619219268,0.561592320732012
"319",12,26,2,1,79,2,1,1,4,0.602381609264214,0.644926277784297
"320",12,31,2,2,80,1,2,1,4,0.384455401395817,0.4490661293495
"321",12,30,2,1,81,1,1,1,5,0.428972495845009,0.426858708184298
"322",12,18,2,1,82,3,1,1,3,0.554898421448851,0.565236943116298
"323",12,28,2,2,83,2,1,0,3,0.57632622150676,0.508077035924469
"324",12,24,2,2,84,3,1,0,2,0.983514384193488,0.933798231680157
"325",12,25,2,1,85,3,1,1,3,0.875167835882108,0.986035024372421
"326",12,21,2,1,86,3,1,1,2,0.800797957416506,0.806489694261954
"327",12,23,2,2,87,3,2,1,3,0.79431607246146,0.710939114852982
"328",12,36,2,1,88,3,1,1,3,0.944229790820312,0.940926066946207
"329",12,26,2,2,89,3,1,0,2,1.24101378986016,1.19926874841763
"330",12,31,2,2,90,1,1,0,4,0.516252330853755,0.609610826731428
"331",12,30,2,2,91,2,1,0,2,0.476654061014171,0.501379842988667
"332",12,18,2,1,92,3,2,0,2,1.08783165493677,1.13680605697751
"333",12,28,2,2,93,2,2,1,3,0.606009388156827,0.541452816774508
"334",12,24,2,2,94,2,2,1,3,0.545670931619979,0.588861445622656
"335",12,25,2,2,95,2,1,0,3,0.648150588076173,0.640103147648784
"336",12,21,2,2,96,2,2,1,4,0.723460753378882,0.740084586572135
"337",12,23,2,1,97,2,2,0,2,0.769745157898102,0.693232702010313
"338",12,36,2,2,98,2,2,1,3,0.604427451956667,0.552763642751455
"339",12,26,2,2,99,1,2,1,4,0.293362929313187,0.250255652073435
"340",12,31,2,1,100,2,1,1,3,0.635744623942142,0.6179558350645
"341",12,30,2,2,101,1,2,1,4,0.308573825221758,0.226093589681217
"342",12,18,2,1,102,1,1,1,4,0.488002949785604,0.422526984202648
"343",12,28,2,2,103,1,2,1,5,0.324769823337913,0.321614037508532
"344",12,24,2,1,104,1,1,1,4,0.397792868474492,0.498742101868273
"345",12,25,2,2,105,2,1,0,2,0.69127065028612,0.620476123490851
"346",12,21,2,2,106,2,1,0,3,0.776693878269256,0.696809534048127
"347",12,23,2,1,107,3,1,1,2,0.628039040097565,0.670596781585151
"348",12,36,2,1,108,3,1,1,3,1.19372312063126,1.15337135637618
"349",12,26,2,1,109,2,1,1,3,0.501195738499115,0.446527906517468
"350",12,31,2,1,110,1,1,1,5,0.361147274496831,0.395216468307851
"351",12,30,2,1,111,3,2,0,1,0.616250513274011,0.554858532802987
"352",12,18,2,1,112,3,2,0,2,0.825959858535479,0.892116673370715
"353",12,28,2,2,113,2,1,0,2,0.821083318633356,0.768923491127499
"354",12,24,2,2,114,1,2,1,4,0.297974036791152,0.314893605482064
"355",12,25,2,2,115,1,2,1,4,0.494027933860285,0.515533460528314
"356",12,21,2,2,116,1,1,0,3,0.615780328084927,0.662626880826255
"357",12,23,2,1,117,2,1,1,3,0.596990985618575,0.623847868884343
"358",12,36,2,2,118,2,1,0,2,0.801561626666668,0.741531000546595
"359",12,26,2,2,119,3,1,0,1,1.40442612212835,1.40014875245122
"360",12,31,2,2,120,3,2,1,2,0.78346106261742,0.799823233847153
"361",12,30,2,1,121,3,2,0,2,0.747587218570988,0.725385355449607
"362",12,18,2,1,122,1,2,0,4,0.517028955912401,0.376123108898508
"363",12,28,2,2,123,3,1,0,2,0.83346083392066,0.816955497489059
"364",12,24,2,1,124,3,2,0,1,1.25867148058691,1.26988171714657
"365",12,25,2,2,125,1,2,1,4,0.507931082143425,0.5958023055647
"366",12,21,2,1,126,1,1,1,5,0.40826106107754,0.455362553417652
"367",12,23,2,2,127,1,2,1,4,0.473891425678299,0.522715825923582
"368",12,36,2,2,128,2,1,0,3,0.755069898747703,0.777574027069585
"369",12,26,2,1,129,1,1,1,4,0.374065598991402,0.352734028467965
"370",12,31,2,2,130,2,2,1,4,0.683793341908492,0.725557015210007
"371",12,30,2,1,131,2,1,1,3,0.684706695607563,0.68206601144068
"372",12,18,2,1,132,3,2,0,2,0.534905104007277,0.470130365344364
"373",12,28,2,1,133,3,2,0,2,0.681746523923094,0.703227029124378
"374",12,24,2,1,134,2,2,0,3,0.899544231353447,0.925703508510922
"375",12,25,2,2,135,2,1,0,2,0.598318938912484,0.580891166698157
"376",12,21,2,2,136,2,1,0,2,0.53413603412888,0.552880807461773
"377",12,23,2,2,137,2,2,1,3,0.639513991786775,0.594145884933669
"378",12,36,2,2,138,1,2,1,4,0.427873797622579,0.466502063539004
"379",12,26,2,1,139,2,1,1,4,0.616499603512841,0.620842493352002
"380",12,31,2,2,140,1,1,0,4,0.481993472099249,0.420161541852459
"381",12,30,2,1,141,3,1,1,3,0.683874680600369,0.644799152206254
"382",12,18,2,1,142,2,2,0,3,0.707711837172316,0.690303726850081
"383",12,28,2,2,143,3,1,0,2,1.00286129974618,1.01502420434115
"384",12,24,2,2,144,1,2,1,4,0.365814501731054,0.32207103986792
"385",12,25,2,1,145,3,2,0,1,0.824265876224032,0.754928845416744
"386",12,21,2,1,146,1,1,1,4,0.363380584089387,0.358443866736132
"387",12,23,2,1,147,2,2,0,3,0.562361030163686,0.638707467793133
"388",12,36,2,2,148,3,1,0,1,1.05965641531434,1.01192520911136
"389",12,26,2,2,149,3,1,0,1,0.752682522711262,0.764728971314786
"390",12,31,2,2,150,2,2,1,4,0.632940615971313,0.615235776519781
"391",12,30,2,2,151,1,2,1,5,0.419637648462034,0.3796528629907
"392",12,18,2,1,152,2,1,1,3,0.463129361438931,0.315153586783977
"393",12,28,2,1,153,3,2,0,1,1.47246679869349,1.48144997915637
"394",12,24,2,2,154,1,2,1,4,0.375249302624361,0.365030871798672
"395",12,25,2,1,155,3,2,0,1,1.00567326658391,0.97630501588327
"396",12,21,2,2,156,2,1,0,3,0.689284046979917,0.705735522093519
"397",12,23,2,2,157,1,1,0,4,0.502410514576103,0.627656736239659
"398",12,36,2,1,158,3,2,0,2,0.956469967277111,1.01174193036454
"399",12,26,2,1,159,2,1,1,3,0.633676742282029,0.617294302810081
"400",12,31,2,1,160,3,2,0,2,1.36672983901725,1.35909037234783
"401",12,30,2,1,161,3,2,0,2,0.951794350267387,0.991079277395698
"402",12,18,2,2,162,2,2,1,3,0.577808372050424,0.583849448965774
"403",12,28,2,1,163,1,1,1,5,0.338366021212688,0.289442136223478
"404",12,24,2,2,164,1,2,1,5,0.482151015459172,0.470387567132496
"405",12,25,2,2,165,1,2,1,4,0.335282234423093,0.415938477083587
"406",12,21,2,2,166,3,1,0,2,1.17576549711066,1.2434420347777
"407",12,23,2,1,167,3,2,0,1,1.01018661701305,1.03292688936725
"408",12,36,2,2,168,1,1,0,3,0.58500363064479,0.570068199187574
"409",12,26,2,1,169,3,2,0,2,0.923858882802857,0.943823676576627
"410",12,31,2,1,170,1,1,1,5,0.500895627470903,0.50891823969299
"411",12,30,2,1,171,1,1,1,5,0.368849264245087,0.434584453888539
"412",12,18,2,1,172,3,2,0,1,1.56706706996154,1.53670555697425
"413",12,28,2,1,173,1,1,1,4,0.510278378040565,0.488124914448943
"414",12,24,2,2,174,2,2,1,4,0.668747543739675,0.661489582023104
"415",12,25,2,1,175,3,2,0,2,0.94415337772218,0.92630553270063
"416",12,21,2,1,176,2,2,0,2,0.932131235343211,0.970604812323101
"417",12,23,2,2,177,2,1,0,2,0.498187919749326,0.517285475585709
"418",12,36,2,2,178,3,2,1,2,0.946579246352973,0.993006414281855
"419",12,26,2,2,179,1,2,1,4,0.459985485715646,0.385141964646182
"420",12,31,2,1,180,3,2,0,2,1.27108369194014,1.36445771987677
"421",12,30,2,2,181,1,2,1,4,0.461907651586843,0.373443913462879
"422",12,18,2,2,182,3,2,1,3,0.680271565950636,0.632548651905789
"423",12,28,2,2,183,1,2,1,5,0.453054187811975,0.455645786293311
"424",12,24,2,1,184,2,1,1,3,0.572063879283764,0.550159742805394
"425",12,25,2,2,185,3,1,0,2,1.30828788187218,1.3369381666005
"426",12,21,2,1,186,1,1,1,5,0.458084315093082,0.518678018089154
"427",12,23,2,2,187,2,1,0,3,0.651166258129183,0.628097219761839
"428",12,36,2,2,188,3,1,0,1,0.915473480258757,0.948522893597675
"429",12,26,2,2,189,2,2,1,4,0.589162993910484,0.538990963254485
"430",12,31,2,1,190,2,2,0,2,0.643446906836528,0.708769375212142
"431",12,30,2,2,191,1,2,1,4,0.480294248734542,0.444478390694202
"432",12,18,2,1,192,1,1,1,5,0.365609112224726,0.300922271613594
"433",12,28,2,1,193,3,1,1,3,0.900019605363683,0.896202991101748
"434",12,24,2,2,194,2,1,0,2,0.594822576374536,0.604716231429622
"435",12,25,2,2,195,2,1,0,2,0.875106128729456,0.836976848504699
"436",12,21,2,1,196,2,1,1,3,0.582284410772585,0.550754640528645
"437",12,23,2,2,197,2,2,1,4,0.443586201775544,0.487092508618881
"438",12,36,2,2,198,1,2,1,5,0.474898943509049,0.423972055742315
"439",12,26,2,2,199,2,2,1,3,0.773419065614442,0.773884088766249
"440",12,31,2,1,200,2,1,1,4,0.56758016730851,0.621848075945497
"441",12,30,2,1,201,3,1,1,3,0.917534241600402,0.929676389814577
"442",12,18,2,2,202,1,2,1,5,0.140698247043093,0.124053568304619
"443",12,28,2,1,203,3,2,0,1,0.746304738933532,0.752328937450031
"444",12,24,2,2,204,1,1,0,4,0.592648200920599,0.696954427725806
"445",12,25,2,1,205,2,1,1,3,0.970393051501346,1.00229610458715
"446",12,21,2,1,206,1,1,1,5,0.357750295485941,0.341013527287521
"447",12,23,2,2,207,3,1,0,2,0.190740352694732,0.213066722853937
"448",12,36,2,1,208,2,1,1,4,0.517689882520726,0.518437064995025
"449",12,26,2,1,209,3,2,0,2,1.08403477874029,1.10186309522722
"450",12,31,2,1,210,2,2,0,3,0.564630950442707,0.606747538613823
"451",12,30,2,1,211,2,1,1,4,0.408924674482834,0.372849671145009
"452",12,18,2,2,212,1,2,1,4,0.524080389734233,0.497394707529521
"453",12,28,2,1,213,3,1,1,3,0.507056156233658,0.473284213388917
"454",12,24,2,1,214,1,1,1,4,0.356660836376306,0.290021305410601
"455",12,25,2,1,215,1,2,0,3,0.533815655125602,0.591658213404243
"456",12,21,2,2,216,1,1,0,4,0.525510448486491,0.502069806722069
"457",12,23,2,2,217,1,2,1,4,0.31712496861197,0.323521954600709
"458",12,36,2,1,218,3,1,1,3,0.536269665539824,0.605001793545506
"459",12,26,2,2,219,1,1,0,3,0.459399720532995,0.457175186486734
"460",12,31,2,1,220,2,1,1,3,0.581952591747858,0.538585807663541
"461",12,30,2,1,221,3,2,0,1,1.20926978622501,1.13457712257453
"462",12,18,2,2,222,3,2,1,2,0.884189690953465,0.850955241934723
"463",12,28,2,1,223,3,2,0,2,1.28565141873258,1.35101129824869
"464",12,24,2,1,224,3,2,0,1,0.83607101862087,0.879880473207125
"465",12,25,2,2,225,1,2,1,4,0.300805620211858,0.345850275195276
"466",12,21,2,2,226,1,1,0,4,0.609334328054768,0.600297934195389
"467",12,23,2,2,227,2,2,1,3,0.697936450192747,0.585760039910313
"468",12,36,2,2,228,2,2,1,4,0.375623139077926,0.294917911587018
"469",12,26,2,2,229,1,2,1,4,0.373384980576569,0.439574057605748
"470",12,31,2,1,230,1,2,0,3,0.308644359485291,0.241540864029431
"471",12,30,2,1,231,3,2,0,1,1.11511790708433,1.06959617337312
"472",12,18,2,1,232,1,2,0,3,0.391127975096612,0.359336568202903
"473",12,28,2,1,233,3,2,0,1,1.07755486289501,0.99554632943236
"474",12,24,2,1,234,3,1,1,2,0.99561540750428,1.03610758204637
"475",12,25,2,2,235,1,2,1,5,0.429174392149685,0.424832301428169
"476",12,21,2,1,236,3,1,1,2,0.543679631230266,0.583662101008895
"477",12,23,2,1,237,2,2,0,3,0.712712881068425,0.669593655018043
"478",12,36,2,2,238,1,2,1,4,0.417975051819539,0.374603317873307
"479",12,26,2,2,239,3,2,1,3,0.885817608591661,0.885601425701479
"480",12,31,2,2,240,3,1,0,1,1.42032494026364,1.33685240066488
"481",11,27,1,2,1,3,2,1,3,0.925495095702228,0.975708041214951
"482",11,40,1,2,2,1,2,1,4,0.393506989447055,0.413194442536755
"483",11,30,1,1,3,3,2,0,1,0.323540230936726,0.331734332515546
"484",11,33,1,1,4,2,2,0,2,0.63139045898285,0.559868131554031
"485",11,19,1,1,5,2,1,1,4,0.681398720870423,0.662021367666892
"486",11,30,1,2,6,2,2,1,3,0.546604954183163,0.535997098179182
"487",11,31,1,2,7,2,2,1,3,0.550618885281436,0.516598603166206
"488",11,34,1,1,8,2,2,0,2,0.555388236821051,0.571251473628237
"489",11,34,1,1,9,2,1,1,3,0.685306314583162,0.550157649025529
"490",11,38,1,2,10,2,1,0,2,0.731342206185774,0.695220923456385
"491",11,27,1,2,11,3,2,1,3,0.702996104274952,0.726059057279474
"492",11,40,1,1,12,1,1,1,4,0.423219800228444,0.348083778891074
"493",11,30,1,2,13,2,2,1,3,0.334445547298145,0.328834686876327
"494",11,33,1,1,14,1,2,0,4,0.577994498166345,0.621909025722077
"495",11,19,1,2,15,1,1,0,4,0.491545336968968,0.501703473138532
"496",11,30,1,2,16,2,2,1,4,0.461474706024796,0.433745995141831
"497",11,31,1,2,17,2,1,0,2,0.678844737214879,0.747125694801399
"498",11,34,1,1,18,3,2,0,1,1.30733181323171,1.25077680327267
"499",11,34,1,2,19,2,2,1,4,0.48917086033443,0.473028205284014
"500",11,38,1,1,20,1,1,1,4,0.458250028835056,0.555413336928298
"501",11,27,1,1,21,2,2,0,3,0.555677718941379,0.493725227147899
"502",11,40,1,1,22,2,1,1,4,0.496971080203463,0.552562208392323
"503",11,30,1,1,23,1,1,1,4,0.31043010802718,0.291615242177294
"504",11,33,1,1,24,3,2,0,1,1.45900077861342,1.41159642699377
"505",11,19,1,2,25,1,2,1,4,0.413894733382141,0.468788197948307
"506",11,30,1,2,26,3,2,1,3,0.50764260174355,0.421697744562602
"507",11,31,1,1,27,1,1,1,4,0.40001243587207,0.450782646295243
"508",11,34,1,2,28,1,2,1,4,0.37181561342164,0.386860902385491
"509",11,34,1,2,29,3,2,1,2,0.733841065711314,0.816208320983377
"510",11,38,1,1,30,1,1,1,5,0.366765023827756,0.332512139859966
"511",11,27,1,1,31,3,2,0,2,0.767996515982732,0.72925537481923
"512",11,40,1,1,32,1,1,1,4,0.299413330066563,0.25442772019842
"513",11,30,1,1,33,1,1,1,4,0.30521892997413,0.266813461962863
"514",11,33,1,2,34,2,1,0,2,0.589128827451243,0.632079016062332
"515",11,19,1,1,35,3,1,1,3,0.649353119401658,0.665640088242498
"516",11,30,1,1,36,3,1,1,2,0.466178698365223,0.549631726616561
"517",11,31,1,2,37,3,2,1,3,0.925215671980133,0.925522812829923
"518",11,34,1,2,38,2,2,1,3,0.656862679504538,0.64480465399599
"519",11,34,1,2,39,1,1,0,4,0.585502761979915,0.552978958722745
"520",11,38,1,2,40,2,1,0,3,0.683159131571327,0.655862776590819
"521",11,27,1,1,41,3,1,1,2,1.0697003416531,1.0352399262845
"522",11,40,1,1,42,2,1,1,3,0.687890002010034,0.683659086203055
"523",11,30,1,2,43,2,1,0,3,0.792512089082554,0.764530752132629
"524",11,33,1,2,44,2,2,1,3,0.670630443885525,0.575285961590507
"525",11,19,1,1,45,3,2,0,2,1.06159334579854,1.03529542734491
"526",11,30,1,2,46,3,2,1,2,0.974943038544099,1.00286488680548
"527",11,31,1,2,47,3,1,0,2,0.622124115801865,0.582936406896362
"528",11,34,1,1,48,2,1,1,4,0.621889153635802,0.547582974463085
"529",11,34,1,2,49,1,2,1,4,0.35538565880542,0.384240120615246
"530",11,38,1,1,50,2,1,1,4,0.811398802908635,0.816607610873154
"531",11,27,1,2,51,3,1,0,2,1.02986345874128,1.01657054485643
"532",11,40,1,1,52,3,1,1,2,0.961649486023155,1.01145785180573
"533",11,30,1,1,53,1,2,0,4,0.527569748794182,0.494245865172972
"534",11,33,1,1,54,1,2,0,3,0.662251092488665,0.562645804067861
"535",11,19,1,2,55,2,2,1,4,0.488381837873295,0.510740101924109
"536",11,30,1,1,56,1,1,1,4,0.351746203916053,0.434030074159332
"537",11,31,1,1,57,1,1,1,5,0.404593153785647,0.344042710736323
"538",11,34,1,2,58,2,2,1,3,0.937147258305287,0.926916092532854
"539",11,34,1,2,59,2,2,1,4,0.433673825195729,0.553798649094655
"540",11,38,1,1,60,3,1,1,3,0.587217182115227,0.574590731644928
"541",11,27,1,1,61,1,2,0,3,0.640059113253755,0.652453768493252
"542",11,40,1,1,62,3,2,0,2,0.97893640899178,0.90755066554623
"543",11,30,1,2,63,3,2,1,3,0.573252936752198,0.553868227358373
"544",11,33,1,1,64,2,1,1,4,0.659747358884882,0.74242037520414
"545",11,19,1,2,65,2,2,1,3,0.697182741881011,0.676068182724961
"546",11,30,1,2,66,3,1,0,2,0.49930788710716,0.46107329336004
"547",11,31,1,2,67,3,1,0,1,0.889457455348204,0.918457473656549
"548",11,34,1,1,68,1,1,1,4,0.592673484830453,0.636688467455078
"549",11,34,1,2,69,3,2,1,3,0.641121880079746,0.72515348159881
"550",11,38,1,1,70,1,1,1,4,0.496937609809824,0.474109868505408
"551",11,27,1,1,71,3,2,0,1,1.45894475521971,1.50832250075968
"552",11,40,1,1,72,2,1,1,4,0.538473336723072,0.619000083006469
"553",11,30,1,1,73,3,1,1,2,0.774136833825794,0.742928234204319
"554",11,33,1,1,74,1,1,1,5,0.281528821701472,0.291124350064171
"555",11,19,1,2,75,3,2,1,2,0.614636854735101,0.541626519139982
"556",11,30,1,1,76,1,1,1,5,0.369817811668216,0.365454492589874
"557",11,31,1,1,77,3,2,0,2,0.74002424936068,0.769761300301193
"558",11,34,1,1,78,1,1,1,4,0.343777536852758,0.371187499755009
"559",11,34,1,2,79,1,1,0,4,0.741756658769871,0.650071347205427
"560",11,38,1,2,80,1,2,1,5,0.443483762558373,0.400835965642024
"561",11,27,1,2,81,1,1,0,4,0.483698007157442,0.427309548539988
"562",11,40,1,1,82,1,2,0,3,0.596385868139352,0.556453273673888
"563",11,30,1,1,83,3,1,1,2,0.93797616880613,0.972048249794465
"564",11,33,1,2,84,3,1,0,2,0.723039940663287,0.705680296223143
"565",11,19,1,1,85,1,2,0,4,0.426768931432987,0.310629181366328
"566",11,30,1,2,86,2,2,1,4,0.673423704346908,0.696087644533687
"567",11,31,1,1,87,2,1,1,3,0.632047010496749,0.642499234971372
"568",11,34,1,2,88,3,2,1,2,0.95031021306582,0.940051242843461
"569",11,34,1,1,89,1,2,0,3,0.593165802060274,0.582514043702412
"570",11,38,1,1,90,1,1,1,4,0.318766516933251,0.294335410854753
"571",11,27,1,2,91,2,2,1,4,0.546907955499368,0.57635417326166
"572",11,40,1,1,92,2,2,0,2,0.520584134424717,0.506751951613677
"573",11,30,1,1,93,2,1,1,4,0.439096835636217,0.478839861060213
"574",11,33,1,1,94,1,1,1,4,0.451057567640368,0.434897209759666
"575",11,19,1,1,95,3,2,0,2,1.10419599680932,1.1178888354201
"576",11,30,1,2,96,1,2,1,5,0.384119064674293,0.440226586218876
"577",11,31,1,2,97,2,1,0,2,0.391573012461769,0.315505894319723
"578",11,34,1,2,98,2,2,1,4,0.71110278262126,0.728255319181353
"579",11,34,1,2,99,1,2,1,4,0.524838055097921,0.588012870050584
"580",11,38,1,1,100,1,1,1,4,0.502951753216825,0.518222886020171
"581",11,27,1,2,101,3,1,0,2,1.35911518303495,1.3649919961772
"582",11,40,1,2,102,3,2,1,2,0.92553002883322,0.935636028701659
"583",11,30,1,1,103,2,1,1,3,0.34366596704687,0.375596394920047
"584",11,33,1,2,104,2,1,0,3,0.844357316968708,0.914484875276855
"585",11,19,1,2,105,2,2,1,3,0.452355114259333,0.405232233059536
"586",11,30,1,2,106,3,2,1,2,0.581820587840509,0.49836577463095
"587",11,31,1,1,107,2,2,0,2,0.351006297329833,0.387834334255847
"588",11,34,1,2,108,1,1,0,3,0.599672146844159,0.657120637504326
"589",11,34,1,1,109,2,1,1,4,0.786037064902551,0.818976067772999
"590",11,38,1,2,110,2,2,1,4,0.501221911979048,0.475139182265709
"591",11,27,1,1,111,1,1,1,5,0.364480277917445,0.3992971891932
"592",11,40,1,1,112,1,2,0,4,0.613543773110081,0.594923779176389
"593",11,30,1,2,113,2,2,1,4,0.605357408742639,0.615601705400316
"594",11,33,1,2,114,2,2,1,4,0.499312964867514,0.501088166683566
"595",11,19,1,2,115,2,2,1,3,0.522491128076003,0.493232943250397
"596",11,30,1,1,116,3,1,1,2,0.608843468375511,0.62022071517703
"597",11,31,1,2,117,3,2,1,3,0.808362170840133,0.762034622802322
"598",11,34,1,1,118,3,1,1,3,0.675450295843246,0.680676430884094
"599",11,34,1,2,119,2,1,0,2,0.641363459134499,0.656569849738052
"600",11,38,1,2,120,3,2,1,3,0.603684332925525,0.618369666234247
"601",11,27,1,2,121,2,2,1,4,0.57806987836341,0.526439914598173
"602",11,40,1,2,122,1,2,1,4,0.478021851941845,0.453241010227182
"603",11,30,1,1,123,2,1,1,4,0.740820659226402,0.755534009537398
"604",11,33,1,1,124,1,1,1,4,0.485490680745879,0.410330149186925
"605",11,19,1,2,125,1,2,1,4,0.41256956099499,0.438216708063424
"606",11,30,1,2,126,1,2,1,5,0.292595913955236,0.332377541250164
"607",11,31,1,2,127,1,2,1,4,0.4423848272675,0.524860766709407
"608",11,34,1,1,128,1,2,0,3,0.58546915491892,0.594906637632
"609",11,34,1,2,129,3,1,0,1,1.01565707763592,1.00435399823835
"610",11,38,1,2,130,2,2,1,3,0.675414269666807,0.595074652784666
"611",11,27,1,1,131,1,2,0,3,0.487683439759913,0.509786528761306
"612",11,40,1,2,132,1,2,1,4,0.358109942504826,0.452479337034753
"613",11,30,1,1,133,3,1,1,2,0.768188629544755,0.747744712216315
"614",11,33,1,1,134,1,1,1,4,0.31743675741028,0.291839488497729
"615",11,19,1,1,135,1,1,1,4,0.384699499319074,0.295392902720535
"616",11,30,1,1,136,3,1,1,3,0.738143485493093,0.716236865515716
"617",11,31,1,2,137,2,2,1,4,0.725514966577433,0.749473260034127
"618",11,34,1,1,138,1,1,1,4,0.520735686179273,0.470660579888894
"619",11,34,1,1,139,3,1,1,3,0.672355818726346,0.551293290341557
"620",11,38,1,2,140,1,2,1,5,0.417407145512495,0.373440362750152
"621",11,27,1,2,141,3,2,1,2,0.915872729950791,0.850698523583493
"622",11,40,1,2,142,1,2,1,5,0.305371297343996,0.261570408365617
"623",11,30,1,1,143,1,1,1,5,0.512436705993912,0.422761422805242
"624",11,33,1,2,144,3,1,0,1,0.764545731605727,0.723699720452271
"625",11,19,1,1,145,2,2,0,2,0.567652151686755,0.561101096333894
"626",11,30,1,1,146,1,1,1,5,0.542188277843641,0.447940825186286
"627",11,31,1,2,147,1,2,1,5,0.428409711464383,0.441464737038932
"628",11,34,1,2,148,2,1,0,2,0.741655508911272,0.736583756444217
"629",11,34,1,1,149,1,1,1,4,0.247983649466181,0.351781234504489
"630",11,38,1,2,150,3,2,1,3,0.706132405576594,0.691068253039927
"631",11,27,1,1,151,3,2,0,1,0.263480791962015,0.2448708843767
"632",11,40,1,2,152,2,1,0,3,0.569607909047377,0.598826241332917
"633",11,30,1,2,153,3,1,0,1,0.842468945781717,0.859899264687681
"634",11,33,1,1,154,1,2,0,3,0.589051945235252,0.587421955847899
"635",11,19,1,1,155,3,2,0,2,0.678027952101579,0.75598397098017
"636",11,30,1,1,156,2,1,1,4,0.575117902648905,0.535482384457867
"637",11,31,1,2,157,2,2,1,4,0.420422412948528,0.422549882378451
"638",11,34,1,2,158,3,2,1,2,0.794558149285233,0.733260132683912
"639",11,34,1,2,159,1,2,1,5,0.344460689229807,0.375893925172827
"640",11,38,1,2,160,2,1,0,3,0.823889303916889,0.830738009948147
"641",11,27,1,2,161,2,2,1,3,0.769224934783457,0.816696542658184
"642",11,40,1,2,162,2,1,0,2,0.68820474245857,0.677625119951163
"643",11,30,1,2,163,3,2,1,3,0.550352672058357,0.543792821201438
"644",11,33,1,2,164,3,2,1,3,0.535694258896204,0.49935696073364
"645",11,19,1,2,165,3,1,0,2,0.875890842342169,0.872872281158335
"646",11,30,1,1,166,3,2,0,2,1.40387418863445,1.3914937660529
"647",11,31,1,2,167,1,2,1,4,0.436911852519118,0.469822881146135
"648",11,34,1,1,168,3,1,1,2,0.922465496529246,0.848096558653893
"649",11,34,1,1,169,1,2,0,4,0.581732906742031,0.454858148008608
"650",11,38,1,2,170,3,2,1,3,1.09578664526861,1.08137929366149
"651",11,27,1,2,171,3,1,0,1,0.893873825394145,0.899872712634827
"652",11,40,1,2,172,2,2,1,3,0.703556254555825,0.732049673959415
"653",11,30,1,1,173,3,1,1,2,0.566019110667544,0.540954148494776
"654",11,33,1,2,174,2,2,1,4,0.780095744453007,0.861150410861909
"655",11,19,1,1,175,2,1,1,3,0.802958250516549,0.799561512633988
"656",11,30,1,1,176,3,1,1,2,0.688200733024622,0.744870878640012
"657",11,31,1,1,177,3,2,0,2,1.00399927972504,0.928281208705598
"658",11,34,1,2,178,3,2,1,3,0.908850441147659,0.832706494170911
"659",11,34,1,1,179,2,1,1,4,0.572340433496391,0.656831461703326
"660",11,38,1,1,180,2,1,1,4,0.56783129393605,0.472137678806386
"661",11,27,1,1,181,3,1,1,3,1.00226534280754,0.920003611952413
"662",11,40,1,1,182,2,2,0,3,0.456416154475814,0.48533586844192
"663",11,30,1,2,183,1,2,1,4,0.453621548700421,0.387691054454692
"664",11,33,1,1,184,2,1,1,3,0.563218502847736,0.604233441906542
"665",11,19,1,1,185,3,1,1,3,0.803784860401707,0.723449525769885
"666",11,30,1,2,186,2,1,0,3,0.65492753062672,0.777618422484092
"667",11,31,1,1,187,1,1,1,4,0.417454725396141,0.424038722959946
"668",11,34,1,2,188,2,2,1,4,0.657763452810828,0.695905619627294
"669",11,34,1,2,189,2,2,1,3,0.64536696033555,0.722230436608083
"670",11,38,1,2,190,2,2,1,4,0.668949677156283,0.665841519850046
"671",11,27,1,2,191,2,2,1,3,0.597199499606785,0.550477653865273
"672",11,40,1,1,192,3,2,0,2,1.39569431059383,1.44074567287839
"673",11,30,1,2,193,2,2,1,3,0.514342319009969,0.534400758876797
"674",11,33,1,2,194,3,1,0,2,1.34631690914778,1.37421279144056
"675",11,19,1,2,195,1,1,0,3,0.665199114171845,0.636991051164638
"676",11,30,1,1,196,1,1,1,5,0.271530059253077,0.306360649014731
"677",11,31,1,1,197,2,1,1,3,0.481374853192102,0.510651918896855
"678",11,34,1,2,198,1,2,1,5,0.531326159645938,0.544003246215908
"679",11,34,1,1,199,1,1,1,4,0.393500695770679,0.480303383870667
"680",11,38,1,1,200,2,2,0,3,0.761620734191289,0.748972611057749
"681",11,27,1,2,201,3,2,1,2,1.02471813687434,1.03288105212921
"682",11,40,1,2,202,1,2,1,5,0.599984986994288,0.576139281039932
"683",11,30,1,1,203,3,2,0,2,0.61113216956082,0.641651755579788
"684",11,33,1,1,204,1,1,1,4,0.244330029346081,0.250281331854325
"685",11,19,1,2,205,3,1,0,1,1.7983558153817,1.82479748202824
"686",11,30,1,2,206,3,2,1,2,0.854915088662999,0.908611142698112
"687",11,31,1,2,207,1,2,1,5,0.426806497393881,0.426726178479911
"688",11,34,1,2,208,2,1,0,3,0.525132773377628,0.537973427953785
"689",11,34,1,2,209,2,2,1,3,0.542014357008649,0.563768485980757
"690",11,38,1,2,210,2,2,1,3,0.803549431691316,0.763818500061881
"691",11,27,1,2,211,1,2,1,4,0.453946320308248,0.469111576419388
"692",11,40,1,2,212,3,2,1,2,0.579517558096073,0.533979390924861
"693",11,30,1,1,213,3,2,0,1,1.17324126578337,1.17293739517403
"694",11,33,1,1,214,2,2,0,2,0.737256263473953,0.692959235471154
"695",11,19,1,1,215,2,2,0,2,0.857865391547467,0.90310495590963
"696",11,30,1,1,216,1,2,0,4,0.480004418780335,0.506576985293751
"697",11,31,1,1,217,1,1,1,4,0.345704570590291,0.383762249650619
"698",11,34,1,1,218,2,2,0,2,0.890128013568116,0.867358923169009
"699",11,34,1,1,219,3,1,1,3,0.414699125712052,0.383705627180257
"700",11,38,1,1,220,2,1,1,4,0.554869225570141,0.562317784448968
"701",11,27,1,1,221,2,2,0,2,0.74476158723775,0.721472259704579
"702",11,40,1,1,222,3,2,0,2,0.548815450266185,0.514747244791937
"703",11,30,1,1,223,1,1,1,4,0.452449734459319,0.40782750994731
"704",11,33,1,1,224,3,2,0,1,1.21069576814369,1.2704244199237
"705",11,19,1,2,225,3,1,0,1,1.69647922046667,1.6642458375457
"706",11,30,1,2,226,1,2,1,4,0.517993329216739,0.534410658493856
"707",11,31,1,1,227,3,1,1,2,1.06123699092195,1.10753887541595
"708",11,34,1,2,228,1,2,1,4,0.331358940511521,0.41850397511833
"709",11,34,1,1,229,1,1,1,4,0.292557227573935,0.37713255846297
"710",11,38,1,2,230,3,2,1,2,0.89541745768258,0.923412851219852
"711",11,27,1,1,231,3,1,1,3,0.885637753042561,0.892512167365226
"712",11,40,1,2,232,3,2,1,2,0.622546798329405,0.56092945008245
"713",11,30,1,1,233,1,1,1,5,0.30309983765364,0.269896673694225
"714",11,33,1,1,234,3,1,1,3,0.396724685400103,0.356911253255079
"715",11,19,1,2,235,1,2,1,5,0.325057858846351,0.44867505110594
"716",11,30,1,2,236,1,2,1,4,0.436586706347761,0.416991798694265
"717",11,31,1,1,237,2,1,1,3,0.583725218461444,0.657079966487754
"718",11,34,1,2,238,1,2,1,5,0.310681768233368,0.319234129101678
"719",11,34,1,1,239,1,1,1,4,0.452516339757073,0.378906935381109
"720",11,38,1,1,240,3,1,1,2,0.622463246241977,0.61165418682325
"721",10,23,2,2,1,2,1,0,2,0.607614943256334,0.644375420617055
"722",10,36,2,1,2,3,2,0,1,0.709003690648685,0.709635834402646
"723",10,38,2,2,3,2,2,1,4,0.623201343356036,0.659813796203654
"724",10,25,2,2,4,1,1,0,3,0.688075932617567,0.65884212399094
"725",10,20,2,1,5,2,1,1,4,0.729647977614218,0.690004498951564
"726",10,40,2,1,6,1,1,1,5,0.409868386653865,0.42840863431723
"727",10,23,2,2,7,3,1,0,2,0.731638088206367,0.842601544972388
"728",10,20,2,2,8,1,1,0,4,0.443952475990547,0.492088502676117
"729",10,40,2,2,9,3,1,0,1,1.34663842111463,1.30998525476369
"730",10,23,2,2,10,1,1,0,4,0.569362745180381,0.62759366203244
"731",10,23,2,1,11,1,1,1,5,0.346703072254113,0.315573030249009
"732",10,36,2,1,12,2,2,0,2,0.742877026058049,0.770711772831353
"733",10,38,2,2,13,3,1,0,1,0.99696099209907,1.03169175693058
"734",10,25,2,2,14,2,2,1,3,0.6421189212578,0.747216445777587
"735",10,20,2,1,15,2,2,0,3,0.840221102554756,0.841043305794056
"736",10,40,2,1,16,2,1,1,4,0.591093908532666,0.657109384108507
"737",10,23,2,1,17,1,1,1,4,0.611222703128785,0.647788602028269
"738",10,20,2,2,18,1,2,1,5,0.481894354998255,0.496174255862047
"739",10,40,2,1,19,1,1,1,4,0.387171006440054,0.344103568957187
"740",10,23,2,1,20,1,2,0,4,0.626453324415254,0.58210778951464
"741",10,23,2,2,21,3,2,1,3,0.327720792917462,0.357158098826698
"742",10,36,2,1,22,1,1,1,5,0.455750739300231,0.464471521984688
"743",10,38,2,2,23,1,2,1,4,0.40837268237081,0.449921589099822
"744",10,25,2,2,24,3,2,1,2,0.574115282410826,0.556022920851687
"745",10,20,2,1,25,2,2,0,3,1.01032221861057,1.03176969487761
"746",10,40,2,1,26,2,1,1,4,0.664281647685352,0.539796876446213
"747",10,23,2,1,27,3,2,0,2,0.363580392302839,0.270201450971137
"748",10,20,2,1,28,1,1,1,5,0.5618533313372,0.423211857021066
"749",10,40,2,1,29,2,2,0,2,0.738129859752472,0.657586676142396
"750",10,23,2,1,30,2,1,1,3,0.764468335022627,0.777838736497393
"751",10,23,2,1,31,1,1,1,5,0.357697176473411,0.372386335732105
"752",10,36,2,2,32,1,1,0,4,0.610569746428827,0.686348969772736
"753",10,38,2,1,33,1,1,1,4,0.325982420781719,0.33984348203935
"754",10,25,2,1,34,1,1,1,5,0.404291361346831,0.427859103047825
"755",10,20,2,2,35,1,2,1,5,0.400538388932855,0.456826677966525
"756",10,40,2,2,36,2,2,1,4,0.345243242612696,0.413131330475029
"757",10,23,2,1,37,1,1,1,4,0.400560349209375,0.409012960906922
"758",10,20,2,2,38,3,1,0,1,1.14269255315762,1.08251767446616
"759",10,40,2,1,39,1,1,1,4,0.349436275585413,0.322323975377082
"760",10,23,2,1,40,1,1,1,5,0.323634222219537,0.313288372251119
"761",10,23,2,1,41,1,2,0,4,0.476460698878079,0.459177060882036
"762",10,36,2,2,42,3,2,1,3,0.500213940072176,0.520388961493181
"763",10,38,2,1,43,2,2,0,2,0.685351504397382,0.621800431761258
"764",10,25,2,2,44,1,1,0,4,0.59257261646032,0.655364188796022
"765",10,20,2,2,45,3,1,0,1,0.597877238812866,0.627110922774536
"766",10,40,2,2,46,3,2,1,2,0.908052728715827,0.952619309709671
"767",10,23,2,1,47,3,2,0,1,0.644122677805534,0.608514708235757
"768",10,20,2,2,48,3,1,0,1,0.334055672302499,0.38838830705153
"769",10,40,2,1,49,3,1,1,2,0.624890659883099,0.645025065338988
"770",10,23,2,2,50,2,1,0,2,0.5569056333427,0.564253922055831
"771",10,23,2,2,51,3,2,1,2,0.911362285473987,0.931403252712165
"772",10,36,2,1,52,2,1,1,4,0.596018526828819,0.510733626176995
"773",10,38,2,2,53,2,1,0,2,0.883815310224645,0.892360743327089
"774",10,25,2,2,54,1,2,1,5,0.335169347723035,0.361428291904552
"775",10,20,2,2,55,2,2,1,4,0.704454726677762,0.702559141166974
"776",10,40,2,1,56,2,2,0,3,0.69476067347048,0.793781311825982
"777",10,23,2,1,57,1,1,1,5,0.445639596815912,0.453179564534058
"778",10,20,2,1,58,2,1,1,4,0.749589630923082,0.79779911840147
"779",10,40,2,1,59,3,2,0,1,0.568534597792706,0.586682876088424
"780",10,23,2,1,60,3,2,0,2,0.641264271818936,0.671123868818484
"781",10,23,2,1,61,1,1,1,4,0.312065459971303,0.32894963394767
"782",10,36,2,2,62,3,1,0,2,1.60844131414771,1.63201771027594
"783",10,38,2,1,63,2,2,0,3,0.805195829746215,0.803291825510788
"784",10,25,2,2,64,2,1,0,3,0.612223246565237,0.605593431087221
"785",10,20,2,2,65,3,2,1,2,0.678516496449543,0.623197134932529
"786",10,40,2,2,66,2,2,1,3,0.63499179334671,0.715821291636375
"787",10,23,2,2,67,2,2,1,4,0.555285806719682,0.568554839469464
"788",10,20,2,1,68,3,2,0,1,1.27402864305213,1.19883693228489
"789",10,40,2,1,69,3,1,1,2,0.219311959765489,0.116359458543236
"790",10,23,2,1,70,1,1,1,4,0.33580444498102,0.383299922017017
"791",10,23,2,2,71,1,2,1,5,0.471202742586779,0.45225452342946
"792",10,36,2,1,72,3,1,1,3,1.03017111371023,1.01562702033324
"793",10,38,2,2,73,2,1,0,3,0.703835674275394,0.695275854690947
"794",10,25,2,2,74,2,2,1,3,0.516324508713217,0.522421204740443
"795",10,20,2,1,75,1,1,1,4,0.447349020433378,0.429246448035979
"796",10,40,2,1,76,2,2,0,3,0.492185067467804,0.48364761822765
"797",10,23,2,2,77,1,2,1,5,0.383958644207931,0.330026782292318
"798",10,20,2,2,78,1,1,0,3,0.587853922597692,0.592629501816962
"799",10,40,2,1,79,3,2,0,2,0.946251901562454,0.990827687760673
"800",10,23,2,1,80,2,2,0,2,0.749904644150338,0.745266810733329
"801",10,23,2,1,81,2,2,0,3,0.485144360170986,0.433188776277427
"802",10,36,2,2,82,2,2,1,4,0.484459508000181,0.544343016548334
"803",10,38,2,2,83,3,2,1,3,0.781701098376676,0.730229915093164
"804",10,25,2,2,84,2,2,1,4,0.740147085658572,0.799642476910665
"805",10,20,2,1,85,3,2,0,2,1.91458042542412,1.88383752939241
"806",10,40,2,2,86,2,1,0,2,0.553737935501264,0.584202883383792
"807",10,23,2,2,87,2,1,0,3,0.547247347281847,0.586262046950519
"808",10,20,2,1,88,1,1,1,4,0.317610208864168,0.261788269932247
"809",10,40,2,1,89,2,1,1,3,0.540301588936584,0.482670425209992
"810",10,23,2,1,90,1,1,1,4,0.390166084604744,0.423199014623739
"811",10,23,2,1,91,1,1,1,4,0.466199135535203,0.419893301595428
"812",10,36,2,2,92,1,2,1,5,0.409720009364351,0.327022359191241
"813",10,38,2,1,93,1,1,1,5,0.336501536787141,0.345849709971051
"814",10,25,2,1,94,3,2,0,2,0.457969688319137,0.385125138403805
"815",10,20,2,1,95,1,1,1,4,0.412032398502611,0.409943616797558
"816",10,40,2,1,96,1,2,0,3,0.666323491077492,0.692660039898015
"817",10,23,2,2,97,2,1,0,3,0.795658023202606,0.818287982570988
"818",10,20,2,1,98,3,1,1,3,0.608571705140329,0.686026584830149
"819",10,40,2,1,99,1,1,1,4,0.473768287161419,0.466086563892372
"820",10,23,2,2,100,1,2,1,5,0.479980401471415,0.505041129580571
"821",10,23,2,2,101,1,2,1,5,0.439443077138936,0.416286306917378
"822",10,36,2,2,102,1,2,1,4,0.424194149764179,0.498701457671717
"823",10,38,2,2,103,1,1,0,4,0.436428708391534,0.360546020734426
"824",10,25,2,1,104,1,1,1,5,0.418444746114172,0.372403199056792
"825",10,20,2,1,105,1,1,1,5,0.293013754525174,0.30339745450116
"826",10,40,2,1,106,1,1,1,5,0.582502902193565,0.657357256197998
"827",10,23,2,1,107,2,1,1,4,0.534374711870443,0.557470441352825
"828",10,20,2,2,108,1,2,1,5,0.336064367008089,0.359906835597783
"829",10,40,2,1,109,3,2,0,1,1.29100895091868,1.23321891750019
"830",10,23,2,1,110,2,1,1,3,0.725975080822472,0.753190400665631
"831",10,23,2,2,111,2,1,0,3,0.576441647706063,0.603919585998974
"832",10,36,2,1,112,3,1,1,3,1.2973702667461,1.24971896402346
"833",10,38,2,2,113,3,2,1,2,0.832990021941063,0.91028851046002
"834",10,25,2,1,114,2,2,0,2,0.542661475890517,0.535634878942645
"835",10,20,2,1,115,3,2,0,1,1.35553840206915,1.36191455114773
"836",10,40,2,2,116,3,1,0,1,1.29315232255548,1.328906348537
"837",10,23,2,2,117,2,1,0,2,0.193095073540954,0.191327680134729
"838",10,20,2,1,118,3,1,1,3,0.602234453232209,0.624800206210683
"839",10,40,2,2,119,3,2,1,3,0.222090870059849,0.175869763500009
"840",10,23,2,2,120,1,2,1,4,0.362065425061623,0.314093094559383
"841",10,23,2,1,121,1,1,1,5,0.338201041764599,0.394323153445564
"842",10,36,2,2,122,2,2,1,4,0.670427646172276,0.725042157831882
"843",10,38,2,2,123,2,1,0,3,1.02164257708029,0.968585509052707
"844",10,25,2,2,124,2,2,1,3,0.527589524118988,0.532116941515563
"845",10,20,2,2,125,3,2,1,2,0.690219811365698,0.806042705197932
"846",10,40,2,1,126,1,1,1,5,0.489730403781178,0.536068674113533
"847",10,23,2,1,127,3,1,1,3,0.742156817525633,0.724192184367136
"848",10,20,2,1,128,3,2,0,2,1.11807141092035,1.01007532541807
"849",10,40,2,1,129,2,2,0,3,0.635707108165646,0.501851898369953
"850",10,23,2,2,130,1,2,1,5,0.380205430497236,0.369836880311648
"851",10,23,2,1,131,1,1,1,4,0.331750810185399,0.368717560878806
"852",10,36,2,1,132,2,1,1,3,0.568641322080733,0.521722102240533
"853",10,38,2,2,133,3,1,0,1,0.834445640282511,0.793514949735925
"854",10,25,2,2,134,2,1,0,3,0.517211452139499,0.607853116543782
"855",10,20,2,2,135,1,2,1,5,0.472808880258042,0.454603092903595
"856",10,40,2,2,136,3,2,1,2,0.722992831602636,0.781235429565298
"857",10,23,2,1,137,2,2,0,3,0.847214480252215,0.848024762874557
"858",10,20,2,2,138,3,2,1,3,0.715650875790844,0.748376171396751
"859",10,40,2,2,139,2,2,1,4,0.48778777776615,0.461993162257403
"860",10,23,2,1,140,3,2,0,2,0.461789122666009,0.470731462241291
"861",10,23,2,2,141,2,2,1,3,0.594193901087024,0.648936070858187
"862",10,36,2,2,142,2,1,0,3,0.323221071931271,0.355044777425046
"863",10,38,2,1,143,2,2,0,3,0.675680719374842,0.656276647012521
"864",10,25,2,2,144,1,2,1,5,0.446713702081305,0.458746098162971
"865",10,20,2,1,145,2,1,1,3,0.759247299816847,0.782252967625834
"866",10,40,2,1,146,2,2,0,2,0.910926790043365,0.832251134009114
"867",10,23,2,1,147,3,1,1,3,0.407681540262191,0.35424717968132
"868",10,20,2,2,148,3,2,1,2,0.510287537430188,0.518608388088771
"869",10,40,2,1,149,3,1,1,2,1.09781942249003,1.12627813868952
"870",10,23,2,2,150,3,2,1,2,0.552914086122541,0.54750033376591
"871",10,23,2,2,151,3,1,0,1,1.01542119289405,1.07834250674251
"872",10,36,2,1,152,3,1,1,2,0.666994748408376,0.649283997050929
"873",10,38,2,2,153,1,2,1,5,0.457113178199557,0.465528365732907
"874",10,25,2,2,154,3,1,0,2,1.03947212380859,1.01480159581561
"875",10,20,2,1,155,3,2,0,1,0.92757502554708,0.914839152815999
"876",10,40,2,2,156,3,1,0,2,1.87401849855066,1.85305039610859
"877",10,23,2,2,157,1,2,1,5,0.477071084146645,0.557865541194064
"878",10,20,2,1,158,3,1,1,2,0.914170397115113,0.930496900486278
"879",10,40,2,1,159,3,1,1,2,1.18868301233632,1.15464727842022
"880",10,23,2,2,160,1,1,0,4,0.557932424708794,0.479187163257192
"881",10,23,2,2,161,3,1,0,2,0.937677160473614,0.931796116137931
"882",10,36,2,2,162,1,2,1,5,0.429393745151196,0.431117482225241
"883",10,38,2,1,163,2,1,1,4,0.526725480095653,0.570821398981994
"884",10,25,2,1,164,1,1,1,4,0.434591809550306,0.411498870460353
"885",10,20,2,2,165,3,2,1,2,0.684042290792983,0.623863238051741
"886",10,40,2,2,166,1,2,1,5,0.339181170728668,0.359192756474645
"887",10,23,2,1,167,1,2,0,4,0.535676456740113,0.533067450406284
"888",10,20,2,1,168,1,1,1,5,0.376046054876379,0.378858256728902
"889",10,40,2,2,169,2,2,1,3,0.806902566471629,0.765979023285008
"890",10,23,2,2,170,3,1,0,2,0.855112919567227,0.926508275021911
"891",10,23,2,1,171,3,1,1,3,0.741193841290214,0.725157853937828
"892",10,36,2,1,172,2,2,0,3,0.964202138934949,0.873730926167823
"893",10,38,2,2,173,1,2,1,4,0.469057604913454,0.490506614743264
"894",10,25,2,2,174,2,1,0,3,0.879890963375822,0.925766440169248
"895",10,20,2,2,175,2,2,1,4,0.728949610586162,0.661241030457389
"896",10,40,2,2,176,3,2,1,2,0.620190847530879,0.607938686796984
"897",10,23,2,2,177,2,1,0,2,0.639304680060488,0.697928052975532
"898",10,20,2,1,178,1,2,0,3,0.467570269383394,0.404976627463404
"899",10,40,2,1,179,1,1,1,5,0.426299497946765,0.459008202081269
"900",10,23,2,2,180,1,2,1,5,0.330614179094453,0.256791189401766
"901",10,23,2,1,181,3,1,1,3,0.83658215282336,0.816824187865686
"902",10,36,2,2,182,3,2,1,3,0.922727832348167,0.923894909464734
"903",10,38,2,2,183,2,1,0,2,0.566726215573437,0.57527802861946
"904",10,25,2,1,184,1,2,0,4,0.566248843625115,0.543125179199453
"905",10,20,2,2,185,3,1,0,1,0.941515787522662,0.930748134951527
"906",10,40,2,1,186,2,2,0,2,0.832893224991899,0.827346190202017
"907",10,23,2,1,187,2,1,1,4,0.667254257763472,0.787253447354669
"908",10,20,2,2,188,1,2,1,4,0.301439309586135,0.254705941614149
"909",10,40,2,2,189,3,2,1,3,0.848160817230081,0.922046469951626
"910",10,23,2,1,190,2,1,1,4,0.496157219158736,0.489343137952939
"911",10,23,2,1,191,2,1,1,3,0.586845406160137,0.599698062533184
"912",10,36,2,2,192,3,1,0,2,1.42471140496307,1.42558715772728
"913",10,38,2,1,193,2,1,1,3,0.535854853374363,0.477239619233211
"914",10,25,2,2,194,1,2,1,4,0.459649595221168,0.414863034155811
"915",10,20,2,1,195,3,1,1,2,0.774746042101871,0.746814861755516
"916",10,40,2,2,196,3,1,0,2,1.28726758227933,1.25942271077066
"917",10,23,2,2,197,3,2,1,3,0.904819528778006,0.785131815343387
"918",10,20,2,1,198,2,2,0,2,0.816467389082345,0.905918087995954
"919",10,40,2,2,199,1,2,1,5,0.445509205555596,0.460229655389613
"920",10,23,2,1,200,3,1,1,2,0.983236590934209,0.872030543723186
"921",10,23,2,2,201,1,2,1,4,0.254005036220431,0.313164741467547
"922",10,36,2,2,202,1,2,1,4,0.273323352154941,0.233323425327531
"923",10,38,2,2,203,3,2,1,3,0.949226948678084,0.918796917285508
"924",10,25,2,1,204,3,2,0,2,1.39494000851202,1.39219533061467
"925",10,20,2,2,205,2,1,0,3,0.858222033590337,0.836735710006786
"926",10,40,2,2,206,2,1,0,3,0.703372376116182,0.724600451115583
"927",10,23,2,2,207,2,1,0,2,0.54769291634373,0.538744427863781
"928",10,20,2,1,208,3,1,1,2,0.570355656967762,0.588643998168114
"929",10,40,2,2,209,2,2,1,3,0.706353489623875,0.749250623985601
"930",10,23,2,2,210,3,1,0,2,0.981922533638404,1.01298561043442
"931",10,23,2,2,211,2,1,0,2,0.671686434269943,0.639841964589454
"932",10,36,2,2,212,2,1,0,2,0.699719880363334,0.619896125409732
"933",10,38,2,2,213,2,2,1,4,0.574769627411864,0.582860033091761
"934",10,25,2,1,214,3,2,0,1,0.97306355595806,1.01429027891221
"935",10,20,2,2,215,3,2,1,3,0.91020537231494,0.943329540306477
"936",10,40,2,2,216,1,2,1,5,0.429907942066246,0.453169642778507
"937",10,23,2,1,217,3,1,1,2,0.723650069397173,0.75477333208769
"938",10,20,2,1,218,3,1,1,3,0.802430814824303,0.878334391613871
"939",10,40,2,1,219,2,1,1,4,0.523903635374852,0.547155211749648
"940",10,23,2,2,220,2,2,1,3,0.467086912324669,0.492270956702563
"941",10,23,2,1,221,1,1,1,5,0.387664873471317,0.376231962754709
"942",10,36,2,2,222,1,2,1,5,0.503718536533976,0.444588065591688
"943",10,38,2,2,223,2,2,1,3,0.570387071302855,0.545811018716612
"944",10,25,2,1,224,1,1,1,5,0.473269780455384,0.398538046145716
"945",10,20,2,1,225,3,1,1,3,0.69918013878324,0.717013924288811
"946",10,40,2,1,226,1,1,1,5,0.416538342112573,0.391568821650417
"947",10,23,2,2,227,2,2,1,3,0.417188384801378,0.378370072943806
"948",10,20,2,1,228,2,1,1,3,0.529460662662655,0.504377557949861
"949",10,40,2,1,229,3,2,0,2,0.993038526826201,1.00079741262425
"950",10,23,2,2,230,1,2,1,5,0.232439803409586,0.175206782425145
"951",10,23,2,1,231,1,1,1,5,0.457681401647672,0.520509919111424
"952",10,36,2,2,232,3,1,0,2,0.362783386171308,0.299466912173158
"953",10,38,2,2,233,3,1,0,2,0.737894768201262,0.726301273561449
"954",10,25,2,1,234,1,1,1,4,0.420214983243723,0.432105139315837
"955",10,20,2,1,235,2,2,0,2,0.613570557821651,0.66104434343655
"956",10,40,2,1,236,3,2,0,1,1.36973695243014,1.35160308624999
"957",10,23,2,2,237,2,2,1,4,0.524990174239759,0.385077193645985
"958",10,20,2,1,238,3,1,1,3,0.829970837347903,0.898203856265522
"959",10,40,2,1,239,2,1,1,4,0.610758377581147,0.597785864281855
"960",10,23,2,1,240,1,1,1,5,0.436070959495963,0.444225949250955
"961",9,34,1,2,1,1,2,1,4,0.40921431300055,0.421868872544299
"962",9,26,1,1,2,1,1,1,5,0.389465282410816,0.323201167709352
"963",9,37,1,2,3,3,1,0,2,1.56539074808952,1.64242934163671
"964",9,33,1,1,4,2,1,1,3,0.664727700581641,0.667687667521232
"965",9,38,1,2,5,2,2,1,3,0.646166908494568,0.641408969893833
"966",9,35,1,1,6,2,2,0,2,0.780621600485562,0.796283548005086
"967",9,35,1,2,7,2,2,1,4,0.48360374327249,0.560275194989441
"968",9,31,1,2,8,1,2,1,5,0.380001855458798,0.380675891832914
"969",9,28,1,2,9,2,1,0,2,0.817424787137749,0.85199198488582
"970",9,31,1,1,10,3,2,0,1,0.885659799684401,0.903352118678124
"971",9,34,1,2,11,3,1,0,1,0.785089258307602,0.775162352257551
"972",9,26,1,2,12,3,2,1,2,1.07131540478459,1.11787609704382
"973",9,37,1,1,13,3,1,1,3,0.789743931223324,0.770504594839837
"974",9,33,1,2,14,2,1,0,2,0.917101322596957,0.860682060462196
"975",9,38,1,2,15,2,1,0,3,0.47348688955752,0.432041186041285
"976",9,35,1,2,16,2,1,0,3,0.531913106066788,0.554080364604284
"977",9,35,1,1,17,2,2,0,2,0.634259939702093,0.615307831964883
"978",9,31,1,1,18,1,1,1,4,0.320762019954493,0.382143622733556
"979",9,28,1,2,19,2,2,1,4,0.348192445209188,0.361500800540551
"980",9,31,1,2,20,2,2,1,3,0.661755191973678,0.680145317562247
"981",9,34,1,2,21,1,2,1,4,0.442539159292726,0.434971195712604
"982",9,26,1,2,22,3,1,0,2,0.864367458569315,0.821455735938683
"983",9,37,1,2,23,2,1,0,3,0.45508614326555,0.528147846640451
"984",9,33,1,2,24,1,1,0,3,0.550773240007784,0.576083343539786
"985",9,38,1,2,25,3,2,1,3,0.764489384801263,0.786707089556218
"986",9,35,1,2,26,1,2,1,4,0.423228894775366,0.454490739956841
"987",9,35,1,2,27,3,1,0,2,0.747788843845573,0.894752011292851
"988",9,31,1,1,28,1,2,0,3,0.443159703237753,0.470462274000946
"989",9,28,1,1,29,3,1,1,3,0.822373554837206,0.842542147036969
"990",9,31,1,2,30,3,2,1,2,0.58070863075167,0.56730973730025
"991",9,34,1,1,31,1,2,0,3,0.648357674706184,0.649852938223964
"992",9,26,1,1,32,3,2,0,2,0.364302598853308,0.301819117661564
"993",9,37,1,1,33,1,1,1,4,0.315172560953205,0.319507216546146
"994",9,33,1,2,34,2,1,0,2,0.605399868185362,0.621330251477529
"995",9,38,1,2,35,1,1,0,4,0.65769736828452,0.698418402363777
"996",9,35,1,2,36,2,1,0,3,0.793430299019759,0.754284606293602
"997",9,35,1,1,37,2,1,1,4,0.680131686732947,0.832039876771686
"998",9,31,1,1,38,3,1,1,3,1.00679174794606,1.0522275142132
"999",9,28,1,1,39,3,2,0,2,1.52565198339951,1.55210310523157
"1000",9,31,1,1,40,1,1,1,5,0.424528740800203,0.425861904683901
"1001",9,34,1,2,41,1,2,1,5,0.409240817580505,0.323255551564772
"1002",9,26,1,2,42,1,2,1,4,0.434237515372834,0.488721729127413
"1003",9,37,1,1,43,2,1,1,4,0.558496420182479,0.640861846293967
"1004",9,33,1,1,44,1,1,1,4,0.424367804842972,0.448832401165951
"1005",9,38,1,1,45,2,1,1,3,0.595207311976853,0.608909994102494
"1006",9,35,1,2,46,3,1,0,1,1.12367625783622,1.08359221008812
"1007",9,35,1,1,47,2,1,1,4,0.504135379090654,0.425228051028155
"1008",9,31,1,1,48,2,1,1,3,0.722687760825814,0.762138679151614
"1009",9,28,1,1,49,2,1,1,4,0.605950215294634,0.609356376736994
"1010",9,31,1,1,50,2,1,1,4,0.672192475417841,0.703581590059494
"1011",9,34,1,2,51,1,2,1,5,0.457080809929412,0.409840192414118
"1012",9,26,1,1,52,3,1,1,2,0.878425939575066,0.903622911533463
"1013",9,37,1,2,53,1,1,0,4,0.562620200248107,0.546134668160225
"1014",9,33,1,2,54,1,2,1,4,0.461929868145489,0.447409149362636
"1015",9,38,1,2,55,2,2,1,3,0.714296605817244,0.670329190375058
"1016",9,35,1,1,56,1,1,1,5,0.480769475077991,0.532173223586902
"1017",9,35,1,2,57,1,2,1,5,0.454920384896033,0.385568090585764
"1018",9,31,1,2,58,3,1,0,2,0.680329505875203,0.620525266911828
"1019",9,28,1,2,59,2,1,0,2,0.474502573971494,0.539286099232127
"1020",9,31,1,2,60,1,2,1,5,0.384985939862256,0.359014975124853
"1021",9,34,1,1,61,2,1,1,4,0.847481509877825,0.827538409496521
"1022",9,26,1,1,62,1,1,1,4,0.479818008661691,0.43301845203765
"1023",9,37,1,2,63,2,2,1,4,0.44795260227435,0.486538795405826
"1024",9,33,1,2,64,1,2,1,4,0.412280212281196,0.45443043097641
"1025",9,38,1,2,65,2,1,0,2,0.63343061852344,0.710094790683337
"1026",9,35,1,1,66,1,1,1,5,0.283963578607964,0.234174408669097
"1027",9,35,1,1,67,1,1,1,4,0.492754129422205,0.587143382874835
"1028",9,31,1,1,68,1,1,1,4,0.536409147769662,0.494914883471726
"1029",9,28,1,1,69,1,2,0,4,0.585989380525384,0.562531325217536
"1030",9,31,1,2,70,3,2,1,3,0.650788619628215,0.719630549719131
"1031",9,34,1,2,71,2,2,1,3,0.787352365375945,0.854616877952655
"1032",9,26,1,1,72,3,1,1,3,0.975155950136123,0.934530611018634
"1033",9,37,1,1,73,3,1,1,2,0.608708179064822,0.526243328371131
"1034",9,33,1,1,74,3,2,0,2,0.94515695316692,0.967887777488016
"1035",9,38,1,1,75,1,1,1,5,0.372600273372629,0.347739262767933
"1036",9,35,1,2,76,3,1,0,1,0.734815334774344,0.828525611894218
"1037",9,35,1,1,77,2,2,0,2,0.689972032267292,0.708436988165414
"1038",9,31,1,1,78,1,2,0,4,0.358893579879812,0.33036204779307
"1039",9,28,1,2,79,1,2,1,5,0.384573029653662,0.48265506826223
"1040",9,31,1,1,80,2,1,1,3,0.647117519254539,0.562534441459859
"1041",9,34,1,1,81,1,2,0,3,0.477742285607759,0.442100607426053
"1042",9,26,1,1,82,3,1,1,2,0.753273943541372,0.726133483155539
"1043",9,37,1,2,83,2,2,1,3,0.706905485470421,0.703869089100677
"1044",9,33,1,2,84,1,2,1,5,0.36485741521864,0.338543513996154
"1045",9,38,1,1,85,3,1,1,3,0.635858635884041,0.58775716013927
"1046",9,35,1,2,86,2,2,1,4,0.761429828565165,0.832867638420357
"1047",9,35,1,1,87,2,2,0,3,0.921054068714529,0.777912567099294
"1048",9,31,1,2,88,3,1,0,1,1.10139356068382,1.13852856442212
"1049",9,28,1,2,89,1,2,1,4,0.289822031282893,0.312334069092424
"1050",9,31,1,2,90,1,2,1,4,0.466107064746587,0.395100706993466
"1051",9,34,1,2,91,2,2,1,4,0.371859038386296,0.425611670199617
"1052",9,26,1,1,92,1,1,1,5,0.376537946645845,0.370077839946889
"1053",9,37,1,2,93,3,1,0,2,1.05002795054019,1.03431315825579
"1054",9,33,1,1,94,2,1,1,3,0.68007610829393,0.68286276164671
"1055",9,38,1,2,95,3,1,0,1,0.615819290565858,0.554020208844065
"1056",9,35,1,1,96,1,2,0,3,0.577031455547167,0.621873469139778
"1057",9,35,1,1,97,2,1,1,4,0.453782982342313,0.489858007346677
"1058",9,31,1,2,98,1,2,1,5,0.341483018337294,0.326471897722431
"1059",9,28,1,2,99,3,1,0,1,1.38830866367751,1.38213945501206
"1060",9,31,1,2,100,3,2,1,2,1.00671690309627,0.983329055616963
"1061",9,34,1,2,101,1,2,1,5,0.370457848930047,0.309635798598473
"1062",9,26,1,1,102,3,2,0,2,1.27697075157028,1.2207596821935
"1063",9,37,1,1,103,2,2,0,2,0.590395298054482,0.625454782039744
"1064",9,33,1,2,104,1,2,1,5,0.449911278543516,0.39260572245332
"1065",9,38,1,2,105,3,1,0,2,0.864499371301029,0.839051185690332
"1066",9,35,1,1,106,3,1,1,3,1.27787582251944,1.30377728689376
"1067",9,35,1,1,107,3,1,1,3,0.720126288473341,0.80136404648911
"1068",9,31,1,2,108,1,1,0,3,0.560125056458413,0.620946234266934
"1069",9,28,1,1,109,3,1,1,3,0.916331553617964,0.859187560727428
"1070",9,31,1,1,110,1,2,0,4,0.575354355594258,0.578576655577823
"1071",9,34,1,2,111,2,2,1,4,0.733303957619012,0.747976552678161
"1072",9,26,1,1,112,1,1,1,5,0.310007663390504,0.331501595204123
"1073",9,37,1,2,113,3,2,1,2,0.871566588485151,0.921155443037337
"1074",9,33,1,1,114,3,2,0,1,0.861620953019539,0.853198859901031
"1075",9,38,1,1,115,3,1,1,3,0.7784369772482,0.806849873875204
"1076",9,35,1,2,116,3,2,1,2,0.594099073087862,0.617668581009521
"1077",9,35,1,1,117,3,2,0,2,1.4546984647819,1.5395705171995
"1078",9,31,1,2,118,3,2,1,3,0.814488841511893,0.737205430344582
"1079",9,28,1,2,119,3,1,0,2,0.705681954789075,0.744081885705048
"1080",9,31,1,1,120,1,1,1,4,0.431708567577186,0.550041622507127
"1081",9,34,1,2,121,1,1,0,4,0.649997395744501,0.603579375771517
"1082",9,26,1,2,122,3,2,1,3,0.701580612161511,0.676051552874139
"1083",9,37,1,2,123,1,1,0,4,0.613497562469934,0.528759567666028
"1084",9,33,1,1,124,3,1,1,3,0.600689210572479,0.557002645048399
"1085",9,38,1,1,125,3,2,0,1,0.755129265052797,0.765575678053845
"1086",9,35,1,2,126,3,2,1,3,0.546301647699585,0.607083652057661
"1087",9,35,1,1,127,2,2,0,2,0.619643530675943,0.570256351582058
"1088",9,31,1,1,128,2,1,1,3,0.598374363071816,0.636937935329606
"1089",9,28,1,2,129,2,2,1,3,0.551647120093657,0.548486467983209
"1090",9,31,1,1,130,3,1,1,2,0.87947430558278,0.915467428268557
"1091",9,34,1,1,131,2,1,1,4,0.570299669226794,0.53914710404723
"1092",9,26,1,1,132,1,1,1,5,0.562769790750784,0.584711332691836
"1093",9,37,1,2,133,1,2,1,4,0.297375757208761,0.344764447342943
"1094",9,33,1,1,134,1,1,1,4,0.337029934723431,0.347010616032072
"1095",9,38,1,2,135,2,2,1,3,0.742699154711364,0.728103557225272
"1096",9,35,1,2,136,2,2,1,4,0.536127826584313,0.513167216405734
"1097",9,35,1,1,137,1,1,1,4,0.407054565433327,0.415963437151993
"1098",9,31,1,2,138,1,2,1,4,0.463933776893161,0.505258831749139
"1099",9,28,1,2,139,3,2,1,2,1.0156241970873,0.935771724066488
"1100",9,31,1,1,140,3,1,1,3,0.573377037322188,0.559126659242116
"1101",9,34,1,1,141,1,1,1,5,0.337519253927322,0.335066050194152
"1102",9,26,1,1,142,3,2,0,1,1.25914782425969,1.28747465328466
"1103",9,37,1,2,143,2,1,0,2,0.630585005465354,0.716231367521507
"1104",9,33,1,1,144,2,1,1,4,0.768202165553973,0.79774581511817
"1105",9,38,1,2,145,3,2,1,3,0.916718825089287,0.915071570142138
"1106",9,35,1,2,146,2,2,1,3,0.86474229299876,0.801298007444564
"1107",9,35,1,2,147,1,2,1,4,0.448211098326213,0.466452535736977
"1108",9,31,1,2,148,1,2,1,4,0.383804475655562,0.403555421593391
"1109",9,28,1,1,149,1,1,1,4,0.51124318504053,0.513514727603791
"1110",9,31,1,1,150,1,1,1,4,0.462600924143273,0.50691493990303
"1111",9,34,1,1,151,2,1,1,3,0.482289505477094,0.413561843910673
"1112",9,26,1,2,152,2,2,1,3,0.561175332943329,0.484221813806773
"1113",9,37,1,1,153,2,1,1,3,0.549699935588465,0.611073258390677
"1114",9,33,1,1,154,1,1,1,5,0.31672162277429,0.286209220672838
"1115",9,38,1,1,155,1,2,0,4,0.439249413356576,0.394139621940065
"1116",9,35,1,2,156,1,2,1,4,0.436125133812053,0.525831905320797
"1117",9,35,1,2,157,3,1,0,2,0.999791623542008,0.900736157328591
"1118",9,31,1,2,158,2,1,0,3,0.517903708259344,0.505096016185889
"1119",9,28,1,2,159,1,2,1,5,0.48148145455384,0.485782702772651
"1120",9,31,1,2,160,1,2,1,5,0.501460833837673,0.479542671678622
"1121",9,34,1,1,161,2,1,1,4,0.759260699245593,0.806551772997719
"1122",9,26,1,1,162,3,2,0,1,0.530802036592991,0.587778507844289
"1123",9,37,1,1,163,3,1,1,2,0.872461765795082,0.961419995388655
"1124",9,33,1,2,164,1,2,1,5,0.473328376009809,0.459523204851169
"1125",9,38,1,1,165,2,2,0,3,0.711410048320572,0.669086213815549
"1126",9,35,1,2,166,3,2,1,3,0.957297565051239,0.894952997517807
"1127",9,35,1,2,167,3,1,0,1,1.04170529169336,0.988713733363606
"1128",9,31,1,1,168,2,2,0,3,0.64000721333421,0.566277349447853
"1129",9,28,1,1,169,2,1,1,3,0.717831108773983,0.793138305200696
"1130",9,31,1,1,170,2,2,0,2,0.905626669670716,0.840119203468582
"1131",9,34,1,1,171,1,2,0,4,0.452689274631852,0.523008104612629
"1132",9,26,1,1,172,3,2,0,2,1.13564817423351,1.16640995577231
"1133",9,37,1,1,173,3,1,1,3,0.985236252134981,0.960576044814165
"1134",9,33,1,2,174,1,1,0,4,0.598462708474997,0.517042088292472
"1135",9,38,1,1,175,3,2,0,2,1.02365142994281,0.95210867469279
"1136",9,35,1,2,176,1,2,1,5,0.364325293841832,0.378064780094404
"1137",9,35,1,2,177,2,1,0,3,0.634856605472275,0.746322501433813
"1138",9,31,1,1,178,2,1,1,4,0.746062146821659,0.742889187548094
"1139",9,28,1,2,179,2,2,1,4,0.494031593375859,0.502578644322391
"1140",9,31,1,1,180,2,1,1,4,0.526895036094818,0.49485813988213
"1141",9,34,1,1,181,3,1,1,2,0.816532790655948,0.898877207902502
"1142",9,26,1,1,182,1,1,1,5,0.405919284377478,0.367829631072895
"1143",9,37,1,1,183,2,1,1,4,0.399718441914483,0.361521616066014
"1144",9,33,1,2,184,2,2,1,3,0.627242775750349,0.620510110564897
"1145",9,38,1,2,185,3,1,0,1,0.50621102135294,0.573740644026891
"1146",9,35,1,1,186,1,1,1,4,0.438763456217654,0.343174285139158
"1147",9,35,1,2,187,1,2,1,5,0.428912580416428,0.424274201632015
"1148",9,31,1,2,188,3,1,0,2,0.917888634064157,0.949261459312654
"1149",9,28,1,1,189,1,1,1,4,0.421672764546982,0.440561884314728
"1150",9,31,1,1,190,1,2,0,4,0.494584070861175,0.503660335078198
"1151",9,34,1,2,191,3,2,1,3,0.760145358568128,0.769133151915433
"1152",9,26,1,1,192,2,1,1,3,0.582259512898753,0.618454272630966
"1153",9,37,1,1,193,3,1,1,2,0.722333176060388,0.722458562703694
"1154",9,33,1,1,194,2,2,0,2,0.662260613392062,0.658419805078426
"1155",9,38,1,1,195,1,1,1,4,0.317001467184311,0.364873489138949
"1156",9,35,1,1,196,3,1,1,2,0.913572201930913,1.00787607397595
"1157",9,35,1,1,197,3,1,1,3,0.490605292264037,0.386168956219064
"1158",9,31,1,2,198,3,1,0,2,1.40863882415817,1.39338388101
"1159",9,28,1,1,199,2,1,1,4,0.682790758132305,0.729326234914673
"1160",9,31,1,2,200,3,1,0,2,0.906702200212268,0.806726483609334
"1161",9,34,1,2,201,1,2,1,4,0.301304395883226,0.28775211489179
"1162",9,26,1,1,202,3,1,1,2,0.981540086638295,0.997961462449291
"1163",9,37,1,2,203,1,2,1,4,0.365085579227053,0.320210663187052
"1164",9,33,1,2,204,3,2,1,2,0.928101852720482,0.919201813448145
"1165",9,38,1,1,205,1,1,1,5,0.43264667516846,0.428688938902933
"1166",9,35,1,2,206,3,1,0,2,0.191600528174509,0.216301219254864
"1167",9,35,1,2,207,2,1,0,3,0.650203026376951,0.71733293142608
"1168",9,31,1,1,208,3,1,1,2,0.740728686758278,0.706689736346177
"1169",9,28,1,2,209,2,2,1,4,0.355884437315666,0.380558966064122
"1170",9,31,1,1,210,2,2,0,3,0.7111020443295,0.781783347962159
"1171",9,34,1,2,211,1,1,0,3,0.576665678434572,0.540114468081951
"1172",9,26,1,1,212,1,1,1,5,0.370821454908997,0.387521483688629
"1173",9,37,1,2,213,1,2,1,5,0.46192634299622,0.407161601914307
"1174",9,33,1,2,214,2,2,1,3,0.695603964089587,0.625376529184302
"1175",9,38,1,2,215,3,2,1,2,0.704623246710269,0.68756779886981
"1176",9,35,1,1,216,3,2,0,2,0.860594572943382,0.861507053397322
"1177",9,35,1,1,217,2,2,0,2,0.792345594401236,0.818847233364317
"1178",9,31,1,2,218,2,2,1,3,0.702267771377838,0.799955320464247
"1179",9,28,1,1,219,3,1,1,3,0.83353596435711,0.828826816678607
"1180",9,31,1,2,220,1,2,1,5,0.371596186782295,0.427253948258298
"1181",9,34,1,1,221,2,1,1,4,0.521027671503374,0.557348599951818
"1182",9,26,1,1,222,3,2,0,1,1.3225685491927,1.32764152847076
"1183",9,37,1,1,223,2,2,0,3,0.529488130132584,0.575749383973842
"1184",9,33,1,1,224,2,1,1,4,0.693647503058273,0.653492062773434
"1185",9,38,1,2,225,2,2,1,4,0.709687007719907,0.728948418265778
"1186",9,35,1,2,226,3,2,1,3,0.587262975798313,0.507914925842128
"1187",9,35,1,1,227,2,1,1,4,0.485230522350918,0.520172754384963
"1188",9,31,1,2,228,2,2,1,4,0.528916075876278,0.62308776398085
"1189",9,28,1,1,229,1,1,1,5,0.383318192854738,0.362229627239618
"1190",9,31,1,1,230,1,1,1,4,0.449742072146827,0.470824772778182
"1191",9,34,1,1,231,1,1,1,5,0.397494530842126,0.407443789101906
"1192",9,26,1,1,232,2,1,1,3,0.609873700377943,0.677493589840108
"1193",9,37,1,2,233,3,1,0,1,0.881010126355324,0.913555479998315
"1194",9,33,1,2,234,2,2,1,4,0.530919099809197,0.500679335655257
"1195",9,38,1,2,235,3,1,0,1,1.2659872511281,1.24772817516138
"1196",9,35,1,1,236,3,2,0,2,1.21972013823692,1.23414623908218
"1197",9,35,1,2,237,2,1,0,3,0.560513937361963,0.476075805694323
"1198",9,31,1,2,238,3,1,0,2,1.15439608708857,1.09003696235772
"1199",9,28,1,2,239,2,2,1,3,0.672361965726496,0.684844607374404
"1200",9,31,1,2,240,3,2,1,2,0.935790586754091,1.05002107738576
"1201",8,25,2,2,1,1,2,1,5,0.447355194779502,0.435185673387758
"1202",8,29,2,1,2,2,1,1,3,0.501894175351073,0.516238061816859
"1203",8,36,2,1,3,3,1,1,2,0.647452861696636,0.592442105440995
"1204",8,24,2,2,4,1,2,1,5,0.379689013232585,0.36635424851274
"1205",8,26,2,1,5,2,1,1,4,0.440398841701087,0.516735792021698
"1206",8,24,2,1,6,3,2,0,1,0.507858144242385,0.569484687806798
"1207",8,18,2,2,7,2,2,1,4,0.586282917925728,0.621139702024015
"1208",8,29,2,2,8,2,2,1,4,0.59791173191676,0.54861238283483
"1209",8,26,2,1,9,3,2,0,1,0.925466239206447,0.963302096655656
"1210",8,40,2,1,10,3,2,0,1,1.90348341894872,1.90968663720606
"1211",8,25,2,1,11,2,2,0,2,0.440279385266187,0.501279546194949
"1212",8,29,2,2,12,1,1,0,3,0.606427428726431,0.633454634996147
"1213",8,36,2,2,13,2,1,0,2,0.940016981057062,0.924244400451584
"1214",8,24,2,1,14,3,2,0,1,1.15845609091502,1.13242203392792
"1215",8,26,2,2,15,2,1,0,3,0.728771160439023,0.729343612528954
"1216",8,24,2,2,16,2,2,1,4,0.505526127079105,0.495635933903531
"1217",8,18,2,2,17,1,2,1,4,0.609194504873378,0.585629961849806
"1218",8,29,2,2,18,1,2,1,5,0.389464256162636,0.317284592535981
"1219",8,26,2,1,19,3,1,1,3,0.634386775805567,0.654542191424583
"1220",8,40,2,2,20,1,2,1,5,0.343922586603336,0.373628665247031
"1221",8,25,2,1,21,2,1,1,3,0.531271404261042,0.569478368945902
"1222",8,29,2,1,22,2,1,1,3,0.515391163812925,0.516532722371175
"1223",8,36,2,2,23,3,2,1,2,0.501261315554868,0.50192544083842
"1224",8,24,2,2,24,2,2,1,4,0.585983792493868,0.562715503002204
"1225",8,26,2,1,25,3,2,0,1,0.591302884358714,0.616603486543898
"1226",8,24,2,1,26,2,2,0,2,0.697668585656101,0.749526605286621
"1227",8,18,2,1,27,2,2,0,2,1.01819048161914,0.977482109187783
"1228",8,29,2,2,28,3,2,1,2,0.914271410659162,0.83729513290107
"1229",8,26,2,1,29,3,2,0,1,0.404019724221067,0.459647999336913
"1230",8,40,2,2,30,1,2,1,5,0.356099707289722,0.305452590889567
"1231",8,25,2,1,31,2,1,1,4,0.392575217700998,0.370823748098441
"1232",8,29,2,2,32,2,2,1,3,0.663137368569141,0.595109020997462
"1233",8,36,2,2,33,2,2,1,3,0.625780471045837,0.714882184041426
"1234",8,24,2,2,34,1,2,1,4,0.370000890378865,0.329936558432351
"1235",8,26,2,1,35,3,1,1,2,0.560253732991497,0.681132782776033
"1236",8,24,2,1,36,2,2,0,3,0.778216558124218,0.789820901517849
"1237",8,18,2,2,37,3,2,1,3,0.618315022314984,0.676800525366936
"1238",8,29,2,1,38,1,1,1,4,0.420333110416713,0.397124556174992
"1239",8,26,2,1,39,3,2,0,1,1.37346336545174,1.44286433845982
"1240",8,40,2,1,40,1,1,1,4,0.467367553689032,0.506693444097519
"1241",8,25,2,1,41,1,1,1,5,0.375926858541547,0.408484300444797
"1242",8,29,2,2,42,2,1,0,2,0.931230260225897,0.904361560249584
"1243",8,36,2,1,43,2,1,1,3,0.645828099792656,0.646435068072739
"1244",8,24,2,2,44,3,2,1,3,0.83556495791918,0.916692926319606
"1245",8,26,2,1,45,3,2,0,2,1.23330952003239,1.20438488153527
"1246",8,24,2,2,46,2,2,1,4,0.793621487007659,0.716172107517705
"1247",8,18,2,1,47,1,1,1,5,0.538220212945384,0.595341866538349
"1248",8,29,2,1,48,2,1,1,4,0.652948935351025,0.660017202516517
"1249",8,26,2,1,49,2,2,0,3,0.577754105596341,0.549182374910527
"1250",8,40,2,1,50,2,1,1,3,0.662617792328292,0.683699714993023
"1251",8,25,2,2,51,1,2,1,5,0.537981488509203,0.533207561012038
"1252",8,29,2,2,52,1,2,1,5,0.417672991010284,0.438920264691193
"1253",8,36,2,1,53,3,2,0,2,1.72443428044018,1.7677133229947
"1254",8,24,2,2,54,1,2,1,5,0.341813683850917,0.357291610616741
"1255",8,26,2,2,55,2,1,0,3,0.561714867482602,0.512762847227437
"1256",8,24,2,1,56,2,1,1,3,0.613266042360486,0.540178250490268
"1257",8,18,2,1,57,3,2,0,1,0.940270815884429,1.02240999721771
"1258",8,29,2,1,58,2,1,1,3,0.626635398847689,0.644564911138921
"1259",8,26,2,2,59,1,1,0,3,0.438802112489629,0.407328381789253
"1260",8,40,2,1,60,2,1,1,3,0.475939806738888,0.5089102571859
"1261",8,25,2,2,61,2,1,0,2,0.745232839267564,0.770086094417666
"1262",8,29,2,2,62,2,2,1,3,0.477791066070191,0.494921650810822
"1263",8,36,2,1,63,3,1,1,3,1.14362683625875,1.11529035299409
"1264",8,24,2,1,64,3,1,1,3,0.502394023750084,0.546437420372125
"1265",8,26,2,2,65,2,1,0,3,0.668902154524443,0.657183344844729
"1266",8,24,2,1,66,3,1,1,2,0.813767838472413,0.773963163562223
"1267",8,18,2,2,67,2,2,1,3,0.490908454812801,0.452311344176246
"1268",8,29,2,2,68,1,1,0,3,0.544736154736409,0.715964230443846
"1269",8,26,2,1,69,3,1,1,2,0.677158445124841,0.676195760127592
"1270",8,40,2,1,70,2,1,1,4,0.709374420607403,0.818011174804222
"1271",8,25,2,2,71,3,1,0,2,1.3301435073135,1.38847035126371
"1272",8,29,2,1,72,1,1,1,4,0.506180139815885,0.536246552633793
"1273",8,36,2,1,73,3,2,0,2,1.97960907189574,1.99394748599309
"1274",8,24,2,2,74,3,2,1,3,0.825169436477175,0.74101155037829
"1275",8,26,2,2,75,1,2,1,4,0.588609329923316,0.606936558671978
"1276",8,24,2,1,76,3,1,1,2,0.709057722076699,0.70255148475462
"1277",8,18,2,1,77,3,2,0,2,1.22170140714539,1.16935524331636
"1278",8,29,2,2,78,3,1,0,1,0.907762354232288,0.95869229558043
"1279",8,26,2,1,79,3,2,0,1,0.282113766633115,0.240344862749923
"1280",8,40,2,2,80,1,2,1,4,0.468504582113313,0.445847751261371
"1281",8,25,2,2,81,3,2,1,3,0.834278921942316,0.815154107830798
"1282",8,29,2,2,82,1,1,0,4,0.461626227542265,0.48143477771817
"1283",8,36,2,2,83,3,1,0,1,1.29242293962277,1.34585532767705
"1284",8,24,2,2,84,1,1,0,3,0.509122407319641,0.521160712398566
"1285",8,26,2,1,85,3,1,1,3,0.893970410229266,0.989391721241342
"1286",8,24,2,2,86,2,2,1,3,0.616920604521232,0.641896111171976
"1287",8,18,2,2,87,2,2,1,3,0.503102296855253,0.55321834228968
"1288",8,29,2,2,88,3,1,0,2,0.458857111277517,0.45876244097127
"1289",8,26,2,1,89,2,2,0,2,0.49311288016718,0.488690576125992
"1290",8,40,2,1,90,3,2,0,2,0.500256954113519,0.48772183341016
"1291",8,25,2,1,91,1,1,1,5,0.401089082858463,0.382067144866102
"1292",8,29,2,1,92,1,1,1,5,0.43565686757108,0.442679778842227
"1293",8,36,2,2,93,1,2,1,5,0.355273785584596,0.400623034037569
"1294",8,24,2,1,94,3,2,0,1,1.01424639867563,0.999312981883384
"1295",8,26,2,1,95,2,1,1,4,0.59414771269608,0.567317814810201
"1296",8,24,2,1,96,1,1,1,4,0.459464116397264,0.499451758124037
"1297",8,18,2,2,97,3,2,1,2,0.82701209743223,0.86185283489994
"1298",8,29,2,2,98,1,2,1,4,0.4328353025597,0.311304593619222
"1299",8,26,2,2,99,1,2,1,5,0.442978319583477,0.328655507659121
"1300",8,40,2,1,100,1,1,1,5,0.400902101677776,0.431826775490472
"1301",8,25,2,2,101,2,2,1,4,0.597817572440092,0.633631168558085
"1302",8,29,2,2,102,2,2,1,4,0.53294080474654,0.548455447333106
"1303",8,36,2,2,103,2,2,1,4,0.529446958373694,0.544284551838894
"1304",8,24,2,2,104,3,1,0,2,1.5132675889515,1.38133741361564
"1305",8,26,2,2,105,1,2,1,4,0.365147543180565,0.401314259673055
"1306",8,24,2,2,106,3,1,0,1,1.35330739389971,1.39177303367817
"1307",8,18,2,1,107,3,1,1,2,1.16115892065534,1.12829813638141
"1308",8,29,2,1,108,1,1,1,5,0.256090698852642,0.356669234437719
"1309",8,26,2,1,109,2,2,0,2,0.756362607780273,0.709991880822487
"1310",8,40,2,1,110,1,1,1,4,0.412619210013442,0.401265410688075
"1311",8,25,2,2,111,3,2,1,3,0.971267672761889,0.923833197811246
"1312",8,29,2,1,112,1,1,1,4,0.46836413482391,0.485082172881049
"1313",8,36,2,2,113,2,2,1,3,0.359288041558526,0.403652303879073
"1314",8,24,2,1,114,2,2,0,3,0.555571497294243,0.589298266544882
"1315",8,26,2,1,115,2,1,1,4,0.543177639934075,0.588460879734583
"1316",8,24,2,2,116,2,2,1,4,0.638066180369477,0.632988882495356
"1317",8,18,2,1,117,1,2,0,3,0.497506037598912,0.432552699954712
"1318",8,29,2,1,118,3,1,1,2,0.87991562039797,0.92515534693274
"1319",8,26,2,2,119,3,2,1,2,0.874181782921385,0.831507969735616
"1320",8,40,2,1,120,1,1,1,5,0.31570163790316,0.168116344813977
"1321",8,25,2,1,121,1,1,1,4,0.394022411448637,0.400591506492161
"1322",8,29,2,2,122,3,1,0,2,1.17392461834834,1.27096286299174
"1323",8,36,2,2,123,1,2,1,5,0.523534560382486,0.547167756403458
"1324",8,24,2,2,124,2,2,1,4,0.86091730371759,0.930073663752056
"1325",8,26,2,1,125,1,1,1,5,0.411068815572306,0.419782912587058
"1326",8,24,2,1,126,3,2,0,1,0.887802504376871,0.886481043942604
"1327",8,18,2,2,127,3,2,1,3,1.02433981807411,1.08018493951372
"1328",8,29,2,2,128,1,2,1,5,0.475778060765422,0.562998155228529
"1329",8,26,2,2,129,1,2,1,4,0.347368094439281,0.317357595392851
"1330",8,40,2,2,130,1,2,1,4,0.287065759343853,0.295975111896649
"1331",8,25,2,2,131,3,2,1,2,0.895962084965728,0.938338480403261
"1332",8,29,2,2,132,1,2,1,4,0.354112656052486,0.363234661445691
"1333",8,36,2,2,133,2,2,1,4,0.70030157364186,0.75454848877776
"1334",8,24,2,2,134,2,2,1,3,0.605933624120547,0.590104993251656
"1335",8,26,2,2,135,2,2,1,4,0.302651889480622,0.325030773295859
"1336",8,24,2,2,136,1,2,1,4,0.34781450732564,0.330988503268593
"1337",8,18,2,2,137,1,2,1,4,0.514399829560869,0.42485385084177
"1338",8,29,2,1,138,1,1,1,5,0.344054852683698,0.281979895189459
"1339",8,26,2,1,139,1,1,1,4,0.430323792696465,0.553643420027153
"1340",8,40,2,2,140,1,2,1,4,0.24585815505533,0.28401203313301
"1341",8,25,2,2,141,3,2,1,3,1.02230704438542,0.9652435558593
"1342",8,29,2,1,142,2,1,1,3,0.503081495025328,0.55273369142125
"1343",8,36,2,2,143,1,2,1,4,0.426939213641537,0.368730548093955
"1344",8,24,2,1,144,1,2,0,3,0.550970083133601,0.498100568783377
"1345",8,26,2,2,145,2,1,0,2,0.778759023486518,0.731357822138392
"1346",8,24,2,1,146,3,1,1,2,0.948321740069682,1.00707855864207
"1347",8,18,2,1,147,2,1,1,3,0.631777080961858,0.77019084529959
"1348",8,29,2,2,148,1,1,0,4,0.569959569417338,0.590373550446681
"1349",8,26,2,2,149,1,2,1,5,0.357874567308009,0.401679770823211
"1350",8,40,2,1,150,3,2,0,2,0.652871271783723,0.709031017862734
"1351",8,25,2,1,151,3,1,1,2,0.887189943111652,0.921650168076909
"1352",8,29,2,1,152,1,1,1,5,0.378930293629456,0.288081551508042
"1353",8,36,2,2,153,1,2,1,4,0.358849520361469,0.383008420467066
"1354",8,24,2,1,154,1,1,1,5,0.280694341849357,0.262692403226558
"1355",8,26,2,1,155,3,1,1,2,0.403951765400643,0.509558823571452
"1356",8,24,2,1,156,2,1,1,4,0.552467883964853,0.581720305847251
"1357",8,18,2,1,157,1,1,1,4,0.503838043382249,0.589007776995276
"1358",8,29,2,1,158,2,1,1,4,0.600187445909798,0.582608426554717
"1359",8,26,2,2,159,2,1,0,3,0.747928385422762,0.794444248795817
"1360",8,40,2,2,160,1,1,0,4,0.751403105753448,0.771222384018085
"1361",8,25,2,2,161,2,1,0,3,0.588318368857612,0.596560737163674
"1362",8,29,2,1,162,1,1,1,4,0.351857134361,0.282991426968115
"1363",8,36,2,2,163,2,1,0,3,0.826553722772596,0.842398269416401
"1364",8,24,2,1,164,3,2,0,2,0.703875453200761,0.710478527309166
"1365",8,26,2,2,165,1,2,1,4,0.458629480525408,0.466056256109116
"1366",8,24,2,2,166,3,1,0,2,0.960480332525888,0.957390342027986
"1367",8,18,2,1,167,3,2,0,1,1.28472746649312,1.25933094783912
"1368",8,29,2,1,168,2,2,0,3,1.03623817707491,1.0718262864028
"1369",8,26,2,1,169,2,1,1,4,0.593149032163002,0.50690224915934
"1370",8,40,2,1,170,1,2,0,4,0.390339307746261,0.411736773220502
"1371",8,25,2,2,171,3,2,1,3,1.04545730994697,0.943774276875753
"1372",8,29,2,1,172,1,1,1,4,0.464869867524482,0.410193376568058
"1373",8,36,2,2,173,2,1,0,3,0.703857723416131,0.773571321717561
"1374",8,24,2,2,174,2,2,1,3,0.593533706651842,0.685640378448827
"1375",8,26,2,1,175,1,2,0,4,0.623774967129582,0.689882954911253
"1376",8,24,2,2,176,3,2,1,3,0.737379619705466,0.741862412896906
"1377",8,18,2,1,177,3,1,1,3,0.901190757952735,0.896443442203246
"1378",8,29,2,1,178,2,2,0,3,0.796517349116661,0.76736538565063
"1379",8,26,2,1,179,1,1,1,5,0.360764788799683,0.401787525464603
"1380",8,40,2,1,180,2,1,1,4,0.646336100387512,0.738331867707778
"1381",8,25,2,1,181,2,2,0,3,0.76626481341667,0.756142075254816
"1382",8,29,2,2,182,3,2,1,3,0.452443419502724,0.397304338044458
"1383",8,36,2,1,183,3,2,0,1,0.829503378246545,0.847642030429694
"1384",8,24,2,1,184,2,1,1,3,0.726423660073513,0.743379452664702
"1385",8,26,2,1,185,1,1,1,5,0.380291936211686,0.444922963493648
"1386",8,24,2,1,186,2,1,1,3,0.536559477647242,0.474633825717097
"1387",8,18,2,1,187,2,2,0,3,0.741078838657062,0.710424009004013
"1388",8,29,2,2,188,2,2,1,4,0.698992269052947,0.633704801752729
"1389",8,26,2,2,189,3,1,0,2,1.09209211696707,1.01295618323555
"1390",8,40,2,1,190,1,1,1,5,0.373334204823981,0.488108882586822
"1391",8,25,2,2,191,3,2,1,3,0.910860539305415,0.887590201943453
"1392",8,29,2,1,192,2,2,0,3,0.584202660013638,0.572847394307756
"1393",8,36,2,1,193,2,2,0,3,0.815872487021943,0.838893448390328
"1394",8,24,2,2,194,3,1,0,1,0.922270863242305,0.931206048448566
"1395",8,26,2,2,195,3,2,1,3,0.89945450214336,0.831198749629082
"1396",8,24,2,1,196,1,2,0,3,0.583738659076814,0.670310179468915
"1397",8,18,2,2,197,1,2,1,4,0.457734033136205,0.468394448601428
"1398",8,29,2,2,198,2,2,1,4,0.241765441474859,0.368911756060693
"1399",8,26,2,2,199,1,2,1,5,0.253145003344356,0.255130458849931
"1400",8,40,2,1,200,3,1,1,2,0.95894313498766,0.922782458801335
"1401",8,25,2,1,201,1,1,1,5,0.262651284205141,0.304026052098582
"1402",8,29,2,1,202,1,2,0,4,0.584684035312062,0.579890622298879
"1403",8,36,2,1,203,3,2,0,1,0.749017606611517,0.836206082759988
"1404",8,24,2,2,204,3,1,0,1,0.908956853968664,0.888703279702688
"1405",8,26,2,1,205,3,2,0,1,1.39303355243112,1.44470510011941
"1406",8,24,2,1,206,2,1,1,3,0.434174862026252,0.505845800784392
"1407",8,18,2,2,207,1,2,1,4,0.4264980020802,0.348494221829439
"1408",8,29,2,1,208,3,2,0,1,0.90947100472802,0.922368326046569
"1409",8,26,2,2,209,3,2,1,3,0.889718272686289,0.896463269155504
"1410",8,40,2,1,210,1,1,1,4,0.496054449349722,0.617353617860125
"1411",8,25,2,2,211,1,2,1,5,0.489153105423598,0.488718828550249
"1412",8,29,2,2,212,1,2,1,5,0.44367119947944,0.364817574924628
"1413",8,36,2,2,213,2,2,1,4,0.646847203008385,0.701295594412305
"1414",8,24,2,1,214,1,1,1,5,0.310344862165222,0.327772087008449
"1415",8,26,2,1,215,1,1,1,5,0.350085749160311,0.334046159754821
"1416",8,24,2,2,216,2,2,1,4,0.688788572894213,0.753663917563623
"1417",8,18,2,2,217,3,1,0,1,0.831883791819577,0.808211692163294
"1418",8,29,2,2,218,1,2,1,4,0.370232265475411,0.394194067957408
"1419",8,26,2,2,219,1,2,1,5,0.44597139465753,0.456172949523269
"1420",8,40,2,1,220,3,1,1,2,0.754884870583915,0.691100857237437
"1421",8,25,2,1,221,3,2,0,1,0.830134013725719,0.764657545579487
"1422",8,29,2,2,222,3,2,1,3,0.792882722055749,0.817524777278109
"1423",8,36,2,2,223,2,1,0,2,0.782709486272879,0.85030447082542
"1424",8,24,2,1,224,3,2,0,2,0.804243582173378,0.792082525188879
"1425",8,26,2,2,225,3,2,1,2,0.648750525323384,0.543744354763841
"1426",8,24,2,2,226,3,1,0,2,1.02080584395785,1.0524776701755
"1427",8,18,2,2,227,3,1,0,1,1.08794619077527,1.09570021355003
"1428",8,29,2,2,228,3,2,1,2,0.883074155591711,0.930873681638643
"1429",8,26,2,1,229,1,1,1,4,0.267201373863107,0.238718760352165
"1430",8,40,2,2,230,1,2,1,4,0.517153923700359,0.51766754664645
"1431",8,25,2,1,231,3,2,0,1,0.455068172775007,0.470378214230881
"1432",8,29,2,2,232,3,1,0,2,1.28697939764584,1.34480042068096
"1433",8,36,2,2,233,2,1,0,3,0.519746987257192,0.50238489932429
"1434",8,24,2,2,234,3,2,1,3,1.17362731134724,1.1694813280487
"1435",8,26,2,2,235,2,1,0,2,0.748763001107284,0.830237840534248
"1436",8,24,2,2,236,2,2,1,4,0.474182219402259,0.484105342483068
"1437",8,18,2,1,237,2,1,1,3,0.606255362385484,0.590805057534723
"1438",8,29,2,1,238,1,1,1,5,0.398876476460736,0.322088872390726
"1439",8,26,2,1,239,2,2,0,3,0.618727004670933,0.612732827109044
"1440",8,40,2,1,240,2,1,1,3,0.699108663874083,0.742009985071085
"1441",7,25,1,2,1,1,1,0,3,0.674650458103023,0.645068596139425
"1442",7,21,1,2,2,2,1,0,3,0.916274799446267,0.762510583941606
"1443",7,22,1,1,3,3,2,0,2,0.0624557059715228,-0.00741029133811043
"1444",7,38,1,2,4,3,2,1,2,0.689730641844946,0.699724898262371
"1445",7,22,1,1,5,2,1,1,3,0.464209125582957,0.445170750878776
"1446",7,20,1,1,6,1,1,1,5,0.284664030004402,0.399888287507002
"1447",7,30,1,1,7,3,1,1,2,0.855944494282443,0.851111562023323
"1448",7,23,1,1,8,1,2,0,3,0.623112658175899,0.635993464306322
"1449",7,34,1,1,9,3,2,0,1,1.14308313534451,1.15046806903497
"1450",7,38,1,1,10,2,2,0,3,0.86749416466,0.852645712306647
"1451",7,25,1,1,11,2,2,0,2,0.784130290381065,0.766092042588847
"1452",7,21,1,2,12,1,2,1,5,0.261133739594462,0.223997629025206
"1453",7,22,1,2,13,2,2,1,3,0.439994888125023,0.482015531023103
"1454",7,38,1,1,14,2,1,1,4,0.399728115725416,0.362835930838332
"1455",7,22,1,2,15,1,2,1,5,0.396950046806984,0.485116607496365
"1456",7,20,1,2,16,3,2,1,2,0.554418679354026,0.573238304822605
"1457",7,30,1,1,17,1,1,1,4,0.424498106377637,0.281304700998199
"1458",7,23,1,2,18,1,2,1,5,0.32034541763552,0.294030489004784
"1459",7,34,1,2,19,1,2,1,4,0.333367760246219,0.207806385997952
"1460",7,38,1,1,20,1,1,1,5,0.481830844069339,0.483921132072852
"1461",7,25,1,1,21,2,1,1,3,0.771287089795918,0.760823947094857
"1462",7,21,1,1,22,3,2,0,1,0.761564456725552,0.764697158849615
"1463",7,22,1,2,23,3,2,1,2,0.653426120457971,0.684967240510888
"1464",7,38,1,2,24,3,1,0,2,0.995083498678059,0.948393101092202
"1465",7,22,1,2,25,3,2,1,2,0.818692823341687,0.758047216163279
"1466",7,20,1,2,26,2,1,0,3,0.946919376458828,0.968258578764756
"1467",7,30,1,1,27,1,2,0,4,0.448100321256458,0.431713238174332
"1468",7,23,1,2,28,2,1,0,2,0.611252780776858,0.573302622106388
"1469",7,34,1,1,29,1,1,1,5,0.327166064690082,0.254607772167632
"1470",7,38,1,2,30,3,1,0,2,0.243958212888956,0.303219396348172
"1471",7,25,1,2,31,1,2,1,4,0.378579470468459,0.358525156421181
"1472",7,21,1,1,32,1,1,1,4,0.390083328825271,0.426070319315555
"1473",7,22,1,2,33,2,2,1,3,0.556220715301603,0.640741495496265
"1474",7,38,1,2,34,3,1,0,2,1.35495043382481,1.47701139698025
"1475",7,22,1,1,35,2,1,1,3,0.420013607935369,0.321696742404489
"1476",7,20,1,2,36,1,1,0,4,0.559307967802981,0.626073536919545
"1477",7,30,1,1,37,2,2,0,2,0.79898868351116,0.757655541994363
"1478",7,23,1,2,38,1,1,0,4,0.665733269855283,0.711233055559598
"1479",7,34,1,2,39,1,1,0,4,0.464949646187919,0.511579456205086
"1480",7,38,1,2,40,1,2,1,4,0.301217628090768,0.286323196904582
"1481",7,25,1,2,41,3,2,1,3,0.481867424188238,0.467033502520218
"1482",7,21,1,1,42,3,1,1,3,0.631571680126034,0.667636760880477
"1483",7,22,1,2,43,1,1,0,3,0.581588000297861,0.537150614828939
"1484",7,38,1,2,44,1,1,0,4,0.6781934354922,0.649792231760399
"1485",7,22,1,2,45,1,2,1,5,0.466136158759821,0.533989026349033
"1486",7,20,1,1,46,2,1,1,3,0.680896128570058,0.633062675326708
"1487",7,30,1,2,47,3,2,1,3,1.13031920384238,1.16168218938566
"1488",7,23,1,2,48,3,1,0,1,0.331632073766928,0.359002654657561
"1489",7,34,1,2,49,3,1,0,2,0.802556986214027,0.762135082690003
"1490",7,38,1,1,50,2,1,1,4,0.732660904280798,0.794137594934271
"1491",7,25,1,2,51,2,2,1,3,0.569815442830982,0.550745673064276
"1492",7,21,1,2,52,1,2,1,4,0.447117046895566,0.404497429402499
"1493",7,22,1,1,53,2,2,0,3,0.766982496920935,0.837193198018442
"1494",7,38,1,2,54,3,2,1,2,0.635359375758455,0.695615815096305
"1495",7,22,1,2,55,1,1,0,3,0.5222231689731,0.504881067620147
"1496",7,20,1,1,56,1,1,1,4,0.405552329986564,0.42934549887652
"1497",7,30,1,2,57,1,2,1,5,0.362950215378816,0.33745166649269
"1498",7,23,1,2,58,2,1,0,3,0.600840597358612,0.664484807555078
"1499",7,34,1,2,59,2,2,1,3,0.669780585134789,0.667577413411896
"1500",7,38,1,1,60,2,2,0,2,0.650495944117157,0.683135782390837
"1501",7,25,1,2,61,2,2,1,3,0.47065187066312,0.433070785437801
"1502",7,21,1,1,62,1,2,0,3,0.602755315886537,0.598279067256206
"1503",7,22,1,2,63,2,1,0,2,0.644218599078207,0.607003412426859
"1504",7,38,1,1,64,3,1,1,3,0.724633118956832,0.710457835120469
"1505",7,22,1,1,65,2,2,0,2,0.726527818921799,0.715465331357481
"1506",7,20,1,1,66,1,1,1,4,0.487249548960601,0.483323714111301
"1507",7,30,1,1,67,3,1,1,2,0.441027905685045,0.518543417219971
"1508",7,23,1,2,68,3,2,1,2,0.728108957129379,0.755090696081553
"1509",7,34,1,1,69,1,1,1,5,0.338055373199081,0.314039164463541
"1510",7,38,1,2,70,1,2,1,5,0.413247615307163,0.451445118763215
"1511",7,25,1,1,71,1,1,1,5,0.310339913637503,0.225809461676489
"1512",7,21,1,1,72,3,2,0,1,1.17430250186025,1.19941226493685
"1513",7,22,1,2,73,1,2,1,4,0.536911185675625,0.608273442181405
"1514",7,38,1,2,74,2,2,1,3,0.578497278461932,0.584708484273798
"1515",7,22,1,2,75,2,2,1,3,0.571440921123179,0.535818601798256
"1516",7,20,1,1,76,1,1,1,4,0.43119413492136,0.404848241050777
"1517",7,30,1,2,77,2,1,0,2,0.656133979858573,0.694013131352183
"1518",7,23,1,1,78,1,1,1,4,0.334798425430192,0.343890974103865
"1519",7,34,1,2,79,3,2,1,2,0.776770976406359,0.813890139439292
"1520",7,38,1,1,80,2,1,1,3,0.751048551153987,0.823546379757735
"1521",7,25,1,1,81,2,2,0,3,0.474077967869436,0.466377610495686
"1522",7,21,1,2,82,1,2,1,4,0.242436821229565,0.312245747678687
"1523",7,22,1,1,83,1,1,1,5,0.533781239265837,0.567819083725817
"1524",7,38,1,2,84,1,2,1,5,0.325067415906203,0.379165573789141
"1525",7,22,1,1,85,1,1,1,5,0.316063226797277,0.361469154190755
"1526",7,20,1,2,86,2,1,0,2,1.04530508646229,1.16748199617339
"1527",7,30,1,2,87,2,2,1,4,0.4382726225257,0.463587726256194
"1528",7,23,1,1,88,3,1,1,2,0.572627658837634,0.529383015675468
"1529",7,34,1,2,89,3,2,1,3,0.681595673025845,0.698992546243298
"1530",7,38,1,1,90,1,1,1,5,0.354415418799224,0.407490601360792
"1531",7,25,1,2,91,2,1,0,2,0.812400831537665,0.857265903060796
"1532",7,21,1,1,92,3,1,1,3,0.686359427792364,0.656207430030201
"1533",7,22,1,2,93,3,1,0,2,0.15170333985423,0.0918797922070946
"1534",7,38,1,1,94,1,2,0,4,0.575504864012776,0.563910705710836
"1535",7,22,1,2,95,1,2,1,5,0.289951030107781,0.223322985056512
"1536",7,20,1,2,96,3,2,1,3,0.833300312935575,0.80028901912214
"1537",7,30,1,2,97,2,2,1,3,0.439216167791632,0.433600168874637
"1538",7,23,1,1,98,3,1,1,3,0.742685288965402,0.697032258391113
"1539",7,34,1,2,99,2,1,0,3,0.732121887935091,0.718727772479267
"1540",7,38,1,2,100,1,2,1,4,0.345714503398856,0.39193141320494
"1541",7,25,1,1,101,1,2,0,3,0.305866668374236,0.423957481299695
"1542",7,21,1,1,102,3,1,1,3,0.628992525535681,0.650524838863734
"1543",7,22,1,1,103,3,1,1,2,1.160340144804,1.09997542263886
"1544",7,38,1,1,104,2,1,1,4,0.577618402370791,0.642109303869155
"1545",7,22,1,2,105,3,1,0,1,0.825178938947426,0.875616147760141
"1546",7,20,1,2,106,3,2,1,3,0.881115966030917,0.845333557283028
"1547",7,30,1,1,107,3,2,0,1,1.1576975838784,1.13114766532604
"1548",7,23,1,1,108,1,1,1,5,0.213289473179679,0.165985420474523
"1549",7,34,1,1,109,2,2,0,2,0.804785811677614,0.722917503944125
"1550",7,38,1,1,110,3,1,1,2,0.814613937065962,0.786195879768899
"1551",7,25,1,1,111,1,1,1,4,0.507021624897344,0.41635280219521
"1552",7,21,1,2,112,2,2,1,3,0.719321259817653,0.63230933980253
"1553",7,22,1,2,113,3,2,1,2,0.644755431008049,0.630709070677889
"1554",7,38,1,1,114,2,2,0,3,0.31536716050409,0.324505600749596
"1555",7,22,1,1,115,1,1,1,4,0.299399410170708,0.328279912438657
"1556",7,20,1,1,116,2,1,1,4,0.7346051131986,0.807934338591005
"1557",7,30,1,1,117,3,2,0,2,0.612609622122194,0.622538974912277
"1558",7,23,1,2,118,2,2,1,3,0.735338664340817,0.718134372700205
"1559",7,34,1,1,119,2,1,1,3,0.839752251022365,0.95452948507065
"1560",7,38,1,1,120,3,1,1,2,0.8560930270758,0.738931762369834
"1561",7,25,1,1,121,3,2,0,2,1.33874226884531,1.32337606568881
"1562",7,21,1,1,122,1,2,0,3,0.651064628292485,0.609407149692492
"1563",7,22,1,1,123,2,1,1,4,0.388180027359731,0.390690546492851
"1564",7,38,1,2,124,3,1,0,1,1.15764177067523,1.12960856048511
"1565",7,22,1,1,125,2,1,1,4,0.629401029627519,0.643900379121075
"1566",7,20,1,2,126,1,2,1,5,0.477276504407721,0.597715297052618
"1567",7,30,1,1,127,1,2,0,3,0.546351936927193,0.592551476030684
"1568",7,23,1,1,128,2,1,1,3,0.364785447897512,0.330779134597521
"1569",7,34,1,1,129,1,1,1,4,0.454245692988195,0.400541582284736
"1570",7,38,1,2,130,2,2,1,3,0.374936684750078,0.321493738176158
"1571",7,25,1,2,131,2,2,1,4,0.739834532501929,0.819473623182179
"1572",7,21,1,2,132,1,2,1,5,0.380024009707388,0.421852513075666
"1573",7,22,1,2,133,3,1,0,1,1.38214467825374,1.44793396773953
"1574",7,38,1,2,134,3,1,0,1,1.07047526756401,1.08857506912023
"1575",7,22,1,1,135,3,1,1,3,0.512800764313409,0.572766371574754
"1576",7,20,1,2,136,2,2,1,4,0.696111386875759,0.685928094326058
"1577",7,30,1,1,137,1,1,1,5,0.48968271412239,0.486219088404638
"1578",7,23,1,1,138,3,2,0,2,0.987144930095319,0.95248977787121
"1579",7,34,1,2,139,3,2,1,2,1.20573078853536,1.09563593479239
"1580",7,38,1,1,140,2,2,0,2,0.826040031199273,0.837593444302384
"1581",7,25,1,1,141,2,2,0,2,0.748471891108322,0.875313417698756
"1582",7,21,1,1,142,3,1,1,2,0.923124806547839,0.959469239929275
"1583",7,22,1,2,143,2,1,0,2,0.731387101104778,0.665140293504617
"1584",7,38,1,1,144,2,2,0,3,0.83001738672561,0.864388145219854
"1585",7,22,1,2,145,2,1,0,2,0.917892124785743,0.999287460687053
