"","subj_no","age","group","stim","trial","difficulty","resp","corr","conf","RT_day1","RT_day2"
"1",14,34,2,2,1,2,1,0,3,0.676222163649528,0.686250377958745
"2",14,22,2,2,2,3,1,0,2,1.46449202452015,1.50127345178408
"3",14,20,2,1,3,1,2,0,4,0.737773064454582,0.710828100529507
"4",14,28,2,2,4,2,1,0,2,0.505792833158553,0.546273691754599
"5",14,33,2,1,5,1,1,1,4,0.533902326959933,0.581326689078307
"6",14,36,2,2,6,3,2,1,2,0.4261041070099,0.436613049882128
"7",14,19,2,1,7,1,2,0,3,0.451132965796705,0.479910537694296
"8",14,35,2,1,8,1,1,1,4,0.321478022817468,0.376964089898471
"9",14,23,2,1,9,2,1,1,3,0.632058043625546,0.707879958135527
"10",14,24,2,2,10,2,2,1,3,0.39056347433689,0.336118812519525
"11",14,34,2,2,11,2,2,1,3,0.670703413754894,0.71015591309994
"12",14,22,2,2,12,3,1,0,1,0.55717089585579,0.596054362538989
"13",14,20,2,1,13,2,1,1,4,0.636547540971471,0.68197122126585
"14",14,28,2,1,14,3,1,1,3,1.04114288834397,1.07257614829396
"15",14,33,2,2,15,3,2,1,3,0.817783931988472,0.764720705951985
"16",14,36,2,1,16,2,1,1,3,0.329975233821,0.418932476593285
"17",14,19,2,1,17,2,2,0,3,0.739409517664663,0.850211612427391
"18",14,35,2,1,18,3,1,1,2,0.901358188781832,0.844063541432991
"19",14,23,2,2,19,3,1,0,2,1.14294926670525,1.12464425007988
"20",14,24,2,1,20,1,1,1,4,0.473371784058291,0.443718972586786
"21",14,34,2,1,21,3,2,0,2,1.22870367877102,1.35139452491729
"22",14,22,2,2,22,1,2,1,5,0.375958729245602,0.38589605470905
"23",14,20,2,1,23,3,1,1,3,0.597993194397545,0.569604530067753
"24",14,28,2,2,24,2,2,1,3,0.504198535686437,0.55104614870509
"25",14,33,2,1,25,2,1,1,3,0.506872612187973,0.502458631455422
"26",14,36,2,1,26,1,1,1,4,0.458025001991163,0.532961786022852
"27",14,19,2,2,27,2,2,1,4,0.65692015921395,0.70746156178015
"28",14,35,2,2,28,2,1,0,2,0.591397316324095,0.582942202615116
"29",14,23,2,2,29,3,2,1,2,0.49566369251466,0.428695081696787
"30",14,24,2,1,30,2,1,1,4,0.455372647421335,0.382292268197529
"31",14,34,2,2,31,1,2,1,4,0.490531199310817,0.510397844201176
"32",14,22,2,2,32,3,1,0,2,1.38728270286845,1.39845943259486
"33",14,20,2,1,33,1,1,1,4,0.438904724182585,0.344050601468808
"34",14,28,2,1,34,3,2,0,2,1.70632408328342,1.72415176158417
"35",14,33,2,1,35,1,1,1,4,0.381582318919569,0.396947970377505
"36",14,36,2,1,36,2,1,1,3,0.719379743711912,0.731801268512527
"37",14,19,2,2,37,3,2,1,3,0.552974701476457,0.521961087313458
"38",14,35,2,1,38,1,2,0,4,0.544046226372774,0.529067897908975
"39",14,23,2,1,39,1,1,1,5,0.423151292584198,0.330737456965045
"40",14,24,2,1,40,3,2,0,2,1.10394050776692,1.12938668155659
"41",14,34,2,2,41,2,2,1,4,0.657031605950255,0.73095682660674
"42",14,22,2,1,42,2,2,0,2,0.946381177045281,1.03386380083248
"43",14,20,2,1,43,2,1,1,3,0.662117327195727,0.740976596620356
"44",14,28,2,2,44,1,2,1,5,0.448931740017589,0.510304771369136
"45",14,33,2,2,45,1,2,1,4,0.525590317721064,0.552454771721481
"46",14,36,2,2,46,2,2,1,3,0.677976519141809,0.735579540503566
"47",14,19,2,1,47,1,1,1,4,0.351003927150739,0.343716055167088
"48",14,35,2,2,48,1,2,1,4,0.597591145998426,0.610706419923295
"49",14,23,2,1,49,2,1,1,3,0.626175480935865,0.54269505541044
"50",14,24,2,1,50,2,2,0,2,0.711379994311308,0.720944867304046
"51",14,34,2,2,51,1,2,1,4,0.299028628939635,0.238354363510819
"52",14,22,2,1,52,3,2,0,1,0.176879253978467,0.1170415379984
"53",14,20,2,1,53,1,2,0,4,0.594022418343982,0.580154355387668
"54",14,28,2,2,54,1,2,1,4,0.400890100058016,0.427887896233562
"55",14,33,2,1,55,3,1,1,3,0.495162721236378,0.559369211928386
"56",14,36,2,1,56,2,1,1,4,0.818727658754082,0.831957527046806
"57",14,19,2,2,57,3,1,0,2,0.926451151187085,0.966102174220494
"58",14,35,2,1,58,1,2,0,4,0.641854481378336,0.613030448499839
"59",14,23,2,2,59,2,1,0,3,0.688970289114347,0.732763343177521
"60",14,24,2,1,60,1,1,1,4,0.270447767095294,0.335570546387064
"61",14,34,2,1,61,2,1,1,3,0.589569678327073,0.58940365517202
"62",14,22,2,1,62,3,2,0,2,1.33898315443665,1.35089393773733
"63",14,20,2,2,63,3,2,1,3,0.579181593088335,0.620010216514059
"64",14,28,2,1,64,3,2,0,1,0.855081652915177,0.837543025795552
"65",14,33,2,1,65,3,1,1,2,0.842608554260023,0.852703685207638
"66",14,36,2,1,66,1,1,1,5,0.55436034363033,0.556121859254408
"67",14,19,2,1,67,2,2,0,3,0.862174421815203,0.843993701635138
"68",14,35,2,2,68,2,2,1,3,0.745501610962876,0.729356098400575
"69",14,23,2,2,69,3,2,1,3,0.588599098607499,0.532977048983027
"70",14,24,2,1,70,3,2,0,2,0.831282667205712,0.839060934587554
"71",14,34,2,1,71,2,2,0,2,0.713829041428248,0.726054296318414
"72",14,22,2,1,72,1,1,1,4,0.408626544200098,0.370542293763611
"73",14,20,2,1,73,3,2,0,2,1.17299067413106,1.24958528900986
"74",14,28,2,1,74,3,1,1,2,0.709817912609012,0.768416990959134
"75",14,33,2,1,75,3,2,0,1,1.20335492787077,1.21268176656754
"76",14,36,2,2,76,1,1,0,3,0.594729536369983,0.594705059608137
"77",14,19,2,2,77,3,1,0,2,0.908571945915207,0.876815314735353
"78",14,35,2,1,78,2,2,0,3,0.598852728009542,0.634616572416607
"79",14,23,2,2,79,3,1,0,1,0.418336651844952,0.390798580649734
"80",14,24,2,2,80,2,2,1,3,0.504362801892975,0.550091860774109
"81",14,34,2,2,81,2,1,0,2,0.900844668811645,0.964881194896025
"82",14,22,2,2,82,1,2,1,4,0.325500445934638,0.191254638976915
"83",14,20,2,2,83,2,1,0,2,0.91252520693158,0.959940092381836
"84",14,28,2,2,84,3,2,1,2,0.548475154314445,0.514561013138827
"85",14,33,2,2,85,2,1,0,3,0.348418559111676,0.384070646544074
"86",14,36,2,1,86,1,2,0,4,0.496972005136886,0.41726165358047
"87",14,19,2,2,87,3,2,1,3,0.743841412907481,0.682786749478407
"88",14,35,2,2,88,1,1,0,3,0.62944744927605,0.608017263453322
"89",14,23,2,1,89,1,1,1,5,0.30789880104851,0.269180720628387
"90",14,24,2,1,90,3,1,1,3,0.697589645643565,0.723170265383557
"91",14,34,2,1,91,2,1,1,4,0.828253656189095,0.80358710240043
"92",14,22,2,1,92,1,1,1,4,0.607463819756203,0.620369026538721
"93",14,20,2,2,93,2,2,1,4,0.503696449714568,0.460786686540211
"94",14,28,2,1,94,2,1,1,3,0.79672278649383,0.696687721391319
"95",14,33,2,2,95,3,2,1,3,0.592100729874133,0.621194136371914
"96",14,36,2,1,96,1,1,1,5,0.42749618833484,0.413781113918473
"97",14,19,2,1,97,3,1,1,2,0.848775440135805,0.871859149065136
"98",14,35,2,1,98,3,1,1,3,0.88532566625895,0.974357475230783
"99",14,23,2,2,99,3,1,0,2,2.71783592361957,2.71363884193952
"100",14,24,2,1,100,1,1,1,4,0.403254470888793,0.424367440037606
"101",14,34,2,1,101,3,1,1,3,0.821338365956689,0.842134173102915
"102",14,22,2,1,102,3,2,0,2,0.122909172861706,0.0741251282059734
"103",14,20,2,1,103,1,1,1,4,0.377451008595994,0.322918408070949
"104",14,28,2,2,104,2,2,1,3,0.718892579289739,0.747585926780694
"105",14,33,2,1,105,2,2,0,2,0.876346630614234,0.932400257640198
"106",14,36,2,2,106,3,1,0,2,1.51096146769537,1.53842901701182
"107",14,19,2,2,107,2,2,1,4,0.673552219620241,0.753080834730269
"108",14,35,2,1,108,2,2,0,2,0.781523605339033,0.91117299550297
"109",14,23,2,2,109,1,2,1,5,0.423880909310764,0.434314320038121
"110",14,24,2,1,110,1,1,1,5,0.34115773411026,0.290078696708785
"111",14,34,2,2,111,1,1,0,3,0.477719423264527,0.534020141338338
"112",14,22,2,2,112,2,2,1,3,0.735165517430192,0.746671729392781
"113",14,20,2,2,113,1,2,1,4,0.323416104353816,0.290731694685594
"114",14,28,2,2,114,2,2,1,4,0.770693174054276,0.792777312685671
"115",14,33,2,2,115,3,1,0,1,1.52730102177717,1.63126337443664
"116",14,36,2,2,116,1,1,0,4,0.500308903307678,0.527671261830305
"117",14,19,2,1,117,1,1,1,4,0.546026849587463,0.446784706939303
"118",14,35,2,2,118,3,1,0,1,0.752131646540653,0.760594411458243
"119",14,23,2,2,119,1,2,1,5,0.36852573400143,0.446624711318348
"120",14,24,2,2,120,2,2,1,4,0.631696465403622,0.622382023416487
"121",14,34,2,2,121,1,1,0,4,0.577996624596016,0.498299798683847
"122",14,22,2,2,122,3,1,0,2,1.14701328687303,1.08209090398793
"123",14,20,2,1,123,1,1,1,4,0.432763499232382,0.490520138919011
"124",14,28,2,1,124,2,2,0,2,0.960088214208586,0.894194608648901
"125",14,33,2,2,125,2,1,0,2,0.840203801791335,0.842541597495963
"126",14,36,2,2,126,3,1,0,1,0.654750305262063,0.59522553175113
"127",14,19,2,1,127,2,2,0,3,0.518150966065722,0.45378721320193
"128",14,35,2,1,128,2,1,1,4,0.706115292364274,0.707562641297915
"129",14,23,2,2,129,2,1,0,2,0.709283332358051,0.709505752474482
"130",14,24,2,2,130,3,1,0,1,0.67472499453779,0.656214570788103
"131",14,34,2,2,131,3,1,0,1,1.0762354281775,1.06709924008072
"132",14,22,2,1,132,3,1,1,3,0.773883049215836,0.816331519869815
"133",14,20,2,1,133,3,2,0,1,0.561088664576455,0.581849680914748
"134",14,28,2,1,134,3,2,0,2,1.30546475732522,1.2553919783834
"135",14,33,2,1,135,3,2,0,1,1.11048405712163,1.03419157452443
"136",14,36,2,2,136,1,2,1,4,0.357168024372574,0.3062077148771
"137",14,19,2,2,137,3,1,0,2,1.2321443895232,1.25555792343072
"138",14,35,2,1,138,3,1,1,2,0.495826989190753,0.471500704557332
"139",14,23,2,2,139,1,2,1,5,0.370645379007929,0.382100826440164
"140",14,24,2,1,140,2,2,0,3,0.837661024336603,0.817625110881255
"141",14,34,2,2,141,1,2,1,4,0.432724707459692,0.385154967070819
"142",14,22,2,1,142,3,1,1,2,0.727835767696433,0.720592406413044
"143",14,20,2,2,143,2,2,1,3,0.799850538451912,0.759677420428814
"144",14,28,2,2,144,2,2,1,3,0.528455131959021,0.531593133229066
"145",14,33,2,1,145,3,2,0,1,1.36266354844078,1.33984852568049
"146",14,36,2,2,146,3,1,0,2,1.70571256044356,1.61528295752373
"147",14,19,2,1,147,3,1,1,3,0.643943749084807,0.50589618595872
"148",14,35,2,1,148,1,2,0,4,0.491168431627434,0.54651065371567
"149",14,23,2,2,149,2,2,1,4,0.586097685587937,0.692348277237484
"150",14,24,2,1,150,1,1,1,4,0.483768106206557,0.478154504958677
"151",14,34,2,1,151,1,1,1,4,0.337035463626895,0.391667673152653
"152",14,22,2,2,152,1,2,1,5,0.428178263762892,0.442490628203908
"153",14,20,2,2,153,1,2,1,4,0.501045463998654,0.529790188274913
"154",14,28,2,1,154,3,1,1,2,0.721982909562761,0.662339105461652
"155",14,33,2,2,155,2,2,1,3,0.710660153756575,0.638089061287308
"156",14,36,2,1,156,1,1,1,5,0.518880444329507,0.617318061655413
"157",14,19,2,2,157,3,2,1,3,0.91020611398064,0.884362509399063
"158",14,35,2,1,158,2,1,1,4,0.542506633480605,0.472225546178177
"159",14,23,2,1,159,2,1,1,4,0.463511886685966,0.393135735664425
"160",14,24,2,2,160,2,2,1,3,0.562521503870662,0.589635767279818
"161",14,34,2,2,161,1,1,0,4,0.640160263727839,0.673195176409504
"162",14,22,2,1,162,1,1,1,4,0.283245983795457,0.26293963215812
"163",14,20,2,1,163,1,1,1,4,0.353369564006332,0.359449808848981
"164",14,28,2,1,164,1,1,1,5,0.457598972433501,0.428725251991766
"165",14,33,2,2,165,1,1,0,4,0.77097209921012,0.811065368439676
"166",14,36,2,2,166,2,1,0,3,0.690722101539551,0.669548508057211
"167",14,19,2,1,167,3,1,1,2,0.414885421332595,0.412432452962727
"168",14,35,2,1,168,2,2,0,3,0.842068876700352,0.872866623640366
"169",14,23,2,1,169,3,2,0,1,1.50581092963618,1.51372985081312
"170",14,24,2,1,170,3,1,1,2,0.713800601868826,0.815407433813483
"171",14,34,2,1,171,3,2,0,2,1.20135643886348,1.28778621348637
"172",14,22,2,2,172,1,2,1,5,0.365903387659211,0.343928177566596
"173",14,20,2,1,173,2,2,0,2,0.718925067214549,0.756797621394351
"174",14,28,2,1,174,1,1,1,5,0.393853931913722,0.379228965671328
"175",14,33,2,2,175,1,2,1,4,0.523881479897789,0.589083554498022
"176",14,36,2,2,176,3,2,1,2,0.959152430419245,0.924707852274202
"177",14,19,2,2,177,3,1,0,2,1.20542862991497,1.18951856679817
"178",14,35,2,2,178,2,2,1,3,0.409461188928664,0.451117588777678
"179",14,23,2,2,179,2,2,1,3,0.583335507192916,0.50603258389087
"180",14,24,2,1,180,1,1,1,5,0.447779205491343,0.438838425664678
"181",14,34,2,2,181,3,1,0,1,1.56408543193853,1.58738995194653
"182",14,22,2,1,182,3,2,0,2,0.680513833177047,0.697552444811988
"183",14,20,2,1,183,3,1,1,2,1.07884836569455,1.0976704947521
"184",14,28,2,2,184,3,2,1,2,0.707738336971872,0.670067213641126
"185",14,33,2,1,185,2,2,0,3,0.692461900485256,0.643916301972458
"186",14,36,2,1,186,2,1,1,3,0.504386032713761,0.542616485856706
"187",14,19,2,2,187,1,2,1,5,0.5403209695779,0.595160491598321
"188",14,35,2,2,188,1,2,1,4,0.372260117324353,0.471232968066555
"189",14,23,2,2,189,1,2,1,5,0.533082551366359,0.556703938303045
"190",14,24,2,1,190,2,1,1,4,0.841860260977251,0.797081554796502
"191",14,34,2,2,191,2,1,0,3,0.648525705671174,0.648651590564128
"192",14,22,2,2,192,1,2,1,4,0.36300105459676,0.34759561288057
"193",14,20,2,2,193,3,1,0,2,1.78597089274182,1.77772210232734
"194",14,28,2,2,194,3,2,1,3,1.14307680254626,1.17887774654367
"195",14,33,2,2,195,1,1,0,3,0.771512525231286,0.820991297205243
"196",14,36,2,2,196,2,2,1,3,0.624282174316624,0.559993154480108
"197",14,19,2,2,197,3,2,1,2,0.978429780402669,0.979906830611026
"198",14,35,2,1,198,1,1,1,5,0.424177742137203,0.443732486184027
"199",14,23,2,1,199,2,1,1,3,0.604619655080526,0.532533087574025
"200",14,24,2,2,200,1,2,1,5,0.419044016735561,0.422383358704531
"201",14,34,2,2,201,2,1,0,2,0.705497480231242,0.697177971052183
"202",14,22,2,1,202,2,1,1,3,0.68328486856395,0.782178566485631
"203",14,20,2,1,203,3,2,0,1,0.797034214444645,0.738834707580746
"204",14,28,2,1,204,1,1,1,4,0.482770994983551,0.511151430649873
"205",14,33,2,1,205,1,1,1,5,0.354476314604917,0.381797864824097
"206",14,36,2,2,206,2,2,1,3,0.514230773556244,0.527050546786619
"207",14,19,2,2,207,2,2,1,4,0.61856271445626,0.593897236561841
"208",14,35,2,2,208,1,1,0,4,0.41386767060835,0.393682608141855
"209",14,23,2,2,209,1,1,0,4,0.618702640545358,0.572087069477793
"210",14,24,2,1,210,1,1,1,4,0.393571349456035,0.324076411048206
"211",14,34,2,2,211,2,2,1,3,0.610250086833997,0.592405602608105
"212",14,22,2,1,212,2,1,1,4,0.762111482855893,0.737753638103966
"213",14,20,2,2,213,1,1,0,3,0.51792321515045,0.492826533191113
"214",14,28,2,2,214,1,2,1,5,0.401098754747404,0.352893156333223
"215",14,33,2,2,215,2,2,1,3,0.486578280635192,0.617257474577521
"216",14,36,2,1,216,1,1,1,4,0.351096670876547,0.26105320495281
"217",14,19,2,1,217,2,2,0,3,0.570490840470294,0.565284634215668
"218",14,35,2,1,218,3,1,1,2,1.29529750271691,1.31067264745985
"219",14,23,2,1,219,1,1,1,4,0.371286738437783,0.336891148619938
"220",14,24,2,2,220,2,2,1,4,0.641784619240145,0.646089574569942
"221",14,34,2,1,221,1,1,1,4,0.527458444828183,0.551146292824433
"222",14,22,2,1,222,2,2,0,3,0.471320995125976,0.474416856687345
"223",14,20,2,1,223,1,2,0,3,0.701575460945902,0.795442237882977
"224",14,28,2,1,224,3,1,1,2,0.853472160028392,0.780553180171708
"225",14,33,2,2,225,3,1,0,2,1.24293320164554,1.2672128044626
"226",14,36,2,1,226,3,2,0,2,1.19090022889003,1.21653570384948
"227",14,19,2,2,227,2,2,1,3,0.718605675887059,0.77578408618329
"228",14,35,2,2,228,2,1,0,3,0.44393450106616,0.488753050000505
"229",14,23,2,2,229,1,2,1,5,0.37950666880327,0.416157679901408
"230",14,24,2,2,230,3,1,0,1,0.761978793006247,0.782697256193553
"231",14,34,2,1,231,3,2,0,1,1.05951082798558,1.12718025732136
"232",14,22,2,2,232,3,1,0,2,0.847426908857679,0.895966365426595
"233",14,20,2,2,233,2,2,1,3,0.636442425635591,0.680987896425188
"234",14,28,2,2,234,2,2,1,4,0.637770099828837,0.663502489024013
"235",14,33,2,1,235,3,1,1,3,0.680646681138356,0.73840130062611
"236",14,36,2,2,236,3,2,1,2,0.895071185150391,0.898723489051987
"237",14,19,2,2,237,2,1,0,3,0.619386408903927,0.587827734935603
"238",14,35,2,2,238,1,2,1,5,0.384979274259838,0.441976433999189
"239",14,23,2,1,239,1,1,1,5,0.498497728559602,0.521854113678379
"240",14,24,2,2,240,3,2,1,3,0.518133412505003,0.608042354519535
"241",13,23,1,1,1,1,1,1,4,0.325104332330667,0.338131623800354
"242",13,30,1,2,2,1,2,1,4,0.47972621636328,0.448774583216977
"243",13,21,1,2,3,3,1,0,2,0.815451014904405,0.825622063666337
"244",13,18,1,1,4,3,1,1,2,0.868755543112662,0.947457993040031
"245",13,35,1,2,5,1,2,1,5,0.337053609549962,0.345185712501566
"246",13,29,1,2,6,1,1,0,4,0.781248967388369,0.760158248685654
"247",13,32,1,2,7,3,2,1,2,1.093386434462,1.0172240756279
"248",13,39,1,2,8,1,1,0,3,0.449347021484175,0.46059684958579
"249",13,26,1,2,9,1,2,1,4,0.474245393249129,0.494538073004184
"250",13,18,1,1,10,3,2,0,1,0.710406478448052,0.698946302778527
"251",13,23,1,1,11,1,1,1,4,0.381106107325638,0.418425302083382
"252",13,30,1,2,12,2,1,0,2,0.652678854484621,0.628260533524601
"253",13,21,1,1,13,2,1,1,3,0.556064959563645,0.610472326298551
"254",13,18,1,1,14,1,2,0,4,0.545566826774092,0.523766619217357
"255",13,35,1,2,15,1,2,1,5,0.315819996329037,0.315809646789625
"256",13,29,1,1,16,1,2,0,3,0.330949990813138,0.335576629190097
"257",13,32,1,2,17,1,2,1,4,0.305463780358429,0.241261865951848
"258",13,39,1,2,18,2,2,1,4,0.569678751873449,0.592866758805376
"259",13,26,1,2,19,2,1,0,2,0.84810872189648,0.731729159791091
"260",13,18,1,2,20,3,1,0,2,0.977926703931213,0.999602541025059
"261",13,23,1,1,21,1,1,1,5,0.471325396931967,0.565601600161742
"262",13,30,1,2,22,3,1,0,1,0.970141317612958,1.03667331549197
"263",13,21,1,2,23,1,1,0,4,0.581612066969819,0.654044597952574
"264",13,18,1,2,24,3,1,0,2,1.08099641915544,1.12171691799513
"265",13,35,1,1,25,3,2,0,2,1.40858052292977,1.37762112820575
"266",13,29,1,2,26,2,2,1,4,0.706750153919343,0.748378105789244
"267",13,32,1,2,27,3,2,1,3,0.405920937285911,0.367361880047456
"268",13,39,1,2,28,1,2,1,5,0.473810415103186,0.449647371007299
"269",13,26,1,2,29,1,1,0,4,0.380035855164952,0.354450137284645
"270",13,18,1,1,30,3,2,0,1,0.938860816292908,0.886222328930529
"271",13,23,1,1,31,3,2,0,2,1.1672023502897,1.14704174951324
"272",13,30,1,1,32,1,1,1,5,0.409088008711809,0.421899007283142
"273",13,21,1,2,33,1,2,1,5,0.350966949934445,0.401239654659353
"274",13,18,1,2,34,3,2,1,2,0.592972300046028,0.576655559337076
"275",13,35,1,2,35,1,1,0,4,0.557070402405995,0.587210193305007
"276",13,29,1,2,36,2,2,1,3,0.493436964887468,0.510191327894679
"277",13,32,1,2,37,2,1,0,3,0.758873973747948,0.77435139220257
"278",13,39,1,2,38,1,2,1,4,0.372661816873452,0.352639394069836
"279",13,26,1,1,39,2,1,1,4,0.888855362829235,0.919162553704317
"280",13,18,1,1,40,2,1,1,4,0.542831540284056,0.522576846415902
"281",13,23,1,2,41,2,1,0,2,0.51374423759186,0.591509360907813
"282",13,30,1,1,42,2,2,0,3,0.903624402159426,0.92192078002098
"283",13,21,1,2,43,1,2,1,5,0.579982801237327,0.626211734785082
"284",13,18,1,1,44,3,2,0,1,1.33518696315927,1.40541783166375
"285",13,35,1,2,45,2,1,0,2,0.952749431213942,0.910158054999867
"286",13,29,1,1,46,1,1,1,5,0.451817516818638,0.490240309168794
"287",13,32,1,2,47,2,1,0,2,0.684039972980002,0.669444827034888
"288",13,39,1,2,48,2,2,1,4,0.390666624694229,0.397188512133953
"289",13,26,1,1,49,1,2,0,3,0.52613566646417,0.554195816495264
"290",13,18,1,2,50,2,2,1,4,0.717432741207732,0.736633143579871
"291",13,23,1,1,51,3,2,0,2,0.749000679199161,0.660714679264716
"292",13,30,1,1,52,1,2,0,3,0.587327636082215,0.55772355701017
"293",13,21,1,1,53,1,1,1,5,0.441623706183182,0.431810210619325
"294",13,18,1,1,54,1,1,1,5,0.38619116411353,0.440827637342624
"295",13,35,1,1,55,1,1,1,4,0.314196425790778,0.365311086397098
"296",13,29,1,1,56,1,1,1,4,0.421001347143799,0.369717401319785
"297",13,32,1,2,57,3,1,0,2,0.741100512768426,0.741353496638103
"298",13,39,1,2,58,3,1,0,2,0.433541758021792,0.47110106675753
"299",13,26,1,1,59,3,2,0,2,0.80866904188779,0.782032732445409
"300",13,18,1,2,60,2,1,0,2,0.738280258478555,0.736209561325514
"301",13,23,1,1,61,2,2,0,3,0.57843122756134,0.566328475378398
"302",13,30,1,2,62,3,1,0,2,0.137327108452292,0.119853071132925
"303",13,21,1,2,63,3,1,0,1,0.693675199872387,0.855048106505462
"304",13,18,1,2,64,3,1,0,1,1.04380207941768,1.1144306506217
"305",13,35,1,1,65,2,1,1,3,0.666781536792854,0.686473385216431
"306",13,29,1,1,66,1,1,1,4,0.41148503342767,0.438486474687197
"307",13,32,1,2,67,3,1,0,2,1.2388986592558,1.26981144845228
"308",13,39,1,2,68,1,2,1,4,0.454842998260465,0.460232702195898
"309",13,26,1,2,69,2,1,0,3,0.644235022562513,0.613397106970981
"310",13,18,1,1,70,1,1,1,5,0.344708940811928,0.417623874510796
"311",13,23,1,1,71,1,1,1,4,0.485189195792769,0.500644813758629
"312",13,30,1,2,72,2,2,1,4,0.460559267530093,0.488846557169021
"313",13,21,1,1,73,3,1,1,3,0.511667108130314,0.481534640071361
"314",13,18,1,1,74,2,1,1,4,0.630415173219992,0.673820166569534
"315",13,35,1,2,75,3,1,0,1,1.1546597526157,1.10640411360898
"316",13,29,1,1,76,2,1,1,4,0.920990227607258,0.930098718711427
"317",13,32,1,1,77,2,2,0,2,0.843305246098896,0.828862197627532
"318",13,39,1,2,78,1,2,1,4,0.331913449632163,0.366128938083659
"319",13,26,1,2,79,1,2,1,5,0.37065559165673,0.388166590745828
"320",13,18,1,2,80,3,1,0,2,0.796480267576232,0.800803244539622
"321",13,23,1,1,81,3,2,0,1,0.815410991061517,0.749784464657851
"322",13,30,1,2,82,1,2,1,4,0.33989491453096,0.3153699407842
"323",13,21,1,1,83,2,1,1,3,0.590172423312007,0.51001759075167
"324",13,18,1,2,84,1,2,1,5,0.51475723952413,0.512278386983607
"325",13,35,1,1,85,3,2,0,1,1.12601809962801,1.09764395988959
"326",13,29,1,2,86,3,2,1,2,0.727185832222075,0.695480715879727
"327",13,32,1,1,87,3,2,0,1,0.980744524154012,0.989840897838864
"328",13,39,1,2,88,1,2,1,4,0.356970101312672,0.366960328602396
"329",13,26,1,1,89,2,2,0,2,0.715420109995669,0.71600524198587
"330",13,18,1,1,90,3,2,0,1,0.407697900449013,0.344353069112615
"331",13,23,1,1,91,2,1,1,3,0.636609092187455,0.652523789285537
"332",13,30,1,2,92,2,1,0,2,0.696095503850959,0.653399239184014
"333",13,21,1,1,93,3,1,1,3,0.793630584977112,0.793541092880021
"334",13,18,1,2,94,3,1,0,2,0.873967353250593,0.849877939714675
"335",13,35,1,2,95,2,1,0,3,0.684706614217898,0.645246652806836
"336",13,29,1,2,96,3,1,0,1,1.14709262765088,1.13125734996642
"337",13,32,1,2,97,2,2,1,4,0.538040550939761,0.594032502210474
"338",13,39,1,2,98,2,1,0,3,0.72290072684811,0.725179470775753
"339",13,26,1,1,99,3,2,0,1,1.06937308120219,1.1207600506994
"340",13,18,1,1,100,1,2,0,3,0.45576631773055,0.37560758005741
"341",13,23,1,1,101,1,1,1,5,0.562778937911228,0.512537254247728
"342",13,30,1,1,102,3,2,0,2,1.07086733590356,1.0096369250661
"343",13,21,1,2,103,3,1,0,1,1.7663623548376,1.8149237449841
"344",13,18,1,2,104,3,2,1,2,0.818915774609387,0.78642530388331
"345",13,35,1,2,105,3,1,0,1,0.992914355368265,0.917182910842465
"346",13,29,1,2,106,3,2,1,3,1.02713723598957,1.05971915719583
"347",13,32,1,2,107,3,1,0,1,1.50266971221778,1.5628817746081
"348",13,39,1,2,108,3,2,1,2,0.708773728084091,0.701691827925102
"349",13,26,1,1,109,2,2,0,2,0.622989644029462,0.646331154053201
"350",13,18,1,1,110,2,2,0,3,0.711280092319219,0.676211853404747
"351",13,23,1,1,111,1,1,1,5,0.336144810115452,0.20576318622712
"352",13,30,1,1,112,3,1,1,3,0.36155650200205,0.305028258267459
"353",13,21,1,1,113,3,1,1,3,0.650912984351757,0.585277965172182
"354",13,18,1,2,114,1,2,1,4,0.578333643515895,0.568067263046165
"355",13,35,1,1,115,2,1,1,4,0.698482854592618,0.772937426699122
"356",13,29,1,1,116,1,2,0,4,0.691244104918342,0.746617614598933
"357",13,32,1,2,117,1,2,1,5,0.504527529621891,0.515745397997763
"358",13,39,1,2,118,2,1,0,3,0.617320728828795,0.744989945589831
"359",13,26,1,1,119,1,1,1,5,0.324115043663571,0.4093791444386
"360",13,18,1,1,120,1,2,0,4,0.576403761357406,0.560329098980834
"361",13,23,1,1,121,1,1,1,4,0.395465092027263,0.345213603750627
"362",13,30,1,2,122,3,1,0,2,1.33997938674654,1.34864785598812
"363",13,21,1,1,123,1,1,1,4,0.317773475582135,0.285152694471135
"364",13,18,1,1,124,2,2,0,3,0.591060881719378,0.500286002038569
"365",13,35,1,2,125,3,2,1,2,0.584979672960651,0.559471739970042
"366",13,29,1,2,126,3,1,0,1,1.23771311217249,1.22784291844519
"367",13,32,1,2,127,1,2,1,4,0.436552182486233,0.425695128196671
"368",13,39,1,1,128,1,1,1,4,0.397412985429293,0.352880918985893
"369",13,26,1,2,129,1,2,1,5,0.333926953779825,0.329496467280947
"370",13,18,1,2,130,2,2,1,3,0.642095126511883,0.670889118956074
"371",13,23,1,1,131,3,1,1,2,0.404868871392292,0.378059607510388
"372",13,30,1,1,132,3,2,0,1,0.686714215056554,0.646944787663929
"373",13,21,1,1,133,1,1,1,5,0.367074045885228,0.333077486520035
"374",13,18,1,2,134,2,2,1,3,0.81112286721246,0.823927744185498
"375",13,35,1,2,135,1,2,1,5,0.292784841856261,0.320170607141481
"376",13,29,1,2,136,1,2,1,5,0.352038956234055,0.372811770279112
"377",13,32,1,2,137,1,2,1,4,0.379791796871914,0.340766672925454
"378",13,39,1,2,138,2,2,1,3,0.493975287644912,0.433458776232585
"379",13,26,1,2,139,1,2,1,4,0.439524088386491,0.408223958455948
"380",13,18,1,1,140,1,2,0,4,0.693151537430911,0.667993973808375
"381",13,23,1,1,141,2,1,1,4,0.403924174578544,0.31117929436005
"382",13,30,1,1,142,3,1,1,3,1.03347503279247,1.01342156210535
"383",13,21,1,1,143,2,1,1,3,0.72474096015481,0.739218714141416
"384",13,18,1,2,144,1,2,1,4,0.438550972713521,0.415711334946295
"385",13,35,1,2,145,3,1,0,1,0.128455720854199,0.0488490171609987
"386",13,29,1,1,146,3,2,0,2,0.136262621152977,0.12744631558152
"387",13,32,1,1,147,3,2,0,2,1.29897624679005,1.30966746242703
"388",13,39,1,1,148,3,2,0,2,0.487143172882349,0.474304732970021
"389",13,26,1,2,149,3,2,1,3,0.749044407811845,0.687320168778444
"390",13,18,1,2,150,3,2,1,3,0.938331443976903,0.90055318380532
"391",13,23,1,1,151,3,1,1,2,0.974448300930571,0.890400644334149
"392",13,30,1,1,152,1,1,1,4,0.426618764226799,0.45028957628957
"393",13,21,1,2,153,3,1,0,1,1.34339454227865,1.39354217109183
"394",13,18,1,1,154,3,1,1,3,0.681299614781615,0.643641053434082
"395",13,35,1,1,155,1,1,1,5,0.292935858312778,0.348179549992814
"396",13,29,1,1,156,1,2,0,4,0.616908744722006,0.651047004413507
"397",13,32,1,2,157,3,1,0,1,0.438328408186384,0.446088281673605
"398",13,39,1,1,158,1,1,1,4,0.359761714480727,0.375539447302389
"399",13,26,1,1,159,1,1,1,4,0.282487493924439,0.357585622819057
"400",13,18,1,1,160,1,1,1,5,0.277426320589576,0.27196449532308
"401",13,23,1,1,161,3,1,1,3,0.859497790564514,0.834845701080697
"402",13,30,1,1,162,1,1,1,4,0.298471507395767,0.3338993863129
"403",13,21,1,2,163,1,2,1,4,0.481970891319669,0.455134028666577
"404",13,18,1,1,164,2,1,1,3,0.378718930897276,0.333491982593652
"405",13,35,1,2,165,3,2,1,2,0.703313928841895,0.679914832581636
"406",13,29,1,2,166,1,2,1,4,0.45912170333933,0.494636591601442
"407",13,32,1,2,167,2,2,1,3,0.867885330205463,0.841414602694172
"408",13,39,1,1,168,2,2,0,3,0.789158312384576,0.854240259022183
"409",13,26,1,1,169,1,1,1,4,0.504368032207219,0.487267495664889
"410",13,18,1,2,170,3,2,1,3,0.978837925644516,0.963871144377957
"411",13,23,1,2,171,3,2,1,3,0.746962972193621,0.691783454267034
"412",13,30,1,2,172,2,2,1,4,0.503882015903239,0.501042985887012
"413",13,21,1,2,173,3,1,0,1,0.514361654039919,0.468058203945774
"414",13,18,1,1,174,1,1,1,5,0.519489685060501,0.432097868778889
"415",13,35,1,1,175,1,1,1,4,0.206221287468921,0.169321405487107
"416",13,29,1,2,176,2,1,0,3,0.823897614134126,0.782448725254539
"417",13,32,1,1,177,1,1,1,5,0.390248901085506,0.355854835934408
"418",13,39,1,2,178,2,2,1,4,0.622062335964133,0.610573986634688
"419",13,26,1,1,179,1,1,1,4,0.457925779176773,0.407788887266584
"420",13,18,1,1,180,2,2,0,3,0.732294261499379,0.759114439795214
"421",13,23,1,2,181,2,2,1,3,0.558047139300679,0.620191400568718
"422",13,30,1,2,182,2,2,1,3,0.406893746613416,0.443214212672847
"423",13,21,1,1,183,2,2,0,2,0.656189295397677,0.648791369828293
"424",13,18,1,2,184,2,2,1,4,0.538346770518032,0.610711210372274
"425",13,35,1,1,185,2,1,1,4,0.624399660370234,0.62265019683231
"426",13,29,1,1,186,2,1,1,3,0.576106861489193,0.549521494377542
"427",13,32,1,1,187,2,1,1,4,0.520111015012204,0.629292750325727
"428",13,39,1,1,188,2,1,1,4,0.529498364162808,0.461149628069273
"429",13,26,1,1,189,3,2,0,2,1.04600602416782,1.08324537071738
"430",13,18,1,1,190,2,1,1,4,0.414737136960849,0.361393783760999
"431",13,23,1,1,191,3,2,0,2,1.1698701553325,1.14601381133326
"432",13,30,1,1,192,2,2,0,3,0.670609122672923,0.667231236217969
"433",13,21,1,2,193,2,1,0,3,1.02542200830766,0.985735320031557
"434",13,18,1,2,194,2,2,1,4,0.732951569069617,0.729441300384218
"435",13,35,1,1,195,3,2,0,2,1.26800141272469,1.25752651495192
"436",13,29,1,1,196,3,2,0,1,0.792168447079492,0.817220620651043
"437",13,32,1,1,197,2,1,1,4,0.479508072251821,0.500904364790697
"438",13,39,1,2,198,3,1,0,1,0.635562601058843,0.576375108257436
"439",13,26,1,2,199,2,2,1,4,0.734852384188314,0.747291976306541
"440",13,18,1,2,200,3,1,0,1,0.741683100186554,0.729328370090877
"441",13,23,1,2,201,2,2,1,3,0.666759550121874,0.69014850102653
"442",13,30,1,1,202,2,1,1,4,0.556876093959954,0.466526246944101
"443",13,21,1,1,203,3,2,0,1,0.603817482218085,0.613596279509771
"444",13,18,1,1,204,1,1,1,5,0.30292137273104,0.261896574895939
"445",13,35,1,1,205,2,1,1,4,0.58423468265386,0.56574636180624
"446",13,29,1,2,206,1,2,1,5,0.424934071029045,0.429442023270871
"447",13,32,1,1,207,3,2,0,1,0.407106409643843,0.402646780572487
"448",13,39,1,1,208,2,1,1,4,0.39877666539798,0.484279043818617
"449",13,26,1,2,209,1,2,1,4,0.365132010359326,0.300126778548454
"450",13,18,1,2,210,3,2,1,3,0.856748519414449,0.834786748950926
"451",13,23,1,1,211,1,1,1,4,0.371972829972654,0.367104817928021
"452",13,30,1,1,212,3,2,0,1,0.706581675876315,0.779256156518221
"453",13,21,1,1,213,1,1,1,5,0.438269360377398,0.530482234359578
"454",13,18,1,1,214,2,1,1,4,0.596792195952633,0.603690558312627
"455",13,35,1,2,215,2,2,1,3,0.679201937798037,0.721255806359426
"456",13,29,1,1,216,2,1,1,4,0.740358123513377,0.74412911188927
"457",13,32,1,2,217,2,2,1,3,0.69659900370101,0.738469431447027
"458",13,39,1,2,218,1,1,0,3,0.621047638089712,0.661498660886044
"459",13,26,1,1,219,1,1,1,5,0.549742271702307,0.616987077530669
"460",13,18,1,1,220,2,2,0,2,0.60334836783728,0.484292681659003
"461",13,23,1,2,221,2,1,0,3,0.596829645428255,0.557979947412567
"462",13,30,1,2,222,3,2,1,2,0.600983758782822,0.57675175863903
"463",13,21,1,2,223,2,2,1,4,0.55475709101757,0.57307708481106
"464",13,18,1,2,224,3,1,0,2,1.37332203441881,1.45540201944681
"465",13,35,1,2,225,3,2,1,2,0.716514718043445,0.687597775844042
"466",13,29,1,1,226,2,1,1,3,0.556023932944376,0.640330933585567
"467",13,32,1,2,227,1,1,0,3,0.444088767346714,0.442674982026104
"468",13,39,1,1,228,3,1,1,2,0.801649490322217,0.802323508106083
"469",13,26,1,1,229,3,2,0,1,0.676185506142432,0.639769470475866
"470",13,18,1,2,230,2,1,0,2,0.498294478928806,0.460311238203653
"471",13,23,1,2,231,2,2,1,4,0.495899999249549,0.560215563947861
"472",13,30,1,2,232,2,1,0,2,0.899126041929886,0.828372664217931
"473",13,21,1,2,233,1,1,0,3,0.436070984618238,0.416589331462886
"474",13,18,1,2,234,3,1,0,2,1.37129038465993,1.39571008562786
"475",13,35,1,1,235,2,2,0,2,0.556704777885833,0.596372702730046
"476",13,29,1,1,236,2,1,1,3,0.50344101900386,0.546714554662819
"477",13,32,1,1,237,1,1,1,5,0.375615349675757,0.387930673553243
"478",13,39,1,1,238,2,1,1,3,0.5304992548614,0.497201559436658
"479",13,26,1,2,239,2,1,0,3,0.573269209763527,0.564555049751851
"480",13,18,1,1,240,3,2,0,1,1.1967518854289,1.20908465665479
"481",12,30,2,2,1,2,1,0,2,0.69254013744217,0.699624161374553
"482",12,18,2,1,2,1,1,1,4,0.366514027278789,0.371336670001635
"483",12,28,2,2,3,2,2,1,4,0.621424637189876,0.562327968904109
"484",12,24,2,1,4,3,2,0,1,1.15570285346568,1.14958346369311
"485",12,25,2,2,5,2,2,1,3,0.70568468268595,0.730809139123876
"486",12,21,2,2,6,2,1,0,3,0.918467186940805,0.888184883068289
"487",12,23,2,2,7,2,1,0,2,0.858462805357796,0.830627627652877
"488",12,36,2,2,8,2,2,1,4,0.57626143136053,0.573279438202423
"489",12,26,2,1,9,3,1,1,2,1.12132446886142,1.126377136613
"490",12,31,2,2,10,1,2,1,5,0.454713139182563,0.431113747429827
"491",12,30,2,1,11,3,1,1,3,0.915589075840603,0.953383081951287
"492",12,18,2,2,12,3,1,0,1,1.00212519736679,1.01891630189814
"493",12,28,2,1,13,2,1,1,3,0.765038765624711,0.814140334060399
"494",12,24,2,2,14,3,1,0,1,1.07939824116609,1.02441945780615
"495",12,25,2,1,15,2,2,0,3,0.605918488886516,0.596991343186599
"496",12,21,2,1,16,3,2,0,2,0.980467061727675,0.979207498017223
"497",12,23,2,2,17,1,2,1,5,0.374464891154662,0.360123178333099
"498",12,36,2,2,18,3,2,1,3,1.12556172508819,1.16544648102056
"499",12,26,2,1,19,1,1,1,4,0.397934836659037,0.378162582291439
"500",12,31,2,2,20,1,2,1,5,0.475737706668492,0.446481488866153
"501",12,30,2,1,21,2,2,0,3,0.552687047580198,0.537305612421345
"502",12,18,2,2,22,1,2,1,4,0.301748920149036,0.332036506335012
"503",12,28,2,2,23,3,1,0,2,1.18177088946603,1.17399831038717
"504",12,24,2,1,24,2,1,1,4,0.63123337031231,0.600405210074826
"505",12,25,2,1,25,1,1,1,5,0.278102877514525,0.286380890706046
"506",12,21,2,2,26,2,1,0,2,0.43406165005421,0.343416569926837
"507",12,23,2,1,27,3,2,0,1,0.578878900054093,0.614862041936945
"508",12,36,2,1,28,3,2,0,2,1.08230916377287,1.15875913795627
"509",12,26,2,2,29,3,2,1,2,0.880922447538383,0.828457046749638
"510",12,31,2,2,30,2,1,0,3,0.635727138938892,0.639878677649504
"511",12,30,2,1,31,1,2,0,3,0.657083591740499,0.609254108720772
"512",12,18,2,1,32,2,1,1,3,0.652503407289693,0.598359771673436
"513",12,28,2,1,33,3,2,0,1,0.635448278068808,0.675420193131611
"514",12,24,2,2,34,1,2,1,4,0.369464037776199,0.367298701022665
"515",12,25,2,1,35,1,1,1,5,0.459954124486868,0.544325854315807
"516",12,21,2,2,36,2,1,0,3,0.735844470581352,0.650998031615768
"517",12,23,2,1,37,3,1,1,3,0.588449018819233,0.55969957349845
"518",12,36,2,2,38,3,1,0,2,0.951442515433102,0.980687567142531
"519",12,26,2,1,39,1,1,1,4,0.383086796227868,0.395752028062473
"520",12,31,2,2,40,2,2,1,3,0.436242164277035,0.414301964019249
"521",12,30,2,1,41,3,2,0,2,1.33598951746875,1.36410173737044
"522",12,18,2,1,42,1,1,1,4,0.381349102602265,0.317774020594081
"523",12,28,2,2,43,3,1,0,1,0.668610134328451,0.685834825285955
"524",12,24,2,2,44,2,1,0,3,0.773510283239933,0.804150321214738
"525",12,25,2,2,45,2,2,1,3,0.73237587798783,0.669446910323867
"526",12,21,2,2,46,2,2,1,4,0.610619512713954,0.565807564223792
"527",12,23,2,1,47,2,1,1,3,0.496410804841782,0.607985191049376
"528",12,36,2,1,48,3,2,0,1,0.790808523121635,0.737930420873104
"529",12,26,2,2,49,3,2,1,3,0.915341845273688,0.844437648628002
"530",12,31,2,1,50,2,1,1,3,0.56739982182664,0.581844188769066
"531",12,30,2,1,51,2,2,0,2,0.826811919538766,0.826310505739202
"532",12,18,2,1,52,1,2,0,3,0.564900801114582,0.622015799666442
"533",12,28,2,1,53,1,2,0,3,0.508489963528504,0.495879026200067
"534",12,24,2,1,54,1,1,1,4,0.249119031828775,0.211137201666671
"535",12,25,2,1,55,3,2,0,1,0.936506508022187,0.976205737935428
"536",12,21,2,1,56,1,1,1,5,0.440931264277161,0.398925614314343
"537",12,23,2,1,57,2,1,1,4,0.670649348050877,0.665738168263802
"538",12,36,2,1,58,2,1,1,4,0.646719578623593,0.724201286108145
"539",12,26,2,2,59,1,2,1,4,0.421234301151258,0.463432727913848
"540",12,31,2,2,60,2,2,1,4,0.675527187482526,0.725568903582871
"541",12,30,2,2,61,1,2,1,5,0.355793605232249,0.38469890157017
"542",12,18,2,1,62,1,1,1,5,0.466599732824803,0.442476850082677
"543",12,28,2,1,63,2,2,0,2,0.908346751285998,0.950593778818735
"544",12,24,2,2,64,2,2,1,4,0.459754621794364,0.464185826673632
"545",12,25,2,2,65,1,2,1,4,0.326661150912431,0.342912938891238
"546",12,21,2,2,66,3,2,1,3,1.03294245994051,0.990952490641011
"547",12,23,2,1,67,3,1,1,2,0.749778407085641,0.728799323669317
"548",12,36,2,1,68,3,1,1,3,0.758366941081584,0.763774565040942
"549",12,26,2,2,69,3,2,1,2,0.72053528679887,0.640621091959797
"550",12,31,2,1,70,1,1,1,4,0.557437112051705,0.528571166550692
"551",12,30,2,2,71,1,2,1,5,0.412617719712736,0.414702282219172
"552",12,18,2,1,72,1,2,0,4,0.444185756721094,0.517589402527355
"553",12,28,2,2,73,1,2,1,4,0.450219687840065,0.410349240677594
"554",12,24,2,1,74,2,2,0,3,0.785713129243811,0.797323770353287
"555",12,25,2,2,75,1,1,0,3,0.691812541657611,0.752714277440582
"556",12,21,2,1,76,2,2,0,3,0.493055339126617,0.443159454628385
"557",12,23,2,2,77,1,2,1,5,0.367845530977216,0.379787109744052
"558",12,36,2,2,78,3,2,1,3,0.546324619219268,0.561592320732012
"559",12,26,2,1,79,2,1,1,4,0.602381609264214,0.644926277784297
"560",12,31,2,2,80,1,2,1,4,0.384455401395817,0.4490661293495
"561",12,30,2,1,81,1,1,1,5,0.428972495845009,0.426858708184298
"562",12,18,2,1,82,3,1,1,3,0.554898421448851,0.565236943116298
"563",12,28,2,2,83,2,1,0,3,0.57632622150676,0.508077035924469
"564",12,24,2,2,84,3,1,0,2,0.983514384193488,0.933798231680157
"565",12,25,2,1,85,3,1,1,3,0.875167835882108,0.986035024372421
"566",12,21,2,1,86,3,1,1,2,0.800797957416506,0.806489694261954
"567",12,23,2,2,87,3,2,1,3,0.79431607246146,0.710939114852982
"568",12,36,2,1,88,3,1,1,3,0.944229790820312,0.940926066946207
"569",12,26,2,2,89,3,1,0,2,1.24101378986016,1.19926874841763
"570",12,31,2,2,90,1,1,0,4,0.516252330853755,0.609610826731428
"571",12,30,2,2,91,2,1,0,2,0.476654061014171,0.501379842988667
"572",12,18,2,1,92,3,2,0,2,1.08783165493677,1.13680605697751
"573",12,28,2,2,93,2,2,1,3,0.606009388156827,0.541452816774508
"574",12,24,2,2,94,2,2,1,3,0.545670931619979,0.588861445622656
"575",12,25,2,2,95,2,1,0,3,0.648150588076173,0.640103147648784
"576",12,21,2,2,96,2,2,1,4,0.723460753378882,0.740084586572135
"577",12,23,2,1,97,2,2,0,2,0.769745157898102,0.693232702010313
"578",12,36,2,2,98,2,2,1,3,0.604427451956667,0.552763642751455
"579",12,26,2,2,99,1,2,1,4,0.293362929313187,0.250255652073435
"580",12,31,2,1,100,2,1,1,3,0.635744623942142,0.6179558350645
"581",12,30,2,2,101,1,2,1,4,0.308573825221758,0.226093589681217
"582",12,18,2,1,102,1,1,1,4,0.488002949785604,0.422526984202648
"583",12,28,2,2,103,1,2,1,5,0.324769823337913,0.321614037508532
"584",12,24,2,1,104,1,1,1,4,0.397792868474492,0.498742101868273
"585",12,25,2,2,105,2,1,0,2,0.69127065028612,0.620476123490851
"586",12,21,2,2,106,2,1,0,3,0.776693878269256,0.696809534048127
"587",12,23,2,1,107,3,1,1,2,0.628039040097565,0.670596781585151
"588",12,36,2,1,108,3,1,1,3,1.19372312063126,1.15337135637618
"589",12,26,2,1,109,2,1,1,3,0.501195738499115,0.446527906517468
"590",12,31,2,1,110,1,1,1,5,0.361147274496831,0.395216468307851
"591",12,30,2,1,111,3,2,0,1,0.616250513274011,0.554858532802987
"592",12,18,2,1,112,3,2,0,2,0.825959858535479,0.892116673370715
"593",12,28,2,2,113,2,1,0,2,0.821083318633356,0.768923491127499
"594",12,24,2,2,114,1,2,1,4,0.297974036791152,0.314893605482064
"595",12,25,2,2,115,1,2,1,4,0.494027933860285,0.515533460528314
"596",12,21,2,2,116,1,1,0,3,0.615780328084927,0.662626880826255
"597",12,23,2,1,117,2,1,1,3,0.596990985618575,0.623847868884343
"598",12,36,2,2,118,2,1,0,2,0.801561626666668,0.741531000546595
"599",12,26,2,2,119,3,1,0,1,1.40442612212835,1.40014875245122
"600",12,31,2,2,120,3,2,1,2,0.78346106261742,0.799823233847153
"601",12,30,2,1,121,3,2,0,2,0.747587218570988,0.725385355449607
"602",12,18,2,1,122,1,2,0,4,0.517028955912401,0.376123108898508
"603",12,28,2,2,123,3,1,0,2,0.83346083392066,0.816955497489059
"604",12,24,2,1,124,3,2,0,1,1.25867148058691,1.26988171714657
"605",12,25,2,2,125,1,2,1,4,0.507931082143425,0.5958023055647
"606",12,21,2,1,126,1,1,1,5,0.40826106107754,0.455362553417652
"607",12,23,2,2,127,1,2,1,4,0.473891425678299,0.522715825923582
"608",12,36,2,2,128,2,1,0,3,0.755069898747703,0.777574027069585
"609",12,26,2,1,129,1,1,1,4,0.374065598991402,0.352734028467965
"610",12,31,2,2,130,2,2,1,4,0.683793341908492,0.725557015210007
"611",12,30,2,1,131,2,1,1,3,0.684706695607563,0.68206601144068
"612",12,18,2,1,132,3,2,0,2,0.534905104007277,0.470130365344364
"613",12,28,2,1,133,3,2,0,2,0.681746523923094,0.703227029124378
"614",12,24,2,1,134,2,2,0,3,0.899544231353447,0.925703508510922
"615",12,25,2,2,135,2,1,0,2,0.598318938912484,0.580891166698157
"616",12,21,2,2,136,2,1,0,2,0.53413603412888,0.552880807461773
"617",12,23,2,2,137,2,2,1,3,0.639513991786775,0.594145884933669
"618",12,36,2,2,138,1,2,1,4,0.427873797622579,0.466502063539004
"619",12,26,2,1,139,2,1,1,4,0.616499603512841,0.620842493352002
"620",12,31,2,2,140,1,1,0,4,0.481993472099249,0.420161541852459
"621",12,30,2,1,141,3,1,1,3,0.683874680600369,0.644799152206254
"622",12,18,2,1,142,2,2,0,3,0.707711837172316,0.690303726850081
"623",12,28,2,2,143,3,1,0,2,1.00286129974618,1.01502420434115
"624",12,24,2,2,144,1,2,1,4,0.365814501731054,0.32207103986792
"625",12,25,2,1,145,3,2,0,1,0.824265876224032,0.754928845416744
"626",12,21,2,1,146,1,1,1,4,0.363380584089387,0.358443866736132
"627",12,23,2,1,147,2,2,0,3,0.562361030163686,0.638707467793133
"628",12,36,2,2,148,3,1,0,1,1.05965641531434,1.01192520911136
"629",12,26,2,2,149,3,1,0,1,0.752682522711262,0.764728971314786
"630",12,31,2,2,150,2,2,1,4,0.632940615971313,0.615235776519781
"631",12,30,2,2,151,1,2,1,5,0.419637648462034,0.3796528629907
"632",12,18,2,1,152,2,1,1,3,0.463129361438931,0.315153586783977
"633",12,28,2,1,153,3,2,0,1,1.47246679869349,1.48144997915637
"634",12,24,2,2,154,1,2,1,4,0.375249302624361,0.365030871798672
"635",12,25,2,1,155,3,2,0,1,1.00567326658391,0.97630501588327
"636",12,21,2,2,156,2,1,0,3,0.689284046979917,0.705735522093519
"637",12,23,2,2,157,1,1,0,4,0.502410514576103,0.627656736239659
"638",12,36,2,1,158,3,2,0,2,0.956469967277111,1.01174193036454
"639",12,26,2,1,159,2,1,1,3,0.633676742282029,0.617294302810081
"640",12,31,2,1,160,3,2,0,2,1.36672983901725,1.35909037234783
"641",12,30,2,1,161,3,2,0,2,0.951794350267387,0.991079277395698
"642",12,18,2,2,162,2,2,1,3,0.577808372050424,0.583849448965774
"643",12,28,2,1,163,1,1,1,5,0.338366021212688,0.289442136223478
"644",12,24,2,2,164,1,2,1,5,0.482151015459172,0.470387567132496
"645",12,25,2,2,165,1,2,1,4,0.335282234423093,0.415938477083587
"646",12,21,2,2,166,3,1,0,2,1.17576549711066,1.2434420347777
"647",12,23,2,1,167,3,2,0,1,1.01018661701305,1.03292688936725
"648",12,36,2,2,168,1,1,0,3,0.58500363064479,0.570068199187574
"649",12,26,2,1,169,3,2,0,2,0.923858882802857,0.943823676576627
"650",12,31,2,1,170,1,1,1,5,0.500895627470903,0.50891823969299
"651",12,30,2,1,171,1,1,1,5,0.368849264245087,0.434584453888539
"652",12,18,2,1,172,3,2,0,1,1.56706706996154,1.53670555697425
"653",12,28,2,1,173,1,1,1,4,0.510278378040565,0.488124914448943
"654",12,24,2,2,174,2,2,1,4,0.668747543739675,0.661489582023104
"655",12,25,2,1,175,3,2,0,2,0.94415337772218,0.92630553270063
"656",12,21,2,1,176,2,2,0,2,0.932131235343211,0.970604812323101
"657",12,23,2,2,177,2,1,0,2,0.498187919749326,0.517285475585709
"658",12,36,2,2,178,3,2,1,2,0.946579246352973,0.993006414281855
"659",12,26,2,2,179,1,2,1,4,0.459985485715646,0.385141964646182
"660",12,31,2,1,180,3,2,0,2,1.27108369194014,1.36445771987677
"661",12,30,2,2,181,1,2,1,4,0.461907651586843,0.373443913462879
"662",12,18,2,2,182,3,2,1,3,0.680271565950636,0.632548651905789
"663",12,28,2,2,183,1,2,1,5,0.453054187811975,0.455645786293311
"664",12,24,2,1,184,2,1,1,3,0.572063879283764,0.550159742805394
"665",12,25,2,2,185,3,1,0,2,1.30828788187218,1.3369381666005
"666",12,21,2,1,186,1,1,1,5,0.458084315093082,0.518678018089154
"667",12,23,2,2,187,2,1,0,3,0.651166258129183,0.628097219761839
"668",12,36,2,2,188,3,1,0,1,0.915473480258757,0.948522893597675
"669",12,26,2,2,189,2,2,1,4,0.589162993910484,0.538990963254485
"670",12,31,2,1,190,2,2,0,2,0.643446906836528,0.708769375212142
"671",12,30,2,2,191,1,2,1,4,0.480294248734542,0.444478390694202
"672",12,18,2,1,192,1,1,1,5,0.365609112224726,0.300922271613594
"673",12,28,2,1,193,3,1,1,3,0.900019605363683,0.896202991101748
"674",12,24,2,2,194,2,1,0,2,0.594822576374536,0.604716231429622
"675",12,25,2,2,195,2,1,0,2,0.875106128729456,0.836976848504699
"676",12,21,2,1,196,2,1,1,3,0.582284410772585,0.550754640528645
"677",12,23,2,2,197,2,2,1,4,0.443586201775544,0.487092508618881
"678",12,36,2,2,198,1,2,1,5,0.474898943509049,0.423972055742315
"679",12,26,2,2,199,2,2,1,3,0.773419065614442,0.773884088766249
"680",12,31,2,1,200,2,1,1,4,0.56758016730851,0.621848075945497
"681",12,30,2,1,201,3,1,1,3,0.917534241600402,0.929676389814577
"682",12,18,2,2,202,1,2,1,5,0.140698247043093,0.124053568304619
"683",12,28,2,1,203,3,2,0,1,0.746304738933532,0.752328937450031
"684",12,24,2,2,204,1,1,0,4,0.592648200920599,0.696954427725806
"685",12,25,2,1,205,2,1,1,3,0.970393051501346,1.00229610458715
"686",12,21,2,1,206,1,1,1,5,0.357750295485941,0.341013527287521
"687",12,23,2,2,207,3,1,0,2,0.190740352694732,0.213066722853937
"688",12,36,2,1,208,2,1,1,4,0.517689882520726,0.518437064995025
"689",12,26,2,1,209,3,2,0,2,1.08403477874029,1.10186309522722
"690",12,31,2,1,210,2,2,0,3,0.564630950442707,0.606747538613823
"691",12,30,2,1,211,2,1,1,4,0.408924674482834,0.372849671145009
"692",12,18,2,2,212,1,2,1,4,0.524080389734233,0.497394707529521
"693",12,28,2,1,213,3,1,1,3,0.507056156233658,0.473284213388917
"694",12,24,2,1,214,1,1,1,4,0.356660836376306,0.290021305410601
"695",12,25,2,1,215,1,2,0,3,0.533815655125602,0.591658213404243
"696",12,21,2,2,216,1,1,0,4,0.525510448486491,0.502069806722069
"697",12,23,2,2,217,1,2,1,4,0.31712496861197,0.323521954600709
"698",12,36,2,1,218,3,1,1,3,0.536269665539824,0.605001793545506
"699",12,26,2,2,219,1,1,0,3,0.459399720532995,0.457175186486734
"700",12,31,2,1,220,2,1,1,3,0.581952591747858,0.538585807663541
"701",12,30,2,1,221,3,2,0,1,1.20926978622501,1.13457712257453
"702",12,18,2,2,222,3,2,1,2,0.884189690953465,0.850955241934723
"703",12,28,2,1,223,3,2,0,2,1.28565141873258,1.35101129824869
"704",12,24,2,1,224,3,2,0,1,0.83607101862087,0.879880473207125
"705",12,25,2,2,225,1,2,1,4,0.300805620211858,0.345850275195276
"706",12,21,2,2,226,1,1,0,4,0.609334328054768,0.600297934195389
"707",12,23,2,2,227,2,2,1,3,0.697936450192747,0.585760039910313
"708",12,36,2,2,228,2,2,1,4,0.375623139077926,0.294917911587018
"709",12,26,2,2,229,1,2,1,4,0.373384980576569,0.439574057605748
"710",12,31,2,1,230,1,2,0,3,0.308644359485291,0.241540864029431
"711",12,30,2,1,231,3,2,0,1,1.11511790708433,1.06959617337312
"712",12,18,2,1,232,1,2,0,3,0.391127975096612,0.359336568202903
"713",12,28,2,1,233,3,2,0,1,1.07755486289501,0.99554632943236
"714",12,24,2,1,234,3,1,1,2,0.99561540750428,1.03610758204637
"715",12,25,2,2,235,1,2,1,5,0.429174392149685,0.424832301428169
"716",12,21,2,1,236,3,1,1,2,0.543679631230266,0.583662101008895
"717",12,23,2,1,237,2,2,0,3,0.712712881068425,0.669593655018043
"718",12,36,2,2,238,1,2,1,4,0.417975051819539,0.374603317873307
"719",12,26,2,2,239,3,2,1,3,0.885817608591661,0.885601425701479
"720",12,31,2,2,240,3,1,0,1,1.42032494026364,1.33685240066488
"721",11,27,1,2,1,3,2,1,3,0.925495095702228,0.975708041214951
"722",11,40,1,2,2,1,2,1,4,0.393506989447055,0.413194442536755
"723",11,30,1,1,3,3,2,0,1,0.323540230936726,0.331734332515546
"724",11,33,1,1,4,2,2,0,2,0.63139045898285,0.559868131554031
"725",11,19,1,1,5,2,1,1,4,0.681398720870423,0.662021367666892
"726",11,30,1,2,6,2,2,1,3,0.546604954183163,0.535997098179182
"727",11,31,1,2,7,2,2,1,3,0.550618885281436,0.516598603166206
"728",11,34,1,1,8,2,2,0,2,0.555388236821051,0.571251473628237
"729",11,34,1,1,9,2,1,1,3,0.685306314583162,0.550157649025529
"730",11,38,1,2,10,2,1,0,2,0.731342206185774,0.695220923456385
"731",11,27,1,2,11,3,2,1,3,0.702996104274952,0.726059057279474
"732",11,40,1,1,12,1,1,1,4,0.423219800228444,0.348083778891074
"733",11,30,1,2,13,2,2,1,3,0.334445547298145,0.328834686876327
"734",11,33,1,1,14,1,2,0,4,0.577994498166345,0.621909025722077
"735",11,19,1,2,15,1,1,0,4,0.491545336968968,0.501703473138532
"736",11,30,1,2,16,2,2,1,4,0.461474706024796,0.433745995141831
"737",11,31,1,2,17,2,1,0,2,0.678844737214879,0.747125694801399
"738",11,34,1,1,18,3,2,0,1,1.30733181323171,1.25077680327267
"739",11,34,1,2,19,2,2,1,4,0.48917086033443,0.473028205284014
"740",11,38,1,1,20,1,1,1,4,0.458250028835056,0.555413336928298
"741",11,27,1,1,21,2,2,0,3,0.555677718941379,0.493725227147899
"742",11,40,1,1,22,2,1,1,4,0.496971080203463,0.552562208392323
"743",11,30,1,1,23,1,1,1,4,0.31043010802718,0.291615242177294
"744",11,33,1,1,24,3,2,0,1,1.45900077861342,1.41159642699377
"745",11,19,1,2,25,1,2,1,4,0.413894733382141,0.468788197948307
"746",11,30,1,2,26,3,2,1,3,0.50764260174355,0.421697744562602
"747",11,31,1,1,27,1,1,1,4,0.40001243587207,0.450782646295243
"748",11,34,1,2,28,1,2,1,4,0.37181561342164,0.386860902385491
"749",11,34,1,2,29,3,2,1,2,0.733841065711314,0.816208320983377
"750",11,38,1,1,30,1,1,1,5,0.366765023827756,0.332512139859966
"751",11,27,1,1,31,3,2,0,2,0.767996515982732,0.72925537481923
"752",11,40,1,1,32,1,1,1,4,0.299413330066563,0.25442772019842
"753",11,30,1,1,33,1,1,1,4,0.30521892997413,0.266813461962863
"754",11,33,1,2,34,2,1,0,2,0.589128827451243,0.632079016062332
"755",11,19,1,1,35,3,1,1,3,0.649353119401658,0.665640088242498
"756",11,30,1,1,36,3,1,1,2,0.466178698365223,0.549631726616561
"757",11,31,1,2,37,3,2,1,3,0.925215671980133,0.925522812829923
"758",11,34,1,2,38,2,2,1,3,0.656862679504538,0.64480465399599
"759",11,34,1,2,39,1,1,0,4,0.585502761979915,0.552978958722745
"760",11,38,1,2,40,2,1,0,3,0.683159131571327,0.655862776590819
"761",11,27,1,1,41,3,1,1,2,1.0697003416531,1.0352399262845
"762",11,40,1,1,42,2,1,1,3,0.687890002010034,0.683659086203055
"763",11,30,1,2,43,2,1,0,3,0.792512089082554,0.764530752132629
"764",11,33,1,2,44,2,2,1,3,0.670630443885525,0.575285961590507
"765",11,19,1,1,45,3,2,0,2,1.06159334579854,1.03529542734491
"766",11,30,1,2,46,3,2,1,2,0.974943038544099,1.00286488680548
"767",11,31,1,2,47,3,1,0,2,0.622124115801865,0.582936406896362
"768",11,34,1,1,48,2,1,1,4,0.621889153635802,0.547582974463085
"769",11,34,1,2,49,1,2,1,4,0.35538565880542,0.384240120615246
"770",11,38,1,1,50,2,1,1,4,0.811398802908635,0.816607610873154
"771",11,27,1,2,51,3,1,0,2,1.02986345874128,1.01657054485643
"772",11,40,1,1,52,3,1,1,2,0.961649486023155,1.01145785180573
"773",11,30,1,1,53,1,2,0,4,0.527569748794182,0.494245865172972
"774",11,33,1,1,54,1,2,0,3,0.662251092488665,0.562645804067861
"775",11,19,1,2,55,2,2,1,4,0.488381837873295,0.510740101924109
"776",11,30,1,1,56,1,1,1,4,0.351746203916053,0.434030074159332
"777",11,31,1,1,57,1,1,1,5,0.404593153785647,0.344042710736323
"778",11,34,1,2,58,2,2,1,3,0.937147258305287,0.926916092532854
"779",11,34,1,2,59,2,2,1,4,0.433673825195729,0.553798649094655
"780",11,38,1,1,60,3,1,1,3,0.587217182115227,0.574590731644928
"781",11,27,1,1,61,1,2,0,3,0.640059113253755,0.652453768493252
"782",11,40,1,1,62,3,2,0,2,0.97893640899178,0.90755066554623
"783",11,30,1,2,63,3,2,1,3,0.573252936752198,0.553868227358373
"784",11,33,1,1,64,2,1,1,4,0.659747358884882,0.74242037520414
"785",11,19,1,2,65,2,2,1,3,0.697182741881011,0.676068182724961
"786",11,30,1,2,66,3,1,0,2,0.49930788710716,0.46107329336004
"787",11,31,1,2,67,3,1,0,1,0.889457455348204,0.918457473656549
"788",11,34,1,1,68,1,1,1,4,0.592673484830453,0.636688467455078
"789",11,34,1,2,69,3,2,1,3,0.641121880079746,0.72515348159881
"790",11,38,1,1,70,1,1,1,4,0.496937609809824,0.474109868505408
"791",11,27,1,1,71,3,2,0,1,1.45894475521971,1.50832250075968
"792",11,40,1,1,72,2,1,1,4,0.538473336723072,0.619000083006469
"793",11,30,1,1,73,3,1,1,2,0.774136833825794,0.742928234204319
"794",11,33,1,1,74,1,1,1,5,0.281528821701472,0.291124350064171
"795",11,19,1,2,75,3,2,1,2,0.614636854735101,0.541626519139982
"796",11,30,1,1,76,1,1,1,5,0.369817811668216,0.365454492589874
"797",11,31,1,1,77,3,2,0,2,0.74002424936068,0.769761300301193
"798",11,34,1,1,78,1,1,1,4,0.343777536852758,0.371187499755009
"799",11,34,1,2,79,1,1,0,4,0.741756658769871,0.650071347205427
"800",11,38,1,2,80,1,2,1,5,0.443483762558373,0.400835965642024
"801",11,27,1,2,81,1,1,0,4,0.483698007157442,0.427309548539988
"802",11,40,1,1,82,1,2,0,3,0.596385868139352,0.556453273673888
"803",11,30,1,1,83,3,1,1,2,0.93797616880613,0.972048249794465
"804",11,33,1,2,84,3,1,0,2,0.723039940663287,0.705680296223143
"805",11,19,1,1,85,1,2,0,4,0.426768931432987,0.310629181366328
"806",11,30,1,2,86,2,2,1,4,0.673423704346908,0.696087644533687
"807",11,31,1,1,87,2,1,1,3,0.632047010496749,0.642499234971372
"808",11,34,1,2,88,3,2,1,2,0.95031021306582,0.940051242843461
"809",11,34,1,1,89,1,2,0,3,0.593165802060274,0.582514043702412
"810",11,38,1,1,90,1,1,1,4,0.318766516933251,0.294335410854753
"811",11,27,1,2,91,2,2,1,4,0.546907955499368,0.57635417326166
"812",11,40,1,1,92,2,2,0,2,0.520584134424717,0.506751951613677
"813",11,30,1,1,93,2,1,1,4,0.439096835636217,0.478839861060213
"814",11,33,1,1,94,1,1,1,4,0.451057567640368,0.434897209759666
"815",11,19,1,1,95,3,2,0,2,1.10419599680932,1.1178888354201
"816",11,30,1,2,96,1,2,1,5,0.384119064674293,0.440226586218876
"817",11,31,1,2,97,2,1,0,2,0.391573012461769,0.315505894319723
"818",11,34,1,2,98,2,2,1,4,0.71110278262126,0.728255319181353
"819",11,34,1,2,99,1,2,1,4,0.524838055097921,0.588012870050584
"820",11,38,1,1,100,1,1,1,4,0.502951753216825,0.518222886020171
"821",11,27,1,2,101,3,1,0,2,1.35911518303495,1.3649919961772
"822",11,40,1,2,102,3,2,1,2,0.92553002883322,0.935636028701659
"823",11,30,1,1,103,2,1,1,3,0.34366596704687,0.375596394920047
"824",11,33,1,2,104,2,1,0,3,0.844357316968708,0.914484875276855
"825",11,19,1,2,105,2,2,1,3,0.452355114259333,0.405232233059536
"826",11,30,1,2,106,3,2,1,2,0.581820587840509,0.49836577463095
"827",11,31,1,1,107,2,2,0,2,0.351006297329833,0.387834334255847
"828",11,34,1,2,108,1,1,0,3,0.599672146844159,0.657120637504326
"829",11,34,1,1,109,2,1,1,4,0.786037064902551,0.818976067772999
"830",11,38,1,2,110,2,2,1,4,0.501221911979048,0.475139182265709
"831",11,27,1,1,111,1,1,1,5,0.364480277917445,0.3992971891932
"832",11,40,1,1,112,1,2,0,4,0.613543773110081,0.594923779176389
"833",11,30,1,2,113,2,2,1,4,0.605357408742639,0.615601705400316
"834",11,33,1,2,114,2,2,1,4,0.499312964867514,0.501088166683566
"835",11,19,1,2,115,2,2,1,3,0.522491128076003,0.493232943250397
"836",11,30,1,1,116,3,1,1,2,0.608843468375511,0.62022071517703
"837",11,31,1,2,117,3,2,1,3,0.808362170840133,0.762034622802322
"838",11,34,1,1,118,3,1,1,3,0.675450295843246,0.680676430884094
"839",11,34,1,2,119,2,1,0,2,0.641363459134499,0.656569849738052
"840",11,38,1,2,120,3,2,1,3,0.603684332925525,0.618369666234247
"841",11,27,1,2,121,2,2,1,4,0.57806987836341,0.526439914598173
"842",11,40,1,2,122,1,2,1,4,0.478021851941845,0.453241010227182
"843",11,30,1,1,123,2,1,1,4,0.740820659226402,0.755534009537398
"844",11,33,1,1,124,1,1,1,4,0.485490680745879,0.410330149186925
"845",11,19,1,2,125,1,2,1,4,0.41256956099499,0.438216708063424
"846",11,30,1,2,126,1,2,1,5,0.292595913955236,0.332377541250164
"847",11,31,1,2,127,1,2,1,4,0.4423848272675,0.524860766709407
"848",11,34,1,1,128,1,2,0,3,0.58546915491892,0.594906637632
"849",11,34,1,2,129,3,1,0,1,1.01565707763592,1.00435399823835
"850",11,38,1,2,130,2,2,1,3,0.675414269666807,0.595074652784666
"851",11,27,1,1,131,1,2,0,3,0.487683439759913,0.509786528761306
"852",11,40,1,2,132,1,2,1,4,0.358109942504826,0.452479337034753
"853",11,30,1,1,133,3,1,1,2,0.768188629544755,0.747744712216315
"854",11,33,1,1,134,1,1,1,4,0.31743675741028,0.291839488497729
"855",11,19,1,1,135,1,1,1,4,0.384699499319074,0.295392902720535
"856",11,30,1,1,136,3,1,1,3,0.738143485493093,0.716236865515716
"857",11,31,1,2,137,2,2,1,4,0.725514966577433,0.749473260034127
"858",11,34,1,1,138,1,1,1,4,0.520735686179273,0.470660579888894
"859",11,34,1,1,139,3,1,1,3,0.672355818726346,0.551293290341557
"860",11,38,1,2,140,1,2,1,5,0.417407145512495,0.373440362750152
"861",11,27,1,2,141,3,2,1,2,0.915872729950791,0.850698523583493
"862",11,40,1,2,142,1,2,1,5,0.305371297343996,0.261570408365617
"863",11,30,1,1,143,1,1,1,5,0.512436705993912,0.422761422805242
"864",11,33,1,2,144,3,1,0,1,0.764545731605727,0.723699720452271
"865",11,19,1,1,145,2,2,0,2,0.567652151686755,0.561101096333894
"866",11,30,1,1,146,1,1,1,5,0.542188277843641,0.447940825186286
"867",11,31,1,2,147,1,2,1,5,0.428409711464383,0.441464737038932
"868",11,34,1,2,148,2,1,0,2,0.741655508911272,0.736583756444217
"869",11,34,1,1,149,1,1,1,4,0.247983649466181,0.351781234504489
"870",11,38,1,2,150,3,2,1,3,0.706132405576594,0.691068253039927
"871",11,27,1,1,151,3,2,0,1,0.263480791962015,0.2448708843767
"872",11,40,1,2,152,2,1,0,3,0.569607909047377,0.598826241332917
"873",11,30,1,2,153,3,1,0,1,0.842468945781717,0.859899264687681
"874",11,33,1,1,154,1,2,0,3,0.589051945235252,0.587421955847899
"875",11,19,1,1,155,3,2,0,2,0.678027952101579,0.75598397098017
"876",11,30,1,1,156,2,1,1,4,0.575117902648905,0.535482384457867
"877",11,31,1,2,157,2,2,1,4,0.420422412948528,0.422549882378451
"878",11,34,1,2,158,3,2,1,2,0.794558149285233,0.733260132683912
"879",11,34,1,2,159,1,2,1,5,0.344460689229807,0.375893925172827
"880",11,38,1,2,160,2,1,0,3,0.823889303916889,0.830738009948147
"881",11,27,1,2,161,2,2,1,3,0.769224934783457,0.816696542658184
"882",11,40,1,2,162,2,1,0,2,0.68820474245857,0.677625119951163
"883",11,30,1,2,163,3,2,1,3,0.550352672058357,0.543792821201438
"884",11,33,1,2,164,3,2,1,3,0.535694258896204,0.49935696073364
"885",11,19,1,2,165,3,1,0,2,0.875890842342169,0.872872281158335
"886",11,30,1,1,166,3,2,0,2,1.40387418863445,1.3914937660529
"887",11,31,1,2,167,1,2,1,4,0.436911852519118,0.469822881146135
"888",11,34,1,1,168,3,1,1,2,0.922465496529246,0.848096558653893
"889",11,34,1,1,169,1,2,0,4,0.581732906742031,0.454858148008608
"890",11,38,1,2,170,3,2,1,3,1.09578664526861,1.08137929366149
"891",11,27,1,2,171,3,1,0,1,0.893873825394145,0.899872712634827
"892",11,40,1,2,172,2,2,1,3,0.703556254555825,0.732049673959415
"893",11,30,1,1,173,3,1,1,2,0.566019110667544,0.540954148494776
"894",11,33,1,2,174,2,2,1,4,0.780095744453007,0.861150410861909
"895",11,19,1,1,175,2,1,1,3,0.802958250516549,0.799561512633988
"896",11,30,1,1,176,3,1,1,2,0.688200733024622,0.744870878640012
"897",11,31,1,1,177,3,2,0,2,1.00399927972504,0.928281208705598
"898",11,34,1,2,178,3,2,1,3,0.908850441147659,0.832706494170911
"899",11,34,1,1,179,2,1,1,4,0.572340433496391,0.656831461703326
"900",11,38,1,1,180,2,1,1,4,0.56783129393605,0.472137678806386
"901",11,27,1,1,181,3,1,1,3,1.00226534280754,0.920003611952413
"902",11,40,1,1,182,2,2,0,3,0.456416154475814,0.48533586844192
"903",11,30,1,2,183,1,2,1,4,0.453621548700421,0.387691054454692
"904",11,33,1,1,184,2,1,1,3,0.563218502847736,0.604233441906542
"905",11,19,1,1,185,3,1,1,3,0.803784860401707,0.723449525769885
"906",11,30,1,2,186,2,1,0,3,0.65492753062672,0.777618422484092
"907",11,31,1,1,187,1,1,1,4,0.417454725396141,0.424038722959946
"908",11,34,1,2,188,2,2,1,4,0.657763452810828,0.695905619627294
"909",11,34,1,2,189,2,2,1,3,0.64536696033555,0.722230436608083
"910",11,38,1,2,190,2,2,1,4,0.668949677156283,0.665841519850046
"911",11,27,1,2,191,2,2,1,3,0.597199499606785,0.550477653865273
"912",11,40,1,1,192,3,2,0,2,1.39569431059383,1.44074567287839
"913",11,30,1,2,193,2,2,1,3,0.514342319009969,0.534400758876797
"914",11,33,1,2,194,3,1,0,2,1.34631690914778,1.37421279144056
"915",11,19,1,2,195,1,1,0,3,0.665199114171845,0.636991051164638
"916",11,30,1,1,196,1,1,1,5,0.271530059253077,0.306360649014731
"917",11,31,1,1,197,2,1,1,3,0.481374853192102,0.510651918896855
"918",11,34,1,2,198,1,2,1,5,0.531326159645938,0.544003246215908
"919",11,34,1,1,199,1,1,1,4,0.393500695770679,0.480303383870667
"920",11,38,1,1,200,2,2,0,3,0.761620734191289,0.748972611057749
"921",11,27,1,2,201,3,2,1,2,1.02471813687434,1.03288105212921
"922",11,40,1,2,202,1,2,1,5,0.599984986994288,0.576139281039932
"923",11,30,1,1,203,3,2,0,2,0.61113216956082,0.641651755579788
"924",11,33,1,1,204,1,1,1,4,0.244330029346081,0.250281331854325
"925",11,19,1,2,205,3,1,0,1,1.7983558153817,1.82479748202824
"926",11,30,1,2,206,3,2,1,2,0.854915088662999,0.908611142698112
"927",11,31,1,2,207,1,2,1,5,0.426806497393881,0.426726178479911
"928",11,34,1,2,208,2,1,0,3,0.525132773377628,0.537973427953785
"929",11,34,1,2,209,2,2,1,3,0.542014357008649,0.563768485980757
"930",11,38,1,2,210,2,2,1,3,0.803549431691316,0.763818500061881
"931",11,27,1,2,211,1,2,1,4,0.453946320308248,0.469111576419388
"932",11,40,1,2,212,3,2,1,2,0.579517558096073,0.533979390924861
"933",11,30,1,1,213,3,2,0,1,1.17324126578337,1.17293739517403
"934",11,33,1,1,214,2,2,0,2,0.737256263473953,0.692959235471154
"935",11,19,1,1,215,2,2,0,2,0.857865391547467,0.90310495590963
"936",11,30,1,1,216,1,2,0,4,0.480004418780335,0.506576985293751
"937",11,31,1,1,217,1,1,1,4,0.345704570590291,0.383762249650619
"938",11,34,1,1,218,2,2,0,2,0.890128013568116,0.867358923169009
"939",11,34,1,1,219,3,1,1,3,0.414699125712052,0.383705627180257
"940",11,38,1,1,220,2,1,1,4,0.554869225570141,0.562317784448968
"941",11,27,1,1,221,2,2,0,2,0.74476158723775,0.721472259704579
"942",11,40,1,1,222,3,2,0,2,0.548815450266185,0.514747244791937
"943",11,30,1,1,223,1,1,1,4,0.452449734459319,0.40782750994731
"944",11,33,1,1,224,3,2,0,1,1.21069576814369,1.2704244199237
"945",11,19,1,2,225,3,1,0,1,1.69647922046667,1.6642458375457
"946",11,30,1,2,226,1,2,1,4,0.517993329216739,0.534410658493856
"947",11,31,1,1,227,3,1,1,2,1.06123699092195,1.10753887541595
"948",11,34,1,2,228,1,2,1,4,0.331358940511521,0.41850397511833
"949",11,34,1,1,229,1,1,1,4,0.292557227573935,0.37713255846297
"950",11,38,1,2,230,3,2,1,2,0.89541745768258,0.923412851219852
"951",11,27,1,1,231,3,1,1,3,0.885637753042561,0.892512167365226
"952",11,40,1,2,232,3,2,1,2,0.622546798329405,0.56092945008245
"953",11,30,1,1,233,1,1,1,5,0.30309983765364,0.269896673694225
"954",11,33,1,1,234,3,1,1,3,0.396724685400103,0.356911253255079
"955",11,19,1,2,235,1,2,1,5,0.325057858846351,0.44867505110594
"956",11,30,1,2,236,1,2,1,4,0.436586706347761,0.416991798694265
"957",11,31,1,1,237,2,1,1,3,0.583725218461444,0.657079966487754
"958",11,34,1,2,238,1,2,1,5,0.310681768233368,0.319234129101678
"959",11,34,1,1,239,1,1,1,4,0.452516339757073,0.378906935381109
"960",11,38,1,1,240,3,1,1,2,0.622463246241977,0.61165418682325
"961",10,23,2,2,1,2,1,0,2,0.607614943256334,0.644375420617055
"962",10,36,2,1,2,3,2,0,1,0.709003690648685,0.709635834402646
"963",10,38,2,2,3,2,2,1,4,0.623201343356036,0.659813796203654
"964",10,25,2,2,4,1,1,0,3,0.688075932617567,0.65884212399094
"965",10,20,2,1,5,2,1,1,4,0.729647977614218,0.690004498951564
"966",10,40,2,1,6,1,1,1,5,0.409868386653865,0.42840863431723
"967",10,23,2,2,7,3,1,0,2,0.731638088206367,0.842601544972388
"968",10,20,2,2,8,1,1,0,4,0.443952475990547,0.492088502676117
"969",10,40,2,2,9,3,1,0,1,1.34663842111463,1.30998525476369
"970",10,23,2,2,10,1,1,0,4,0.569362745180381,0.62759366203244
"971",10,23,2,1,11,1,1,1,5,0.346703072254113,0.315573030249009
"972",10,36,2,1,12,2,2,0,2,0.742877026058049,0.770711772831353
"973",10,38,2,2,13,3,1,0,1,0.99696099209907,1.03169175693058
"974",10,25,2,2,14,2,2,1,3,0.6421189212578,0.747216445777587
"975",10,20,2,1,15,2,2,0,3,0.840221102554756,0.841043305794056
"976",10,40,2,1,16,2,1,1,4,0.591093908532666,0.657109384108507
"977",10,23,2,1,17,1,1,1,4,0.611222703128785,0.647788602028269
"978",10,20,2,2,18,1,2,1,5,0.481894354998255,0.496174255862047
"979",10,40,2,1,19,1,1,1,4,0.387171006440054,0.344103568957187
"980",10,23,2,1,20,1,2,0,4,0.626453324415254,0.58210778951464
"981",10,23,2,2,21,3,2,1,3,0.327720792917462,0.357158098826698
"982",10,36,2,1,22,1,1,1,5,0.455750739300231,0.464471521984688
"983",10,38,2,2,23,1,2,1,4,0.40837268237081,0.449921589099822
"984",10,25,2,2,24,3,2,1,2,0.574115282410826,0.556022920851687
"985",10,20,2,1,25,2,2,0,3,1.01032221861057,1.03176969487761
"986",10,40,2,1,26,2,1,1,4,0.664281647685352,0.539796876446213
"987",10,23,2,1,27,3,2,0,2,0.363580392302839,0.270201450971137
"988",10,20,2,1,28,1,1,1,5,0.5618533313372,0.423211857021066
"989",10,40,2,1,29,2,2,0,2,0.738129859752472,0.657586676142396
"990",10,23,2,1,30,2,1,1,3,0.764468335022627,0.777838736497393
"991",10,23,2,1,31,1,1,1,5,0.357697176473411,0.372386335732105
"992",10,36,2,2,32,1,1,0,4,0.610569746428827,0.686348969772736
"993",10,38,2,1,33,1,1,1,4,0.325982420781719,0.33984348203935
"994",10,25,2,1,34,1,1,1,5,0.404291361346831,0.427859103047825
"995",10,20,2,2,35,1,2,1,5,0.400538388932855,0.456826677966525
"996",10,40,2,2,36,2,2,1,4,0.345243242612696,0.413131330475029
"997",10,23,2,1,37,1,1,1,4,0.400560349209375,0.409012960906922
"998",10,20,2,2,38,3,1,0,1,1.14269255315762,1.08251767446616
"999",10,40,2,1,39,1,1,1,4,0.349436275585413,0.322323975377082
"1000",10,23,2,1,40,1,1,1,5,0.323634222219537,0.313288372251119
"1001",10,23,2,1,41,1,2,0,4,0.476460698878079,0.459177060882036
"1002",10,36,2,2,42,3,2,1,3,0.500213940072176,0.520388961493181
"1003",10,38,2,1,43,2,2,0,2,0.685351504397382,0.621800431761258
"1004",10,25,2,2,44,1,1,0,4,0.59257261646032,0.655364188796022
"1005",10,20,2,2,45,3,1,0,1,0.597877238812866,0.627110922774536
"1006",10,40,2,2,46,3,2,1,2,0.908052728715827,0.952619309709671
"1007",10,23,2,1,47,3,2,0,1,0.644122677805534,0.608514708235757
"1008",10,20,2,2,48,3,1,0,1,0.334055672302499,0.38838830705153
"1009",10,40,2,1,49,3,1,1,2,0.624890659883099,0.645025065338988
"1010",10,23,2,2,50,2,1,0,2,0.5569056333427,0.564253922055831
"1011",10,23,2,2,51,3,2,1,2,0.911362285473987,0.931403252712165
"1012",10,36,2,1,52,2,1,1,4,0.596018526828819,0.510733626176995
"1013",10,38,2,2,53,2,1,0,2,0.883815310224645,0.892360743327089
"1014",10,25,2,2,54,1,2,1,5,0.335169347723035,0.361428291904552
"1015",10,20,2,2,55,2,2,1,4,0.704454726677762,0.702559141166974
"1016",10,40,2,1,56,2,2,0,3,0.69476067347048,0.793781311825982
"1017",10,23,2,1,57,1,1,1,5,0.445639596815912,0.453179564534058
"1018",10,20,2,1,58,2,1,1,4,0.749589630923082,0.79779911840147
"1019",10,40,2,1,59,3,2,0,1,0.568534597792706,0.586682876088424
"1020",10,23,2,1,60,3,2,0,2,0.641264271818936,0.671123868818484
"1021",10,23,2,1,61,1,1,1,4,0.312065459971303,0.32894963394767
"1022",10,36,2,2,62,3,1,0,2,1.60844131414771,1.63201771027594
"1023",10,38,2,1,63,2,2,0,3,0.805195829746215,0.803291825510788
"1024",10,25,2,2,64,2,1,0,3,0.612223246565237,0.605593431087221
"1025",10,20,2,2,65,3,2,1,2,0.678516496449543,0.623197134932529
"1026",10,40,2,2,66,2,2,1,3,0.63499179334671,0.715821291636375
"1027",10,23,2,2,67,2,2,1,4,0.555285806719682,0.568554839469464
"1028",10,20,2,1,68,3,2,0,1,1.27402864305213,1.19883693228489
"1029",10,40,2,1,69,3,1,1,2,0.219311959765489,0.116359458543236
"1030",10,23,2,1,70,1,1,1,4,0.33580444498102,0.383299922017017
"1031",10,23,2,2,71,1,2,1,5,0.471202742586779,0.45225452342946
"1032",10,36,2,1,72,3,1,1,3,1.03017111371023,1.01562702033324
"1033",10,38,2,2,73,2,1,0,3,0.703835674275394,0.695275854690947
"1034",10,25,2,2,74,2,2,1,3,0.516324508713217,0.522421204740443
"1035",10,20,2,1,75,1,1,1,4,0.447349020433378,0.429246448035979
"1036",10,40,2,1,76,2,2,0,3,0.492185067467804,0.48364761822765
"1037",10,23,2,2,77,1,2,1,5,0.383958644207931,0.330026782292318
"1038",10,20,2,2,78,1,1,0,3,0.587853922597692,0.592629501816962
"1039",10,40,2,1,79,3,2,0,2,0.946251901562454,0.990827687760673
"1040",10,23,2,1,80,2,2,0,2,0.749904644150338,0.745266810733329
"1041",10,23,2,1,81,2,2,0,3,0.485144360170986,0.433188776277427
"1042",10,36,2,2,82,2,2,1,4,0.484459508000181,0.544343016548334
"1043",10,38,2,2,83,3,2,1,3,0.781701098376676,0.730229915093164
"1044",10,25,2,2,84,2,2,1,4,0.740147085658572,0.799642476910665
"1045",10,20,2,1,85,3,2,0,2,1.91458042542412,1.88383752939241
"1046",10,40,2,2,86,2,1,0,2,0.553737935501264,0.584202883383792
"1047",10,23,2,2,87,2,1,0,3,0.547247347281847,0.586262046950519
"1048",10,20,2,1,88,1,1,1,4,0.317610208864168,0.261788269932247
"1049",10,40,2,1,89,2,1,1,3,0.540301588936584,0.482670425209992
"1050",10,23,2,1,90,1,1,1,4,0.390166084604744,0.423199014623739
"1051",10,23,2,1,91,1,1,1,4,0.466199135535203,0.419893301595428
"1052",10,36,2,2,92,1,2,1,5,0.409720009364351,0.327022359191241
"1053",10,38,2,1,93,1,1,1,5,0.336501536787141,0.345849709971051
"1054",10,25,2,1,94,3,2,0,2,0.457969688319137,0.385125138403805
"1055",10,20,2,1,95,1,1,1,4,0.412032398502611,0.409943616797558
"1056",10,40,2,1,96,1,2,0,3,0.666323491077492,0.692660039898015
"1057",10,23,2,2,97,2,1,0,3,0.795658023202606,0.818287982570988
"1058",10,20,2,1,98,3,1,1,3,0.608571705140329,0.686026584830149
"1059",10,40,2,1,99,1,1,1,4,0.473768287161419,0.466086563892372
"1060",10,23,2,2,100,1,2,1,5,0.479980401471415,0.505041129580571
"1061",10,23,2,2,101,1,2,1,5,0.439443077138936,0.416286306917378
"1062",10,36,2,2,102,1,2,1,4,0.424194149764179,0.498701457671717
"1063",10,38,2,2,103,1,1,0,4,0.436428708391534,0.360546020734426
"1064",10,25,2,1,104,1,1,1,5,0.418444746114172,0.372403199056792
"1065",10,20,2,1,105,1,1,1,5,0.293013754525174,0.30339745450116
"1066",10,40,2,1,106,1,1,1,5,0.582502902193565,0.657357256197998
"1067",10,23,2,1,107,2,1,1,4,0.534374711870443,0.557470441352825
"1068",10,20,2,2,108,1,2,1,5,0.336064367008089,0.359906835597783
"1069",10,40,2,1,109,3,2,0,1,1.29100895091868,1.23321891750019
"1070",10,23,2,1,110,2,1,1,3,0.725975080822472,0.753190400665631
"1071",10,23,2,2,111,2,1,0,3,0.576441647706063,0.603919585998974
"1072",10,36,2,1,112,3,1,1,3,1.2973702667461,1.24971896402346
"1073",10,38,2,2,113,3,2,1,2,0.832990021941063,0.91028851046002
"1074",10,25,2,1,114,2,2,0,2,0.542661475890517,0.535634878942645
"1075",10,20,2,1,115,3,2,0,1,1.35553840206915,1.36191455114773
"1076",10,40,2,2,116,3,1,0,1,1.29315232255548,1.328906348537
"1077",10,23,2,2,117,2,1,0,2,0.193095073540954,0.191327680134729
"1078",10,20,2,1,118,3,1,1,3,0.602234453232209,0.624800206210683
"1079",10,40,2,2,119,3,2,1,3,0.222090870059849,0.175869763500009
"1080",10,23,2,2,120,1,2,1,4,0.362065425061623,0.314093094559383
"1081",10,23,2,1,121,1,1,1,5,0.338201041764599,0.394323153445564
"1082",10,36,2,2,122,2,2,1,4,0.670427646172276,0.725042157831882
"1083",10,38,2,2,123,2,1,0,3,1.02164257708029,0.968585509052707
"1084",10,25,2,2,124,2,2,1,3,0.527589524118988,0.532116941515563
"1085",10,20,2,2,125,3,2,1,2,0.690219811365698,0.806042705197932
"1086",10,40,2,1,126,1,1,1,5,0.489730403781178,0.536068674113533
"1087",10,23,2,1,127,3,1,1,3,0.742156817525633,0.724192184367136
"1088",10,20,2,1,128,3,2,0,2,1.11807141092035,1.01007532541807
"1089",10,40,2,1,129,2,2,0,3,0.635707108165646,0.501851898369953
"1090",10,23,2,2,130,1,2,1,5,0.380205430497236,0.369836880311648
"1091",10,23,2,1,131,1,1,1,4,0.331750810185399,0.368717560878806
"1092",10,36,2,1,132,2,1,1,3,0.568641322080733,0.521722102240533
"1093",10,38,2,2,133,3,1,0,1,0.834445640282511,0.793514949735925
"1094",10,25,2,2,134,2,1,0,3,0.517211452139499,0.607853116543782
"1095",10,20,2,2,135,1,2,1,5,0.472808880258042,0.454603092903595
"1096",10,40,2,2,136,3,2,1,2,0.722992831602636,0.781235429565298
"1097",10,23,2,1,137,2,2,0,3,0.847214480252215,0.848024762874557
"1098",10,20,2,2,138,3,2,1,3,0.715650875790844,0.748376171396751
"1099",10,40,2,2,139,2,2,1,4,0.48778777776615,0.461993162257403
"1100",10,23,2,1,140,3,2,0,2,0.461789122666009,0.470731462241291
"1101",10,23,2,2,141,2,2,1,3,0.594193901087024,0.648936070858187
"1102",10,36,2,2,142,2,1,0,3,0.323221071931271,0.355044777425046
"1103",10,38,2,1,143,2,2,0,3,0.675680719374842,0.656276647012521
"1104",10,25,2,2,144,1,2,1,5,0.446713702081305,0.458746098162971
"1105",10,20,2,1,145,2,1,1,3,0.759247299816847,0.782252967625834
"1106",10,40,2,1,146,2,2,0,2,0.910926790043365,0.832251134009114
"1107",10,23,2,1,147,3,1,1,3,0.407681540262191,0.35424717968132
"1108",10,20,2,2,148,3,2,1,2,0.510287537430188,0.518608388088771
"1109",10,40,2,1,149,3,1,1,2,1.09781942249003,1.12627813868952
"1110",10,23,2,2,150,3,2,1,2,0.552914086122541,0.54750033376591
"1111",10,23,2,2,151,3,1,0,1,1.01542119289405,1.07834250674251
"1112",10,36,2,1,152,3,1,1,2,0.666994748408376,0.649283997050929
"1113",10,38,2,2,153,1,2,1,5,0.457113178199557,0.465528365732907
"1114",10,25,2,2,154,3,1,0,2,1.03947212380859,1.01480159581561
"1115",10,20,2,1,155,3,2,0,1,0.92757502554708,0.914839152815999
"1116",10,40,2,2,156,3,1,0,2,1.87401849855066,1.85305039610859
"1117",10,23,2,2,157,1,2,1,5,0.477071084146645,0.557865541194064
"1118",10,20,2,1,158,3,1,1,2,0.914170397115113,0.930496900486278
"1119",10,40,2,1,159,3,1,1,2,1.18868301233632,1.15464727842022
"1120",10,23,2,2,160,1,1,0,4,0.557932424708794,0.479187163257192
"1121",10,23,2,2,161,3,1,0,2,0.937677160473614,0.931796116137931
"1122",10,36,2,2,162,1,2,1,5,0.429393745151196,0.431117482225241
"1123",10,38,2,1,163,2,1,1,4,0.526725480095653,0.570821398981994
"1124",10,25,2,1,164,1,1,1,4,0.434591809550306,0.411498870460353
"1125",10,20,2,2,165,3,2,1,2,0.684042290792983,0.623863238051741
"1126",10,40,2,2,166,1,2,1,5,0.339181170728668,0.359192756474645
"1127",10,23,2,1,167,1,2,0,4,0.535676456740113,0.533067450406284
"1128",10,20,2,1,168,1,1,1,5,0.376046054876379,0.378858256728902
"1129",10,40,2,2,169,2,2,1,3,0.806902566471629,0.765979023285008
"1130",10,23,2,2,170,3,1,0,2,0.855112919567227,0.926508275021911
"1131",10,23,2,1,171,3,1,1,3,0.741193841290214,0.725157853937828
"1132",10,36,2,1,172,2,2,0,3,0.964202138934949,0.873730926167823
"1133",10,38,2,2,173,1,2,1,4,0.469057604913454,0.490506614743264
"1134",10,25,2,2,174,2,1,0,3,0.879890963375822,0.925766440169248
"1135",10,20,2,2,175,2,2,1,4,0.728949610586162,0.661241030457389
"1136",10,40,2,2,176,3,2,1,2,0.620190847530879,0.607938686796984
"1137",10,23,2,2,177,2,1,0,2,0.639304680060488,0.697928052975532
"1138",10,20,2,1,178,1,2,0,3,0.467570269383394,0.404976627463404
"1139",10,40,2,1,179,1,1,1,5,0.426299497946765,0.459008202081269
"1140",10,23,2,2,180,1,2,1,5,0.330614179094453,0.256791189401766
"1141",10,23,2,1,181,3,1,1,3,0.83658215282336,0.816824187865686
"1142",10,36,2,2,182,3,2,1,3,0.922727832348167,0.923894909464734
"1143",10,38,2,2,183,2,1,0,2,0.566726215573437,0.57527802861946
"1144",10,25,2,1,184,1,2,0,4,0.566248843625115,0.543125179199453
"1145",10,20,2,2,185,3,1,0,1,0.941515787522662,0.930748134951527
"1146",10,40,2,1,186,2,2,0,2,0.832893224991899,0.827346190202017
"1147",10,23,2,1,187,2,1,1,4,0.667254257763472,0.787253447354669
"1148",10,20,2,2,188,1,2,1,4,0.301439309586135,0.254705941614149
"1149",10,40,2,2,189,3,2,1,3,0.848160817230081,0.922046469951626
"1150",10,23,2,1,190,2,1,1,4,0.496157219158736,0.489343137952939
"1151",10,23,2,1,191,2,1,1,3,0.586845406160137,0.599698062533184
"1152",10,36,2,2,192,3,1,0,2,1.42471140496307,1.42558715772728
"1153",10,38,2,1,193,2,1,1,3,0.535854853374363,0.477239619233211
"1154",10,25,2,2,194,1,2,1,4,0.459649595221168,0.414863034155811
"1155",10,20,2,1,195,3,1,1,2,0.774746042101871,0.746814861755516
"1156",10,40,2,2,196,3,1,0,2,1.28726758227933,1.25942271077066
"1157",10,23,2,2,197,3,2,1,3,0.904819528778006,0.785131815343387
"1158",10,20,2,1,198,2,2,0,2,0.816467389082345,0.905918087995954
"1159",10,40,2,2,199,1,2,1,5,0.445509205555596,0.460229655389613
"1160",10,23,2,1,200,3,1,1,2,0.983236590934209,0.872030543723186
"1161",10,23,2,2,201,1,2,1,4,0.254005036220431,0.313164741467547
"1162",10,36,2,2,202,1,2,1,4,0.273323352154941,0.233323425327531
"1163",10,38,2,2,203,3,2,1,3,0.949226948678084,0.918796917285508
"1164",10,25,2,1,204,3,2,0,2,1.39494000851202,1.39219533061467
"1165",10,20,2,2,205,2,1,0,3,0.858222033590337,0.836735710006786
"1166",10,40,2,2,206,2,1,0,3,0.703372376116182,0.724600451115583
"1167",10,23,2,2,207,2,1,0,2,0.54769291634373,0.538744427863781
"1168",10,20,2,1,208,3,1,1,2,0.570355656967762,0.588643998168114
"1169",10,40,2,2,209,2,2,1,3,0.706353489623875,0.749250623985601
"1170",10,23,2,2,210,3,1,0,2,0.981922533638404,1.01298561043442
"1171",10,23,2,2,211,2,1,0,2,0.671686434269943,0.639841964589454
"1172",10,36,2,2,212,2,1,0,2,0.699719880363334,0.619896125409732
"1173",10,38,2,2,213,2,2,1,4,0.574769627411864,0.582860033091761
"1174",10,25,2,1,214,3,2,0,1,0.97306355595806,1.01429027891221
"1175",10,20,2,2,215,3,2,1,3,0.91020537231494,0.943329540306477
"1176",10,40,2,2,216,1,2,1,5,0.429907942066246,0.453169642778507
"1177",10,23,2,1,217,3,1,1,2,0.723650069397173,0.75477333208769
"1178",10,20,2,1,218,3,1,1,3,0.802430814824303,0.878334391613871
"1179",10,40,2,1,219,2,1,1,4,0.523903635374852,0.547155211749648
"1180",10,23,2,2,220,2,2,1,3,0.467086912324669,0.492270956702563
"1181",10,23,2,1,221,1,1,1,5,0.387664873471317,0.376231962754709
"1182",10,36,2,2,222,1,2,1,5,0.503718536533976,0.444588065591688
"1183",10,38,2,2,223,2,2,1,3,0.570387071302855,0.545811018716612
"1184",10,25,2,1,224,1,1,1,5,0.473269780455384,0.398538046145716
"1185",10,20,2,1,225,3,1,1,3,0.69918013878324,0.717013924288811
"1186",10,40,2,1,226,1,1,1,5,0.416538342112573,0.391568821650417
"1187",10,23,2,2,227,2,2,1,3,0.417188384801378,0.378370072943806
"1188",10,20,2,1,228,2,1,1,3,0.529460662662655,0.504377557949861
"1189",10,40,2,1,229,3,2,0,2,0.993038526826201,1.00079741262425
"1190",10,23,2,2,230,1,2,1,5,0.232439803409586,0.175206782425145
"1191",10,23,2,1,231,1,1,1,5,0.457681401647672,0.520509919111424
"1192",10,36,2,2,232,3,1,0,2,0.362783386171308,0.299466912173158
"1193",10,38,2,2,233,3,1,0,2,0.737894768201262,0.726301273561449
"1194",10,25,2,1,234,1,1,1,4,0.420214983243723,0.432105139315837
"1195",10,20,2,1,235,2,2,0,2,0.613570557821651,0.66104434343655
"1196",10,40,2,1,236,3,2,0,1,1.36973695243014,1.35160308624999
"1197",10,23,2,2,237,2,2,1,4,0.524990174239759,0.385077193645985
"1198",10,20,2,1,238,3,1,1,3,0.829970837347903,0.898203856265522
"1199",10,40,2,1,239,2,1,1,4,0.610758377581147,0.597785864281855
"1200",10,23,2,1,240,1,1,1,5,0.436070959495963,0.444225949250955
"1201",9,34,1,2,1,1,2,1,4,0.40921431300055,0.421868872544299
"1202",9,26,1,1,2,1,1,1,5,0.389465282410816,0.323201167709352
"1203",9,37,1,2,3,3,1,0,2,1.56539074808952,1.64242934163671
"1204",9,33,1,1,4,2,1,1,3,0.664727700581641,0.667687667521232
"1205",9,38,1,2,5,2,2,1,3,0.646166908494568,0.641408969893833
"1206",9,35,1,1,6,2,2,0,2,0.780621600485562,0.796283548005086
"1207",9,35,1,2,7,2,2,1,4,0.48360374327249,0.560275194989441
"1208",9,31,1,2,8,1,2,1,5,0.380001855458798,0.380675891832914
"1209",9,28,1,2,9,2,1,0,2,0.817424787137749,0.85199198488582
"1210",9,31,1,1,10,3,2,0,1,0.885659799684401,0.903352118678124
"1211",9,34,1,2,11,3,1,0,1,0.785089258307602,0.775162352257551
"1212",9,26,1,2,12,3,2,1,2,1.07131540478459,1.11787609704382
"1213",9,37,1,1,13,3,1,1,3,0.789743931223324,0.770504594839837
"1214",9,33,1,2,14,2,1,0,2,0.917101322596957,0.860682060462196
"1215",9,38,1,2,15,2,1,0,3,0.47348688955752,0.432041186041285
"1216",9,35,1,2,16,2,1,0,3,0.531913106066788,0.554080364604284
"1217",9,35,1,1,17,2,2,0,2,0.634259939702093,0.615307831964883
"1218",9,31,1,1,18,1,1,1,4,0.320762019954493,0.382143622733556
"1219",9,28,1,2,19,2,2,1,4,0.348192445209188,0.361500800540551
"1220",9,31,1,2,20,2,2,1,3,0.661755191973678,0.680145317562247
"1221",9,34,1,2,21,1,2,1,4,0.442539159292726,0.434971195712604
"1222",9,26,1,2,22,3,1,0,2,0.864367458569315,0.821455735938683
"1223",9,37,1,2,23,2,1,0,3,0.45508614326555,0.528147846640451
"1224",9,33,1,2,24,1,1,0,3,0.550773240007784,0.576083343539786
"1225",9,38,1,2,25,3,2,1,3,0.764489384801263,0.786707089556218
"1226",9,35,1,2,26,1,2,1,4,0.423228894775366,0.454490739956841
"1227",9,35,1,2,27,3,1,0,2,0.747788843845573,0.894752011292851
"1228",9,31,1,1,28,1,2,0,3,0.443159703237753,0.470462274000946
"1229",9,28,1,1,29,3,1,1,3,0.822373554837206,0.842542147036969
"1230",9,31,1,2,30,3,2,1,2,0.58070863075167,0.56730973730025
"1231",9,34,1,1,31,1,2,0,3,0.648357674706184,0.649852938223964
"1232",9,26,1,1,32,3,2,0,2,0.364302598853308,0.301819117661564
"1233",9,37,1,1,33,1,1,1,4,0.315172560953205,0.319507216546146
"1234",9,33,1,2,34,2,1,0,2,0.605399868185362,0.621330251477529
"1235",9,38,1,2,35,1,1,0,4,0.65769736828452,0.698418402363777
"1236",9,35,1,2,36,2,1,0,3,0.793430299019759,0.754284606293602
"1237",9,35,1,1,37,2,1,1,4,0.680131686732947,0.832039876771686
"1238",9,31,1,1,38,3,1,1,3,1.00679174794606,1.0522275142132
"1239",9,28,1,1,39,3,2,0,2,1.52565198339951,1.55210310523157
"1240",9,31,1,1,40,1,1,1,5,0.424528740800203,0.425861904683901
"1241",9,34,1,2,41,1,2,1,5,0.409240817580505,0.323255551564772
"1242",9,26,1,2,42,1,2,1,4,0.434237515372834,0.488721729127413
"1243",9,37,1,1,43,2,1,1,4,0.558496420182479,0.640861846293967
"1244",9,33,1,1,44,1,1,1,4,0.424367804842972,0.448832401165951
"1245",9,38,1,1,45,2,1,1,3,0.595207311976853,0.608909994102494
"1246",9,35,1,2,46,3,1,0,1,1.12367625783622,1.08359221008812
"1247",9,35,1,1,47,2,1,1,4,0.504135379090654,0.425228051028155
"1248",9,31,1,1,48,2,1,1,3,0.722687760825814,0.762138679151614
"1249",9,28,1,1,49,2,1,1,4,0.605950215294634,0.609356376736994
"1250",9,31,1,1,50,2,1,1,4,0.672192475417841,0.703581590059494
"1251",9,34,1,2,51,1,2,1,5,0.457080809929412,0.409840192414118
"1252",9,26,1,1,52,3,1,1,2,0.878425939575066,0.903622911533463
"1253",9,37,1,2,53,1,1,0,4,0.562620200248107,0.546134668160225
"1254",9,33,1,2,54,1,2,1,4,0.461929868145489,0.447409149362636
"1255",9,38,1,2,55,2,2,1,3,0.714296605817244,0.670329190375058
"1256",9,35,1,1,56,1,1,1,5,0.480769475077991,0.532173223586902
"1257",9,35,1,2,57,1,2,1,5,0.454920384896033,0.385568090585764
"1258",9,31,1,2,58,3,1,0,2,0.680329505875203,0.620525266911828
"1259",9,28,1,2,59,2,1,0,2,0.474502573971494,0.539286099232127
"1260",9,31,1,2,60,1,2,1,5,0.384985939862256,0.359014975124853
"1261",9,34,1,1,61,2,1,1,4,0.847481509877825,0.827538409496521
"1262",9,26,1,1,62,1,1,1,4,0.479818008661691,0.43301845203765
"1263",9,37,1,2,63,2,2,1,4,0.44795260227435,0.486538795405826
"1264",9,33,1,2,64,1,2,1,4,0.412280212281196,0.45443043097641
"1265",9,38,1,2,65,2,1,0,2,0.63343061852344,0.710094790683337
"1266",9,35,1,1,66,1,1,1,5,0.283963578607964,0.234174408669097
"1267",9,35,1,1,67,1,1,1,4,0.492754129422205,0.587143382874835
"1268",9,31,1,1,68,1,1,1,4,0.536409147769662,0.494914883471726
"1269",9,28,1,1,69,1,2,0,4,0.585989380525384,0.562531325217536
"1270",9,31,1,2,70,3,2,1,3,0.650788619628215,0.719630549719131
"1271",9,34,1,2,71,2,2,1,3,0.787352365375945,0.854616877952655
"1272",9,26,1,1,72,3,1,1,3,0.975155950136123,0.934530611018634
"1273",9,37,1,1,73,3,1,1,2,0.608708179064822,0.526243328371131
"1274",9,33,1,1,74,3,2,0,2,0.94515695316692,0.967887777488016
"1275",9,38,1,1,75,1,1,1,5,0.372600273372629,0.347739262767933
"1276",9,35,1,2,76,3,1,0,1,0.734815334774344,0.828525611894218
"1277",9,35,1,1,77,2,2,0,2,0.689972032267292,0.708436988165414
"1278",9,31,1,1,78,1,2,0,4,0.358893579879812,0.33036204779307
"1279",9,28,1,2,79,1,2,1,5,0.384573029653662,0.48265506826223
"1280",9,31,1,1,80,2,1,1,3,0.647117519254539,0.562534441459859
"1281",9,34,1,1,81,1,2,0,3,0.477742285607759,0.442100607426053
"1282",9,26,1,1,82,3,1,1,2,0.753273943541372,0.726133483155539
"1283",9,37,1,2,83,2,2,1,3,0.706905485470421,0.703869089100677
"1284",9,33,1,2,84,1,2,1,5,0.36485741521864,0.338543513996154
"1285",9,38,1,1,85,3,1,1,3,0.635858635884041,0.58775716013927
"1286",9,35,1,2,86,2,2,1,4,0.761429828565165,0.832867638420357
"1287",9,35,1,1,87,2,2,0,3,0.921054068714529,0.777912567099294
"1288",9,31,1,2,88,3,1,0,1,1.10139356068382,1.13852856442212
"1289",9,28,1,2,89,1,2,1,4,0.289822031282893,0.312334069092424
"1290",9,31,1,2,90,1,2,1,4,0.466107064746587,0.395100706993466
"1291",9,34,1,2,91,2,2,1,4,0.371859038386296,0.425611670199617
"1292",9,26,1,1,92,1,1,1,5,0.376537946645845,0.370077839946889
"1293",9,37,1,2,93,3,1,0,2,1.05002795054019,1.03431315825579
"1294",9,33,1,1,94,2,1,1,3,0.68007610829393,0.68286276164671
"1295",9,38,1,2,95,3,1,0,1,0.615819290565858,0.554020208844065
"1296",9,35,1,1,96,1,2,0,3,0.577031455547167,0.621873469139778
"1297",9,35,1,1,97,2,1,1,4,0.453782982342313,0.489858007346677
"1298",9,31,1,2,98,1,2,1,5,0.341483018337294,0.326471897722431
"1299",9,28,1,2,99,3,1,0,1,1.38830866367751,1.38213945501206
"1300",9,31,1,2,100,3,2,1,2,1.00671690309627,0.983329055616963
"1301",9,34,1,2,101,1,2,1,5,0.370457848930047,0.309635798598473
"1302",9,26,1,1,102,3,2,0,2,1.27697075157028,1.2207596821935
"1303",9,37,1,1,103,2,2,0,2,0.590395298054482,0.625454782039744
"1304",9,33,1,2,104,1,2,1,5,0.449911278543516,0.39260572245332
"1305",9,38,1,2,105,3,1,0,2,0.864499371301029,0.839051185690332
"1306",9,35,1,1,106,3,1,1,3,1.27787582251944,1.30377728689376
"1307",9,35,1,1,107,3,1,1,3,0.720126288473341,0.80136404648911
"1308",9,31,1,2,108,1,1,0,3,0.560125056458413,0.620946234266934
"1309",9,28,1,1,109,3,1,1,3,0.916331553617964,0.859187560727428
"1310",9,31,1,1,110,1,2,0,4,0.575354355594258,0.578576655577823
"1311",9,34,1,2,111,2,2,1,4,0.733303957619012,0.747976552678161
"1312",9,26,1,1,112,1,1,1,5,0.310007663390504,0.331501595204123
"1313",9,37,1,2,113,3,2,1,2,0.871566588485151,0.921155443037337
"1314",9,33,1,1,114,3,2,0,1,0.861620953019539,0.853198859901031
"1315",9,38,1,1,115,3,1,1,3,0.7784369772482,0.806849873875204
"1316",9,35,1,2,116,3,2,1,2,0.594099073087862,0.617668581009521
"1317",9,35,1,1,117,3,2,0,2,1.4546984647819,1.5395705171995
"1318",9,31,1,2,118,3,2,1,3,0.814488841511893,0.737205430344582
"1319",9,28,1,2,119,3,1,0,2,0.705681954789075,0.744081885705048
"1320",9,31,1,1,120,1,1,1,4,0.431708567577186,0.550041622507127
"1321",9,34,1,2,121,1,1,0,4,0.649997395744501,0.603579375771517
"1322",9,26,1,2,122,3,2,1,3,0.701580612161511,0.676051552874139
"1323",9,37,1,2,123,1,1,0,4,0.613497562469934,0.528759567666028
"1324",9,33,1,1,124,3,1,1,3,0.600689210572479,0.557002645048399
"1325",9,38,1,1,125,3,2,0,1,0.755129265052797,0.765575678053845
"1326",9,35,1,2,126,3,2,1,3,0.546301647699585,0.607083652057661
"1327",9,35,1,1,127,2,2,0,2,0.619643530675943,0.570256351582058
"1328",9,31,1,1,128,2,1,1,3,0.598374363071816,0.636937935329606
"1329",9,28,1,2,129,2,2,1,3,0.551647120093657,0.548486467983209
"1330",9,31,1,1,130,3,1,1,2,0.87947430558278,0.915467428268557
"1331",9,34,1,1,131,2,1,1,4,0.570299669226794,0.53914710404723
"1332",9,26,1,1,132,1,1,1,5,0.562769790750784,0.584711332691836
"1333",9,37,1,2,133,1,2,1,4,0.297375757208761,0.344764447342943
"1334",9,33,1,1,134,1,1,1,4,0.337029934723431,0.347010616032072
"1335",9,38,1,2,135,2,2,1,3,0.742699154711364,0.728103557225272
"1336",9,35,1,2,136,2,2,1,4,0.536127826584313,0.513167216405734
"1337",9,35,1,1,137,1,1,1,4,0.407054565433327,0.415963437151993
"1338",9,31,1,2,138,1,2,1,4,0.463933776893161,0.505258831749139
"1339",9,28,1,2,139,3,2,1,2,1.0156241970873,0.935771724066488
"1340",9,31,1,1,140,3,1,1,3,0.573377037322188,0.559126659242116
"1341",9,34,1,1,141,1,1,1,5,0.337519253927322,0.335066050194152
"1342",9,26,1,1,142,3,2,0,1,1.25914782425969,1.28747465328466
"1343",9,37,1,2,143,2,1,0,2,0.630585005465354,0.716231367521507
"1344",9,33,1,1,144,2,1,1,4,0.768202165553973,0.79774581511817
"1345",9,38,1,2,145,3,2,1,3,0.916718825089287,0.915071570142138
"1346",9,35,1,2,146,2,2,1,3,0.86474229299876,0.801298007444564
"1347",9,35,1,2,147,1,2,1,4,0.448211098326213,0.466452535736977
"1348",9,31,1,2,148,1,2,1,4,0.383804475655562,0.403555421593391
"1349",9,28,1,1,149,1,1,1,4,0.51124318504053,0.513514727603791
"1350",9,31,1,1,150,1,1,1,4,0.462600924143273,0.50691493990303
"1351",9,34,1,1,151,2,1,1,3,0.482289505477094,0.413561843910673
"1352",9,26,1,2,152,2,2,1,3,0.561175332943329,0.484221813806773
"1353",9,37,1,1,153,2,1,1,3,0.549699935588465,0.611073258390677
"1354",9,33,1,1,154,1,1,1,5,0.31672162277429,0.286209220672838
"1355",9,38,1,1,155,1,2,0,4,0.439249413356576,0.394139621940065
"1356",9,35,1,2,156,1,2,1,4,0.436125133812053,0.525831905320797
"1357",9,35,1,2,157,3,1,0,2,0.999791623542008,0.900736157328591
"1358",9,31,1,2,158,2,1,0,3,0.517903708259344,0.505096016185889
"1359",9,28,1,2,159,1,2,1,5,0.48148145455384,0.485782702772651
"1360",9,31,1,2,160,1,2,1,5,0.501460833837673,0.479542671678622
"1361",9,34,1,1,161,2,1,1,4,0.759260699245593,0.806551772997719
"1362",9,26,1,1,162,3,2,0,1,0.530802036592991,0.587778507844289
"1363",9,37,1,1,163,3,1,1,2,0.872461765795082,0.961419995388655
"1364",9,33,1,2,164,1,2,1,5,0.473328376009809,0.459523204851169
"1365",9,38,1,1,165,2,2,0,3,0.711410048320572,0.669086213815549
"1366",9,35,1,2,166,3,2,1,3,0.957297565051239,0.894952997517807
"1367",9,35,1,2,167,3,1,0,1,1.04170529169336,0.988713733363606
"1368",9,31,1,1,168,2,2,0,3,0.64000721333421,0.566277349447853
"1369",9,28,1,1,169,2,1,1,3,0.717831108773983,0.793138305200696
"1370",9,31,1,1,170,2,2,0,2,0.905626669670716,0.840119203468582
"1371",9,34,1,1,171,1,2,0,4,0.452689274631852,0.523008104612629
"1372",9,26,1,1,172,3,2,0,2,1.13564817423351,1.16640995577231
"1373",9,37,1,1,173,3,1,1,3,0.985236252134981,0.960576044814165
"1374",9,33,1,2,174,1,1,0,4,0.598462708474997,0.517042088292472
"1375",9,38,1,1,175,3,2,0,2,1.02365142994281,0.95210867469279
"1376",9,35,1,2,176,1,2,1,5,0.364325293841832,0.378064780094404
"1377",9,35,1,2,177,2,1,0,3,0.634856605472275,0.746322501433813
"1378",9,31,1,1,178,2,1,1,4,0.746062146821659,0.742889187548094
"1379",9,28,1,2,179,2,2,1,4,0.494031593375859,0.502578644322391
"1380",9,31,1,1,180,2,1,1,4,0.526895036094818,0.49485813988213
"1381",9,34,1,1,181,3,1,1,2,0.816532790655948,0.898877207902502
"1382",9,26,1,1,182,1,1,1,5,0.405919284377478,0.367829631072895
"1383",9,37,1,1,183,2,1,1,4,0.399718441914483,0.361521616066014
"1384",9,33,1,2,184,2,2,1,3,0.627242775750349,0.620510110564897
"1385",9,38,1,2,185,3,1,0,1,0.50621102135294,0.573740644026891
"1386",9,35,1,1,186,1,1,1,4,0.438763456217654,0.343174285139158
"1387",9,35,1,2,187,1,2,1,5,0.428912580416428,0.424274201632015
"1388",9,31,1,2,188,3,1,0,2,0.917888634064157,0.949261459312654
"1389",9,28,1,1,189,1,1,1,4,0.421672764546982,0.440561884314728
"1390",9,31,1,1,190,1,2,0,4,0.494584070861175,0.503660335078198
"1391",9,34,1,2,191,3,2,1,3,0.760145358568128,0.769133151915433
"1392",9,26,1,1,192,2,1,1,3,0.582259512898753,0.618454272630966
"1393",9,37,1,1,193,3,1,1,2,0.722333176060388,0.722458562703694
"1394",9,33,1,1,194,2,2,0,2,0.662260613392062,0.658419805078426
"1395",9,38,1,1,195,1,1,1,4,0.317001467184311,0.364873489138949
"1396",9,35,1,1,196,3,1,1,2,0.913572201930913,1.00787607397595
"1397",9,35,1,1,197,3,1,1,3,0.490605292264037,0.386168956219064
"1398",9,31,1,2,198,3,1,0,2,1.40863882415817,1.39338388101
"1399",9,28,1,1,199,2,1,1,4,0.682790758132305,0.729326234914673
"1400",9,31,1,2,200,3,1,0,2,0.906702200212268,0.806726483609334
"1401",9,34,1,2,201,1,2,1,4,0.301304395883226,0.28775211489179
"1402",9,26,1,1,202,3,1,1,2,0.981540086638295,0.997961462449291
"1403",9,37,1,2,203,1,2,1,4,0.365085579227053,0.320210663187052
"1404",9,33,1,2,204,3,2,1,2,0.928101852720482,0.919201813448145
"1405",9,38,1,1,205,1,1,1,5,0.43264667516846,0.428688938902933
"1406",9,35,1,2,206,3,1,0,2,0.191600528174509,0.216301219254864
"1407",9,35,1,2,207,2,1,0,3,0.650203026376951,0.71733293142608
"1408",9,31,1,1,208,3,1,1,2,0.740728686758278,0.706689736346177
"1409",9,28,1,2,209,2,2,1,4,0.355884437315666,0.380558966064122
"1410",9,31,1,1,210,2,2,0,3,0.7111020443295,0.781783347962159
"1411",9,34,1,2,211,1,1,0,3,0.576665678434572,0.540114468081951
"1412",9,26,1,1,212,1,1,1,5,0.370821454908997,0.387521483688629
"1413",9,37,1,2,213,1,2,1,5,0.46192634299622,0.407161601914307
"1414",9,33,1,2,214,2,2,1,3,0.695603964089587,0.625376529184302
"1415",9,38,1,2,215,3,2,1,2,0.704623246710269,0.68756779886981
"1416",9,35,1,1,216,3,2,0,2,0.860594572943382,0.861507053397322
"1417",9,35,1,1,217,2,2,0,2,0.792345594401236,0.818847233364317
"1418",9,31,1,2,218,2,2,1,3,0.702267771377838,0.799955320464247
"1419",9,28,1,1,219,3,1,1,3,0.83353596435711,0.828826816678607
"1420",9,31,1,2,220,1,2,1,5,0.371596186782295,0.427253948258298
"1421",9,34,1,1,221,2,1,1,4,0.521027671503374,0.557348599951818
"1422",9,26,1,1,222,3,2,0,1,1.3225685491927,1.32764152847076
"1423",9,37,1,1,223,2,2,0,3,0.529488130132584,0.575749383973842
"1424",9,33,1,1,224,2,1,1,4,0.693647503058273,0.653492062773434
"1425",9,38,1,2,225,2,2,1,4,0.709687007719907,0.728948418265778
"1426",9,35,1,2,226,3,2,1,3,0.587262975798313,0.507914925842128
"1427",9,35,1,1,227,2,1,1,4,0.485230522350918,0.520172754384963
"1428",9,31,1,2,228,2,2,1,4,0.528916075876278,0.62308776398085
"1429",9,28,1,1,229,1,1,1,5,0.383318192854738,0.362229627239618
"1430",9,31,1,1,230,1,1,1,4,0.449742072146827,0.470824772778182
"1431",9,34,1,1,231,1,1,1,5,0.397494530842126,0.407443789101906
"1432",9,26,1,1,232,2,1,1,3,0.609873700377943,0.677493589840108
"1433",9,37,1,2,233,3,1,0,1,0.881010126355324,0.913555479998315
"1434",9,33,1,2,234,2,2,1,4,0.530919099809197,0.500679335655257
"1435",9,38,1,2,235,3,1,0,1,1.2659872511281,1.24772817516138
"1436",9,35,1,1,236,3,2,0,2,1.21972013823692,1.23414623908218
"1437",9,35,1,2,237,2,1,0,3,0.560513937361963,0.476075805694323
"1438",9,31,1,2,238,3,1,0,2,1.15439608708857,1.09003696235772
"1439",9,28,1,2,239,2,2,1,3,0.672361965726496,0.684844607374404
"1440",9,31,1,2,240,3,2,1,2,0.935790586754091,1.05002107738576
"1441",8,25,2,2,1,1,2,1,5,0.447355194779502,0.435185673387758
"1442",8,29,2,1,2,2,1,1,3,0.501894175351073,0.516238061816859
"1443",8,36,2,1,3,3,1,1,2,0.647452861696636,0.592442105440995
"1444",8,24,2,2,4,1,2,1,5,0.379689013232585,0.36635424851274
"1445",8,26,2,1,5,2,1,1,4,0.440398841701087,0.516735792021698
"1446",8,24,2,1,6,3,2,0,1,0.507858144242385,0.569484687806798
"1447",8,18,2,2,7,2,2,1,4,0.586282917925728,0.621139702024015
"1448",8,29,2,2,8,2,2,1,4,0.59791173191676,0.54861238283483
"1449",8,26,2,1,9,3,2,0,1,0.925466239206447,0.963302096655656
"1450",8,40,2,1,10,3,2,0,1,1.90348341894872,1.90968663720606
"1451",8,25,2,1,11,2,2,0,2,0.440279385266187,0.501279546194949
"1452",8,29,2,2,12,1,1,0,3,0.606427428726431,0.633454634996147
"1453",8,36,2,2,13,2,1,0,2,0.940016981057062,0.924244400451584
"1454",8,24,2,1,14,3,2,0,1,1.15845609091502,1.13242203392792
"1455",8,26,2,2,15,2,1,0,3,0.728771160439023,0.729343612528954
"1456",8,24,2,2,16,2,2,1,4,0.505526127079105,0.495635933903531
"1457",8,18,2,2,17,1,2,1,4,0.609194504873378,0.585629961849806
"1458",8,29,2,2,18,1,2,1,5,0.389464256162636,0.317284592535981
"1459",8,26,2,1,19,3,1,1,3,0.634386775805567,0.654542191424583
"1460",8,40,2,2,20,1,2,1,5,0.343922586603336,0.373628665247031
"1461",8,25,2,1,21,2,1,1,3,0.531271404261042,0.569478368945902
"1462",8,29,2,1,22,2,1,1,3,0.515391163812925,0.516532722371175
"1463",8,36,2,2,23,3,2,1,2,0.501261315554868,0.50192544083842
"1464",8,24,2,2,24,2,2,1,4,0.585983792493868,0.562715503002204
"1465",8,26,2,1,25,3,2,0,1,0.591302884358714,0.616603486543898
"1466",8,24,2,1,26,2,2,0,2,0.697668585656101,0.749526605286621
"1467",8,18,2,1,27,2,2,0,2,1.01819048161914,0.977482109187783
"1468",8,29,2,2,28,3,2,1,2,0.914271410659162,0.83729513290107
"1469",8,26,2,1,29,3,2,0,1,0.404019724221067,0.459647999336913
"1470",8,40,2,2,30,1,2,1,5,0.356099707289722,0.305452590889567
"1471",8,25,2,1,31,2,1,1,4,0.392575217700998,0.370823748098441
"1472",8,29,2,2,32,2,2,1,3,0.663137368569141,0.595109020997462
"1473",8,36,2,2,33,2,2,1,3,0.625780471045837,0.714882184041426
"1474",8,24,2,2,34,1,2,1,4,0.370000890378865,0.329936558432351
"1475",8,26,2,1,35,3,1,1,2,0.560253732991497,0.681132782776033
"1476",8,24,2,1,36,2,2,0,3,0.778216558124218,0.789820901517849
"1477",8,18,2,2,37,3,2,1,3,0.618315022314984,0.676800525366936
"1478",8,29,2,1,38,1,1,1,4,0.420333110416713,0.397124556174992
"1479",8,26,2,1,39,3,2,0,1,1.37346336545174,1.44286433845982
"1480",8,40,2,1,40,1,1,1,4,0.467367553689032,0.506693444097519
"1481",8,25,2,1,41,1,1,1,5,0.375926858541547,0.408484300444797
"1482",8,29,2,2,42,2,1,0,2,0.931230260225897,0.904361560249584
"1483",8,36,2,1,43,2,1,1,3,0.645828099792656,0.646435068072739
"1484",8,24,2,2,44,3,2,1,3,0.83556495791918,0.916692926319606
"1485",8,26,2,1,45,3,2,0,2,1.23330952003239,1.20438488153527
"1486",8,24,2,2,46,2,2,1,4,0.793621487007659,0.716172107517705
"1487",8,18,2,1,47,1,1,1,5,0.538220212945384,0.595341866538349
"1488",8,29,2,1,48,2,1,1,4,0.652948935351025,0.660017202516517
"1489",8,26,2,1,49,2,2,0,3,0.577754105596341,0.549182374910527
"1490",8,40,2,1,50,2,1,1,3,0.662617792328292,0.683699714993023
"1491",8,25,2,2,51,1,2,1,5,0.537981488509203,0.533207561012038
"1492",8,29,2,2,52,1,2,1,5,0.417672991010284,0.438920264691193
"1493",8,36,2,1,53,3,2,0,2,1.72443428044018,1.7677133229947
"1494",8,24,2,2,54,1,2,1,5,0.341813683850917,0.357291610616741
"1495",8,26,2,2,55,2,1,0,3,0.561714867482602,0.512762847227437
"1496",8,24,2,1,56,2,1,1,3,0.613266042360486,0.540178250490268
"1497",8,18,2,1,57,3,2,0,1,0.940270815884429,1.02240999721771
"1498",8,29,2,1,58,2,1,1,3,0.626635398847689,0.644564911138921
"1499",8,26,2,2,59,1,1,0,3,0.438802112489629,0.407328381789253
"1500",8,40,2,1,60,2,1,1,3,0.475939806738888,0.5089102571859
"1501",8,25,2,2,61,2,1,0,2,0.745232839267564,0.770086094417666
"1502",8,29,2,2,62,2,2,1,3,0.477791066070191,0.494921650810822
"1503",8,36,2,1,63,3,1,1,3,1.14362683625875,1.11529035299409
"1504",8,24,2,1,64,3,1,1,3,0.502394023750084,0.546437420372125
"1505",8,26,2,2,65,2,1,0,3,0.668902154524443,0.657183344844729
"1506",8,24,2,1,66,3,1,1,2,0.813767838472413,0.773963163562223
"1507",8,18,2,2,67,2,2,1,3,0.490908454812801,0.452311344176246
"1508",8,29,2,2,68,1,1,0,3,0.544736154736409,0.715964230443846
"1509",8,26,2,1,69,3,1,1,2,0.677158445124841,0.676195760127592
"1510",8,40,2,1,70,2,1,1,4,0.709374420607403,0.818011174804222
"1511",8,25,2,2,71,3,1,0,2,1.3301435073135,1.38847035126371
"1512",8,29,2,1,72,1,1,1,4,0.506180139815885,0.536246552633793
"1513",8,36,2,1,73,3,2,0,2,1.97960907189574,1.99394748599309
"1514",8,24,2,2,74,3,2,1,3,0.825169436477175,0.74101155037829
"1515",8,26,2,2,75,1,2,1,4,0.588609329923316,0.606936558671978
"1516",8,24,2,1,76,3,1,1,2,0.709057722076699,0.70255148475462
"1517",8,18,2,1,77,3,2,0,2,1.22170140714539,1.16935524331636
"1518",8,29,2,2,78,3,1,0,1,0.907762354232288,0.95869229558043
"1519",8,26,2,1,79,3,2,0,1,0.282113766633115,0.240344862749923
"1520",8,40,2,2,80,1,2,1,4,0.468504582113313,0.445847751261371
"1521",8,25,2,2,81,3,2,1,3,0.834278921942316,0.815154107830798
"1522",8,29,2,2,82,1,1,0,4,0.461626227542265,0.48143477771817
"1523",8,36,2,2,83,3,1,0,1,1.29242293962277,1.34585532767705
"1524",8,24,2,2,84,1,1,0,3,0.509122407319641,0.521160712398566
"1525",8,26,2,1,85,3,1,1,3,0.893970410229266,0.989391721241342
"1526",8,24,2,2,86,2,2,1,3,0.616920604521232,0.641896111171976
"1527",8,18,2,2,87,2,2,1,3,0.503102296855253,0.55321834228968
"1528",8,29,2,2,88,3,1,0,2,0.458857111277517,0.45876244097127
"1529",8,26,2,1,89,2,2,0,2,0.49311288016718,0.488690576125992
"1530",8,40,2,1,90,3,2,0,2,0.500256954113519,0.48772183341016
"1531",8,25,2,1,91,1,1,1,5,0.401089082858463,0.382067144866102
"1532",8,29,2,1,92,1,1,1,5,0.43565686757108,0.442679778842227
"1533",8,36,2,2,93,1,2,1,5,0.355273785584596,0.400623034037569
"1534",8,24,2,1,94,3,2,0,1,1.01424639867563,0.999312981883384
"1535",8,26,2,1,95,2,1,1,4,0.59414771269608,0.567317814810201
"1536",8,24,2,1,96,1,1,1,4,0.459464116397264,0.499451758124037
"1537",8,18,2,2,97,3,2,1,2,0.82701209743223,0.86185283489994
"1538",8,29,2,2,98,1,2,1,4,0.4328353025597,0.311304593619222
"1539",8,26,2,2,99,1,2,1,5,0.442978319583477,0.328655507659121
"1540",8,40,2,1,100,1,1,1,5,0.400902101677776,0.431826775490472
"1541",8,25,2,2,101,2,2,1,4,0.597817572440092,0.633631168558085
"1542",8,29,2,2,102,2,2,1,4,0.53294080474654,0.548455447333106
"1543",8,36,2,2,103,2,2,1,4,0.529446958373694,0.544284551838894
"1544",8,24,2,2,104,3,1,0,2,1.5132675889515,1.38133741361564
"1545",8,26,2,2,105,1,2,1,4,0.365147543180565,0.401314259673055
"1546",8,24,2,2,106,3,1,0,1,1.35330739389971,1.39177303367817
"1547",8,18,2,1,107,3,1,1,2,1.16115892065534,1.12829813638141
"1548",8,29,2,1,108,1,1,1,5,0.256090698852642,0.356669234437719
"1549",8,26,2,1,109,2,2,0,2,0.756362607780273,0.709991880822487
"1550",8,40,2,1,110,1,1,1,4,0.412619210013442,0.401265410688075
"1551",8,25,2,2,111,3,2,1,3,0.971267672761889,0.923833197811246
"1552",8,29,2,1,112,1,1,1,4,0.46836413482391,0.485082172881049
"1553",8,36,2,2,113,2,2,1,3,0.359288041558526,0.403652303879073
"1554",8,24,2,1,114,2,2,0,3,0.555571497294243,0.589298266544882
"1555",8,26,2,1,115,2,1,1,4,0.543177639934075,0.588460879734583
"1556",8,24,2,2,116,2,2,1,4,0.638066180369477,0.632988882495356
"1557",8,18,2,1,117,1,2,0,3,0.497506037598912,0.432552699954712
"1558",8,29,2,1,118,3,1,1,2,0.87991562039797,0.92515534693274
"1559",8,26,2,2,119,3,2,1,2,0.874181782921385,0.831507969735616
"1560",8,40,2,1,120,1,1,1,5,0.31570163790316,0.168116344813977
"1561",8,25,2,1,121,1,1,1,4,0.394022411448637,0.400591506492161
"1562",8,29,2,2,122,3,1,0,2,1.17392461834834,1.27096286299174
"1563",8,36,2,2,123,1,2,1,5,0.523534560382486,0.547167756403458
"1564",8,24,2,2,124,2,2,1,4,0.86091730371759,0.930073663752056
"1565",8,26,2,1,125,1,1,1,5,0.411068815572306,0.419782912587058
"1566",8,24,2,1,126,3,2,0,1,0.887802504376871,0.886481043942604
"1567",8,18,2,2,127,3,2,1,3,1.02433981807411,1.08018493951372
"1568",8,29,2,2,128,1,2,1,5,0.475778060765422,0.562998155228529
"1569",8,26,2,2,129,1,2,1,4,0.347368094439281,0.317357595392851
"1570",8,40,2,2,130,1,2,1,4,0.287065759343853,0.295975111896649
"1571",8,25,2,2,131,3,2,1,2,0.895962084965728,0.938338480403261
"1572",8,29,2,2,132,1,2,1,4,0.354112656052486,0.363234661445691
"1573",8,36,2,2,133,2,2,1,4,0.70030157364186,0.75454848877776
"1574",8,24,2,2,134,2,2,1,3,0.605933624120547,0.590104993251656
"1575",8,26,2,2,135,2,2,1,4,0.302651889480622,0.325030773295859
"1576",8,24,2,2,136,1,2,1,4,0.34781450732564,0.330988503268593
"1577",8,18,2,2,137,1,2,1,4,0.514399829560869,0.42485385084177
"1578",8,29,2,1,138,1,1,1,5,0.344054852683698,0.281979895189459
"1579",8,26,2,1,139,1,1,1,4,0.430323792696465,0.553643420027153
"1580",8,40,2,2,140,1,2,1,4,0.24585815505533,0.28401203313301
"1581",8,25,2,2,141,3,2,1,3,1.02230704438542,0.9652435558593
"1582",8,29,2,1,142,2,1,1,3,0.503081495025328,0.55273369142125
