"","subj_no","age","group","stim","trial","difficulty","resp","corr","conf","RT_day1","RT_day2"
"1",15,34,1,2,1,2,1,0,2,0.624847029734484,0.59268992863748
"2",15,31,1,1,2,2,1,1,3,0.384542970092436,0.308839469829842
"3",15,25,1,1,3,3,2,0,2,0.955308240036842,0.962654047455321
"4",15,28,1,2,4,1,2,1,4,0.38470014061519,0.413581937269268
"5",15,39,1,2,5,2,1,0,3,0.906828043752625,0.805953979614155
"6",15,32,1,2,6,1,2,1,4,0.461397586712439,0.447971682353053
"7",15,25,1,1,7,1,1,1,4,0.511813233016276,0.576838327506783
"8",15,26,1,1,8,3,2,0,1,0.891683678065202,0.84947195984577
"9",15,18,1,2,9,2,2,1,3,0.556983253130506,0.473117531907904
"10",15,23,1,2,10,2,2,1,4,0.693697714634829,0.697933977432065
"11",15,34,1,1,11,2,1,1,4,0.909239105959382,0.894993306144298
"12",15,31,1,2,12,1,1,0,4,0.571461676897537,0.658381661383728
"13",15,25,1,2,13,1,1,0,4,0.533568835206532,0.508108269690842
"14",15,28,1,2,14,3,1,0,1,1.2299390087579,1.18282159601063
"15",15,39,1,2,15,3,1,0,2,0.615154320095988,0.678193975733758
"16",15,32,1,2,16,1,2,1,4,0.462189173178206,0.422824798920551
"17",15,25,1,1,17,2,2,0,3,0.458915873318793,0.48824226709843
"18",15,26,1,1,18,3,1,1,3,0.451987179496541,0.448690683565762
"19",15,18,1,2,19,1,2,1,5,0.324009921753908,0.34120616650123
"20",15,23,1,2,20,2,1,0,2,0.495868020571645,0.598783097372363
"21",15,34,1,1,21,1,2,0,3,0.534499151287718,0.552148340312707
"22",15,31,1,1,22,1,1,1,5,0.422235025815462,0.486034017374946
"23",15,25,1,2,23,3,1,0,1,0.728756101885601,0.720279096987106
"24",15,28,1,1,24,1,1,1,4,0.502132194248776,0.529860678635943
"25",15,39,1,1,25,3,2,0,2,0.818397513441663,0.865829543929378
"26",15,32,1,2,26,2,2,1,4,0.575986371863941,0.538913094720348
"27",15,25,1,2,27,1,2,1,4,0.311063043877377,0.358329595672093
"28",15,26,1,1,28,3,1,1,3,0.740186949836283,0.792220150569771
"29",15,18,1,2,29,2,2,1,4,0.801940986196282,0.83758097777099
"30",15,23,1,1,30,1,1,1,5,0.485265629222263,0.598248399489761
"31",15,34,1,1,31,1,1,1,4,0.264497551138744,0.315318421821948
"32",15,31,1,1,32,1,1,1,4,0.292226516896807,0.309289353790558
"33",15,25,1,1,33,2,2,0,3,0.599681360713334,0.635355032158446
"34",15,28,1,1,34,3,1,1,2,0.457902145962814,0.387955486622995
"35",15,39,1,2,35,2,2,1,4,0.431532398052566,0.466760465986695
"36",15,32,1,2,36,2,1,0,3,0.76251789828514,0.73217931288685
"37",15,25,1,2,37,3,1,0,2,1.35213699720827,1.38013204457976
"38",15,26,1,2,38,1,2,1,4,0.52018260679378,0.469292228871417
"39",15,18,1,1,39,2,1,1,4,0.56608036803077,0.538502991164621
"40",15,23,1,1,40,2,2,0,3,0.527006787781084,0.531116851324621
"41",15,34,1,1,41,2,2,0,2,1.0070994508407,0.997464529509816
"42",15,31,1,1,42,1,1,1,4,0.386510695312257,0.394469632214098
"43",15,25,1,1,43,2,1,1,3,0.5887120713502,0.583509235761597
"44",15,28,1,1,44,1,1,1,4,0.495035043578132,0.445423559488067
"45",15,39,1,1,45,3,2,0,1,1.39905911295366,1.33243933588077
"46",15,32,1,1,46,1,2,0,4,0.611308993764046,0.614629818917236
"47",15,25,1,2,47,3,1,0,2,0.703773699603792,0.659033274298695
"48",15,26,1,2,48,1,2,1,4,0.362604630423952,0.338667245493198
"49",15,18,1,2,49,2,2,1,4,0.599729129073286,0.564245401335048
"50",15,23,1,1,50,1,1,1,5,0.416691792938286,0.363591814490329
"51",15,34,1,2,51,2,1,0,3,0.569422729602822,0.55045243063136
"52",15,31,1,1,52,3,1,1,2,0.221256793897079,0.150049204467628
"53",15,25,1,2,53,3,1,0,1,1.36985670849528,1.35357997597014
"54",15,28,1,1,54,2,1,1,4,0.771034767923941,0.710794070480783
"55",15,39,1,2,55,2,2,1,3,0.703923221844001,0.738005812518765
"56",15,32,1,2,56,1,2,1,5,0.370297309048556,0.273089604192449
"57",15,25,1,2,57,2,2,1,4,0.517940567557657,0.534538147340621
"58",15,26,1,2,58,3,1,0,1,1.09214959225691,1.11743175829516
"59",15,18,1,2,59,1,2,1,4,0.481172468149433,0.485209549933531
"60",15,23,1,2,60,1,2,1,4,0.287815224206739,0.336596013322463
"61",15,34,1,1,61,3,2,0,2,1.24014177743338,1.23453086258103
"62",15,31,1,2,62,2,1,0,2,0.676725094977058,0.609065843272625
"63",15,25,1,1,63,3,1,1,2,0.961887139273886,0.986916638148552
"64",15,28,1,1,64,3,2,0,2,0.800115635620089,0.780470413758878
"65",15,39,1,1,65,1,1,1,4,0.292000500995376,0.271339641946361
"66",15,32,1,1,66,2,1,1,4,0.663555788802665,0.621003714666164
"67",15,25,1,1,67,2,1,1,3,0.583335241739718,0.603847326140076
"68",15,26,1,1,68,1,1,1,5,0.522437723106748,0.606324721017353
"69",15,18,1,1,69,3,1,1,2,1.00180149642248,0.982562252371067
"70",15,23,1,2,70,3,2,1,2,0.808522158363261,0.784722661559129
"71",15,34,1,1,71,2,2,0,3,1.00640551216103,0.996102303450829
"72",15,31,1,2,72,1,2,1,5,0.430991986227688,0.382165629919167
"73",15,25,1,1,73,3,2,0,2,0.777707076667128,0.88532983450817
"74",15,28,1,2,74,1,2,1,5,0.475169892170199,0.427362050581189
"75",15,39,1,1,75,1,2,0,4,0.610623690486665,0.572079734134028
"76",15,32,1,2,76,3,1,0,1,0.645695322929919,0.655237555940321
"77",15,25,1,1,77,3,2,0,2,0.873061010985808,0.871471426038728
"78",15,26,1,1,78,3,2,0,1,1.36415585915688,1.34822249230342
"79",15,18,1,2,79,1,2,1,4,0.446209052508267,0.450884780013513
"80",15,23,1,2,80,3,1,0,2,1.1827847503098,1.20127420846063
"81",15,34,1,2,81,1,2,1,5,0.418180299080938,0.42064891973676
"82",15,31,1,2,82,1,2,1,5,0.328495069005,0.307774898347724
"83",15,25,1,2,83,3,1,0,2,0.939584630966516,1.02941537864682
"84",15,28,1,2,84,2,1,0,3,0.567266320961787,0.621489886827046
"85",15,39,1,2,85,3,2,1,2,0.637450709004525,0.55777016205213
"86",15,32,1,1,86,1,2,0,4,0.517756409258417,0.561649368307827
"87",15,25,1,2,87,2,2,1,3,0.469842735438137,0.445473719031137
"88",15,26,1,1,88,2,1,1,4,0.60527770471513,0.585583598076468
"89",15,18,1,1,89,1,1,1,4,0.514931310930766,0.568973936443194
"90",15,23,1,2,90,1,2,1,5,0.483307259259796,0.475255008763192
"91",15,34,1,2,91,1,2,1,5,0.372358769766662,0.354972439194338
"92",15,31,1,2,92,3,1,0,2,1.19022021322689,1.26540933514485
"93",15,25,1,1,93,1,1,1,5,0.38225712128152,0.308874853315201
"94",15,28,1,2,94,1,1,0,4,0.494792308720234,0.468882540304469
"95",15,39,1,2,95,1,2,1,4,0.404719020094195,0.327227154335247
"96",15,32,1,2,96,2,2,1,3,0.679390650152235,0.686146848908079
"97",15,25,1,2,97,3,1,0,2,1.09190766265634,1.16536527824908
"98",15,26,1,1,98,2,2,0,3,0.838863947037633,0.852819696381014
"99",15,18,1,1,99,3,2,0,1,0.824419012372341,0.868090146123092
"100",15,23,1,2,100,3,1,0,1,0.601763047714695,0.675732207347225
"101",15,34,1,2,101,3,2,1,3,0.727655867387032,0.715789100017251
"102",15,31,1,1,102,2,2,0,2,0.471302471667245,0.560203329538022
"103",15,25,1,2,103,2,1,0,2,0.62171365182376,0.541497263439311
"104",15,28,1,1,104,2,1,1,4,0.400126913608917,0.362990605221329
"105",15,39,1,1,105,3,1,1,2,0.711165179380797,0.725982953392196
"106",15,32,1,2,106,2,1,0,2,0.612491012664505,0.510753628024024
"107",15,25,1,2,107,1,1,0,4,0.398385442846964,0.291541739983267
"108",15,26,1,2,108,3,1,0,2,0.959968323556133,0.929416081245371
"109",15,18,1,1,109,1,1,1,5,0.410737445747423,0.405066367591438
"110",15,23,1,2,110,2,2,1,4,0.682439282015223,0.676434530399023
"111",15,34,1,2,111,2,2,1,4,0.53550479967097,0.485230287702929
"112",15,31,1,2,112,2,1,0,3,0.739398639976458,0.779476732003556
"113",15,25,1,1,113,3,2,0,2,0.762119091279564,0.801255337011064
"114",15,28,1,2,114,2,2,1,4,0.750750392438859,0.721141347538204
"115",15,39,1,2,115,2,2,1,3,0.428463699873626,0.398734078973488
"116",15,32,1,2,116,2,1,0,3,0.749184481261282,0.758896037171587
"117",15,25,1,1,117,3,1,1,3,1.01218747865251,0.971430899400886
"118",15,26,1,1,118,3,1,1,3,0.695604377656813,0.636437424746742
"119",15,18,1,1,119,2,2,0,2,0.642730323785251,0.727557131536308
"120",15,23,1,1,120,2,1,1,4,0.603696125686537,0.5285253572025
"121",15,34,1,1,121,2,2,0,3,0.70915321015336,0.75264887913958
"122",15,31,1,2,122,3,2,1,2,0.732801798092675,0.709622560191482
"123",15,25,1,1,123,1,2,0,3,0.577308681288848,0.564482631100458
"124",15,28,1,1,124,3,1,1,2,0.45123920016742,0.39420969342125
"125",15,39,1,2,125,3,1,0,2,1.18270167562796,1.23773143766586
"126",15,32,1,2,126,1,1,0,4,0.612609577011457,0.567750738116192
"127",15,25,1,1,127,1,1,1,5,0.237541150699226,0.275199834552455
"128",15,26,1,2,128,1,2,1,4,0.486186320805699,0.477965179520271
"129",15,18,1,2,129,1,2,1,5,0.393396989221176,0.294896567738994
"130",15,23,1,2,130,1,2,1,5,0.567243646021475,0.591945075061782
"131",15,34,1,1,131,1,1,1,5,0.416523856303808,0.412436338439029
"132",15,31,1,1,132,2,1,1,3,0.680146595956468,0.678195321553952
"133",15,25,1,1,133,3,2,0,1,1.21088043201095,1.29963908929746
"134",15,28,1,1,134,3,2,0,1,1.06529209478809,1.13640298982077
"135",15,39,1,1,135,1,2,0,4,0.618394184940402,0.627756488855055
"136",15,32,1,2,136,3,2,1,2,0.850849318384496,0.924948988262539
"137",15,25,1,1,137,3,2,0,1,1.74476341865153,1.78361463748618
"138",15,26,1,2,138,2,2,1,3,0.600586514966811,0.641429631338847
"139",15,18,1,2,139,3,1,0,1,0.719685507037841,0.675521534262699
"140",15,23,1,1,140,2,1,1,4,0.517833060578142,0.549696107498277
"141",15,34,1,1,141,3,1,1,2,0.647489770737824,0.599232940636918
"142",15,31,1,1,142,2,1,1,4,0.639264524130478,0.580750017538746
"143",15,25,1,1,143,2,2,0,3,0.364001762279118,0.350990616105789
"144",15,28,1,1,144,1,1,1,5,0.432382272129571,0.400016906243876
"145",15,39,1,1,145,3,2,0,2,0.473282875251274,0.437015425630115
"146",15,32,1,1,146,3,2,0,1,0.574163278246409,0.556440284683364
"147",15,25,1,1,147,1,1,1,4,0.40145471612578,0.410050067438813
"148",15,26,1,1,148,1,1,1,4,0.414301815748737,0.366431120524756
"149",15,18,1,2,149,3,1,0,2,1.01462435790149,0.996715513219776
"150",15,23,1,2,150,3,1,0,1,1.11753678402594,1.04274702027794
"151",15,34,1,1,151,2,1,1,4,0.67608036617307,0.716576394101619
"152",15,31,1,1,152,1,1,1,5,0.420837361237565,0.370611528382061
"153",15,25,1,1,153,1,1,1,5,0.448247016199953,0.44923445588714
"154",15,28,1,1,154,1,2,0,4,0.677644882496547,0.741867090441836
"155",15,39,1,2,155,1,2,1,4,0.308615664766805,0.377874504537823
"156",15,32,1,2,156,2,1,0,2,0.682742821673286,0.766244376166392
"157",15,25,1,1,157,3,2,0,2,1.54217239633135,1.49654847337422
"158",15,26,1,1,158,1,1,1,4,0.446448105150032,0.481827761131414
"159",15,18,1,2,159,3,2,1,2,0.92637682390828,0.926000677179089
"160",15,23,1,2,160,1,1,0,3,0.57481784552329,0.609940877186553
"161",15,34,1,2,161,2,1,0,2,0.719965507601044,0.704307667681081
"162",15,31,1,2,162,1,2,1,5,0.425767037418206,0.48938687838632
"163",15,25,1,1,163,2,1,1,4,0.691668933016796,0.659717603886908
"164",15,28,1,2,164,2,1,0,3,0.63389690721956,0.550632545213393
"165",15,39,1,1,165,1,2,0,3,0.588429479466745,0.647084588837714
"166",15,32,1,2,166,1,2,1,5,0.405600554746318,0.475189437692519
"167",15,25,1,1,167,3,2,0,1,1.16279564052266,1.18377404269785
"168",15,26,1,2,168,1,2,1,5,0.488525566342378,0.488179056944899
"169",15,18,1,2,169,3,2,1,3,0.722682727684455,0.722823982158007
"170",15,23,1,2,170,2,2,1,3,0.598843820121551,0.537666271152873
"171",15,34,1,2,171,3,2,1,2,0.931927643830176,0.89528931175485
"172",15,31,1,1,172,2,1,1,3,0.64039011326335,0.629550459699676
"173",15,25,1,2,173,2,2,1,4,0.478652863259659,0.497787881481421
"174",15,28,1,1,174,3,2,0,1,1.44182539474825,1.56485887959912
"175",15,39,1,2,175,3,2,1,2,0.505677345220421,0.499161455355191
"176",15,32,1,1,176,2,1,1,4,0.508473964763236,0.48777025650341
"177",15,25,1,2,177,3,2,1,2,0.831334434440672,0.768542120408968
"178",15,26,1,1,178,3,1,1,3,0.689661527161898,0.642886858826069
"179",15,18,1,2,179,3,1,0,2,1.06635616666492,1.06170170799637
"180",15,23,1,1,180,3,1,1,2,0.72961680398648,0.777015568461888
"181",15,34,1,1,181,2,1,1,3,0.295285224567901,0.280405176418218
"182",15,31,1,1,182,2,2,0,2,0.833321089546502,0.827753838758924
"183",15,25,1,1,183,3,1,1,3,0.669158217952384,0.60903796355709
"184",15,28,1,2,184,2,2,1,3,0.544631395258853,0.653429413250776
"185",15,39,1,1,185,3,1,1,2,0.552017213235914,0.512689480952038
"186",15,32,1,1,186,2,1,1,4,0.482217699041378,0.469236334311437
"187",15,25,1,1,187,2,1,1,3,0.761005056100936,0.76199627695129
"188",15,26,1,2,188,3,2,1,2,0.809217253539028,0.882396516523189
"189",15,18,1,1,189,3,2,0,2,1.08382580989202,1.03170815579217
"190",15,23,1,2,190,1,2,1,4,0.340490253421221,0.317374833279375
"191",15,34,1,2,191,3,2,1,2,0.856633435935637,0.864544817728942
"192",15,31,1,1,192,1,1,1,4,0.311929455578994,0.379184919463352
"193",15,25,1,2,193,1,1,0,4,0.538629372126974,0.616395100412436
"194",15,28,1,1,194,1,2,0,4,0.545242546262126,0.52147192231559
"195",15,39,1,2,195,1,1,0,4,0.599875277973464,0.523673934934355
"196",15,32,1,2,196,2,1,0,2,0.520867623084909,0.494423399013978
"197",15,25,1,1,197,2,2,0,3,0.568003872211231,0.597232382149992
"198",15,26,1,2,198,2,2,1,3,0.759183523909645,0.766970266590013
"199",15,18,1,1,199,2,2,0,3,0.839200051034304,0.74787360275787
"200",15,23,1,2,200,3,2,1,3,0.669234053517767,0.679496938484343
"201",15,34,1,1,201,1,1,1,4,0.218426333548115,0.235755691897313
"202",15,31,1,2,202,1,2,1,5,0.448864487436469,0.448992830647801
"203",15,25,1,2,203,2,2,1,4,0.538738983522091,0.596872092303486
"204",15,28,1,2,204,1,2,1,4,0.382944036914085,0.337235674238897
"205",15,39,1,1,205,2,2,0,3,0.512824779232641,0.531384361944906
"206",15,32,1,1,206,3,1,1,2,0.719492212039827,0.68636774190847
"207",15,25,1,1,207,3,2,0,2,1.13620598596193,1.12419981903823
"208",15,26,1,2,208,3,1,0,2,0.849150295740364,0.840643290684292
"209",15,18,1,2,209,1,2,1,4,0.366705916832122,0.395723252104474
"210",15,23,1,2,210,2,1,0,2,0.203883314247602,0.234175486098214
"211",15,34,1,1,211,2,2,0,2,0.953561716041103,0.857042495323791
"212",15,31,1,2,212,3,1,0,2,1.27430323716611,1.23641963649004
"213",15,25,1,2,213,3,2,1,3,0.995192685401546,0.947224518944684
"214",15,28,1,2,214,2,1,0,2,0.894582883531078,0.953638133027314
"215",15,39,1,1,215,1,1,1,4,0.491384285351402,0.516667136005394
"216",15,32,1,1,216,1,1,1,5,0.411561454105526,0.370579820560405
"217",15,25,1,2,217,2,2,1,3,0.284974290216688,0.307663157147279
"218",15,26,1,1,218,2,1,1,4,0.663783250398531,0.691470582918685
"219",15,18,1,2,219,2,2,1,3,0.254612956392688,0.224373796514014
"220",15,23,1,2,220,2,1,0,3,0.92985469493718,1.01469172651785
"221",15,34,1,2,221,1,1,0,3,0.483109619906382,0.425947467346624
"222",15,31,1,1,222,1,1,1,5,0.399034299624653,0.337184472942341
"223",15,25,1,1,223,2,2,0,2,0.851772085388866,0.882741639922577
"224",15,28,1,1,224,3,1,1,3,0.730952706771038,0.753840110648543
"225",15,39,1,1,225,3,2,0,1,0.574749484929041,0.511240528292099
"226",15,32,1,2,226,3,1,0,2,1.66121270159057,1.56656738493915
"227",15,25,1,2,227,3,2,1,2,0.755848755773997,0.813146506246636
"228",15,26,1,2,228,1,1,0,4,0.506158719438557,0.467866481851362
"229",15,18,1,1,229,1,1,1,5,0.468911339257934,0.478460780469023
"230",15,23,1,1,230,1,1,1,5,0.473098797134378,0.474735172799053
"231",15,34,1,1,231,1,1,1,4,0.417786410531361,0.410479899584516
"232",15,31,1,2,232,1,2,1,5,0.490414878759692,0.549297321766329
"233",15,25,1,2,233,3,1,0,2,0.838011945825075,0.827577671700924
"234",15,28,1,1,234,2,1,1,4,0.734166138536067,0.791629654246074
"235",15,39,1,2,235,2,2,1,4,0.661984243860816,0.625553439406913
"236",15,32,1,1,236,2,1,1,3,0.605818320100489,0.538799912139724
"237",15,25,1,1,237,3,2,0,2,1.04428195353378,1.17977970336747
"238",15,26,1,2,238,3,2,1,3,0.865094206023618,0.874147845892859
"239",15,18,1,1,239,3,2,0,1,1.11713858787646,1.12689280899675
"240",15,23,1,1,240,1,1,1,5,0.474932746522666,0.413105854708627
"241",14,34,2,2,1,2,1,0,3,0.676222163649528,0.686250377958745
"242",14,22,2,2,2,3,1,0,2,1.46449202452015,1.50127345178408
"243",14,20,2,1,3,1,2,0,4,0.737773064454582,0.710828100529507
"244",14,28,2,2,4,2,1,0,2,0.505792833158553,0.546273691754599
"245",14,33,2,1,5,1,1,1,4,0.533902326959933,0.581326689078307
"246",14,36,2,2,6,3,2,1,2,0.4261041070099,0.436613049882128
"247",14,19,2,1,7,1,2,0,3,0.451132965796705,0.479910537694296
"248",14,35,2,1,8,1,1,1,4,0.321478022817468,0.376964089898471
"249",14,23,2,1,9,2,1,1,3,0.632058043625546,0.707879958135527
"250",14,24,2,2,10,2,2,1,3,0.39056347433689,0.336118812519525
"251",14,34,2,2,11,2,2,1,3,0.670703413754894,0.71015591309994
"252",14,22,2,2,12,3,1,0,1,0.55717089585579,0.596054362538989
"253",14,20,2,1,13,2,1,1,4,0.636547540971471,0.68197122126585
"254",14,28,2,1,14,3,1,1,3,1.04114288834397,1.07257614829396
"255",14,33,2,2,15,3,2,1,3,0.817783931988472,0.764720705951985
"256",14,36,2,1,16,2,1,1,3,0.329975233821,0.418932476593285
"257",14,19,2,1,17,2,2,0,3,0.739409517664663,0.850211612427391
"258",14,35,2,1,18,3,1,1,2,0.901358188781832,0.844063541432991
"259",14,23,2,2,19,3,1,0,2,1.14294926670525,1.12464425007988
"260",14,24,2,1,20,1,1,1,4,0.473371784058291,0.443718972586786
"261",14,34,2,1,21,3,2,0,2,1.22870367877102,1.35139452491729
"262",14,22,2,2,22,1,2,1,5,0.375958729245602,0.38589605470905
"263",14,20,2,1,23,3,1,1,3,0.597993194397545,0.569604530067753
"264",14,28,2,2,24,2,2,1,3,0.504198535686437,0.55104614870509
"265",14,33,2,1,25,2,1,1,3,0.506872612187973,0.502458631455422
"266",14,36,2,1,26,1,1,1,4,0.458025001991163,0.532961786022852
"267",14,19,2,2,27,2,2,1,4,0.65692015921395,0.70746156178015
"268",14,35,2,2,28,2,1,0,2,0.591397316324095,0.582942202615116
"269",14,23,2,2,29,3,2,1,2,0.49566369251466,0.428695081696787
"270",14,24,2,1,30,2,1,1,4,0.455372647421335,0.382292268197529
"271",14,34,2,2,31,1,2,1,4,0.490531199310817,0.510397844201176
"272",14,22,2,2,32,3,1,0,2,1.38728270286845,1.39845943259486
"273",14,20,2,1,33,1,1,1,4,0.438904724182585,0.344050601468808
"274",14,28,2,1,34,3,2,0,2,1.70632408328342,1.72415176158417
"275",14,33,2,1,35,1,1,1,4,0.381582318919569,0.396947970377505
"276",14,36,2,1,36,2,1,1,3,0.719379743711912,0.731801268512527
"277",14,19,2,2,37,3,2,1,3,0.552974701476457,0.521961087313458
"278",14,35,2,1,38,1,2,0,4,0.544046226372774,0.529067897908975
"279",14,23,2,1,39,1,1,1,5,0.423151292584198,0.330737456965045
"280",14,24,2,1,40,3,2,0,2,1.10394050776692,1.12938668155659
"281",14,34,2,2,41,2,2,1,4,0.657031605950255,0.73095682660674
"282",14,22,2,1,42,2,2,0,2,0.946381177045281,1.03386380083248
"283",14,20,2,1,43,2,1,1,3,0.662117327195727,0.740976596620356
"284",14,28,2,2,44,1,2,1,5,0.448931740017589,0.510304771369136
"285",14,33,2,2,45,1,2,1,4,0.525590317721064,0.552454771721481
"286",14,36,2,2,46,2,2,1,3,0.677976519141809,0.735579540503566
"287",14,19,2,1,47,1,1,1,4,0.351003927150739,0.343716055167088
"288",14,35,2,2,48,1,2,1,4,0.597591145998426,0.610706419923295
"289",14,23,2,1,49,2,1,1,3,0.626175480935865,0.54269505541044
"290",14,24,2,1,50,2,2,0,2,0.711379994311308,0.720944867304046
"291",14,34,2,2,51,1,2,1,4,0.299028628939635,0.238354363510819
"292",14,22,2,1,52,3,2,0,1,0.176879253978467,0.1170415379984
"293",14,20,2,1,53,1,2,0,4,0.594022418343982,0.580154355387668
"294",14,28,2,2,54,1,2,1,4,0.400890100058016,0.427887896233562
"295",14,33,2,1,55,3,1,1,3,0.495162721236378,0.559369211928386
"296",14,36,2,1,56,2,1,1,4,0.818727658754082,0.831957527046806
"297",14,19,2,2,57,3,1,0,2,0.926451151187085,0.966102174220494
"298",14,35,2,1,58,1,2,0,4,0.641854481378336,0.613030448499839
"299",14,23,2,2,59,2,1,0,3,0.688970289114347,0.732763343177521
"300",14,24,2,1,60,1,1,1,4,0.270447767095294,0.335570546387064
"301",14,34,2,1,61,2,1,1,3,0.589569678327073,0.58940365517202
"302",14,22,2,1,62,3,2,0,2,1.33898315443665,1.35089393773733
"303",14,20,2,2,63,3,2,1,3,0.579181593088335,0.620010216514059
"304",14,28,2,1,64,3,2,0,1,0.855081652915177,0.837543025795552
"305",14,33,2,1,65,3,1,1,2,0.842608554260023,0.852703685207638
"306",14,36,2,1,66,1,1,1,5,0.55436034363033,0.556121859254408
"307",14,19,2,1,67,2,2,0,3,0.862174421815203,0.843993701635138
"308",14,35,2,2,68,2,2,1,3,0.745501610962876,0.729356098400575
"309",14,23,2,2,69,3,2,1,3,0.588599098607499,0.532977048983027
"310",14,24,2,1,70,3,2,0,2,0.831282667205712,0.839060934587554
"311",14,34,2,1,71,2,2,0,2,0.713829041428248,0.726054296318414
"312",14,22,2,1,72,1,1,1,4,0.408626544200098,0.370542293763611
"313",14,20,2,1,73,3,2,0,2,1.17299067413106,1.24958528900986
"314",14,28,2,1,74,3,1,1,2,0.709817912609012,0.768416990959134
"315",14,33,2,1,75,3,2,0,1,1.20335492787077,1.21268176656754
"316",14,36,2,2,76,1,1,0,3,0.594729536369983,0.594705059608137
"317",14,19,2,2,77,3,1,0,2,0.908571945915207,0.876815314735353
"318",14,35,2,1,78,2,2,0,3,0.598852728009542,0.634616572416607
"319",14,23,2,2,79,3,1,0,1,0.418336651844952,0.390798580649734
"320",14,24,2,2,80,2,2,1,3,0.504362801892975,0.550091860774109
"321",14,34,2,2,81,2,1,0,2,0.900844668811645,0.964881194896025
"322",14,22,2,2,82,1,2,1,4,0.325500445934638,0.191254638976915
"323",14,20,2,2,83,2,1,0,2,0.91252520693158,0.959940092381836
"324",14,28,2,2,84,3,2,1,2,0.548475154314445,0.514561013138827
"325",14,33,2,2,85,2,1,0,3,0.348418559111676,0.384070646544074
"326",14,36,2,1,86,1,2,0,4,0.496972005136886,0.41726165358047
"327",14,19,2,2,87,3,2,1,3,0.743841412907481,0.682786749478407
"328",14,35,2,2,88,1,1,0,3,0.62944744927605,0.608017263453322
"329",14,23,2,1,89,1,1,1,5,0.30789880104851,0.269180720628387
"330",14,24,2,1,90,3,1,1,3,0.697589645643565,0.723170265383557
"331",14,34,2,1,91,2,1,1,4,0.828253656189095,0.80358710240043
"332",14,22,2,1,92,1,1,1,4,0.607463819756203,0.620369026538721
"333",14,20,2,2,93,2,2,1,4,0.503696449714568,0.460786686540211
"334",14,28,2,1,94,2,1,1,3,0.79672278649383,0.696687721391319
"335",14,33,2,2,95,3,2,1,3,0.592100729874133,0.621194136371914
"336",14,36,2,1,96,1,1,1,5,0.42749618833484,0.413781113918473
"337",14,19,2,1,97,3,1,1,2,0.848775440135805,0.871859149065136
"338",14,35,2,1,98,3,1,1,3,0.88532566625895,0.974357475230783
"339",14,23,2,2,99,3,1,0,2,2.71783592361957,2.71363884193952
"340",14,24,2,1,100,1,1,1,4,0.403254470888793,0.424367440037606
"341",14,34,2,1,101,3,1,1,3,0.821338365956689,0.842134173102915
"342",14,22,2,1,102,3,2,0,2,0.122909172861706,0.0741251282059734
"343",14,20,2,1,103,1,1,1,4,0.377451008595994,0.322918408070949
"344",14,28,2,2,104,2,2,1,3,0.718892579289739,0.747585926780694
"345",14,33,2,1,105,2,2,0,2,0.876346630614234,0.932400257640198
"346",14,36,2,2,106,3,1,0,2,1.51096146769537,1.53842901701182
"347",14,19,2,2,107,2,2,1,4,0.673552219620241,0.753080834730269
"348",14,35,2,1,108,2,2,0,2,0.781523605339033,0.91117299550297
"349",14,23,2,2,109,1,2,1,5,0.423880909310764,0.434314320038121
"350",14,24,2,1,110,1,1,1,5,0.34115773411026,0.290078696708785
"351",14,34,2,2,111,1,1,0,3,0.477719423264527,0.534020141338338
"352",14,22,2,2,112,2,2,1,3,0.735165517430192,0.746671729392781
"353",14,20,2,2,113,1,2,1,4,0.323416104353816,0.290731694685594
"354",14,28,2,2,114,2,2,1,4,0.770693174054276,0.792777312685671
"355",14,33,2,2,115,3,1,0,1,1.52730102177717,1.63126337443664
"356",14,36,2,2,116,1,1,0,4,0.500308903307678,0.527671261830305
"357",14,19,2,1,117,1,1,1,4,0.546026849587463,0.446784706939303
"358",14,35,2,2,118,3,1,0,1,0.752131646540653,0.760594411458243
"359",14,23,2,2,119,1,2,1,5,0.36852573400143,0.446624711318348
"360",14,24,2,2,120,2,2,1,4,0.631696465403622,0.622382023416487
"361",14,34,2,2,121,1,1,0,4,0.577996624596016,0.498299798683847
"362",14,22,2,2,122,3,1,0,2,1.14701328687303,1.08209090398793
"363",14,20,2,1,123,1,1,1,4,0.432763499232382,0.490520138919011
"364",14,28,2,1,124,2,2,0,2,0.960088214208586,0.894194608648901
"365",14,33,2,2,125,2,1,0,2,0.840203801791335,0.842541597495963
"366",14,36,2,2,126,3,1,0,1,0.654750305262063,0.59522553175113
"367",14,19,2,1,127,2,2,0,3,0.518150966065722,0.45378721320193
"368",14,35,2,1,128,2,1,1,4,0.706115292364274,0.707562641297915
"369",14,23,2,2,129,2,1,0,2,0.709283332358051,0.709505752474482
"370",14,24,2,2,130,3,1,0,1,0.67472499453779,0.656214570788103
"371",14,34,2,2,131,3,1,0,1,1.0762354281775,1.06709924008072
"372",14,22,2,1,132,3,1,1,3,0.773883049215836,0.816331519869815
"373",14,20,2,1,133,3,2,0,1,0.561088664576455,0.581849680914748
"374",14,28,2,1,134,3,2,0,2,1.30546475732522,1.2553919783834
"375",14,33,2,1,135,3,2,0,1,1.11048405712163,1.03419157452443
"376",14,36,2,2,136,1,2,1,4,0.357168024372574,0.3062077148771
"377",14,19,2,2,137,3,1,0,2,1.2321443895232,1.25555792343072
"378",14,35,2,1,138,3,1,1,2,0.495826989190753,0.471500704557332
"379",14,23,2,2,139,1,2,1,5,0.370645379007929,0.382100826440164
"380",14,24,2,1,140,2,2,0,3,0.837661024336603,0.817625110881255
"381",14,34,2,2,141,1,2,1,4,0.432724707459692,0.385154967070819
"382",14,22,2,1,142,3,1,1,2,0.727835767696433,0.720592406413044
"383",14,20,2,2,143,2,2,1,3,0.799850538451912,0.759677420428814
"384",14,28,2,2,144,2,2,1,3,0.528455131959021,0.531593133229066
"385",14,33,2,1,145,3,2,0,1,1.36266354844078,1.33984852568049
"386",14,36,2,2,146,3,1,0,2,1.70571256044356,1.61528295752373
"387",14,19,2,1,147,3,1,1,3,0.643943749084807,0.50589618595872
"388",14,35,2,1,148,1,2,0,4,0.491168431627434,0.54651065371567
"389",14,23,2,2,149,2,2,1,4,0.586097685587937,0.692348277237484
"390",14,24,2,1,150,1,1,1,4,0.483768106206557,0.478154504958677
"391",14,34,2,1,151,1,1,1,4,0.337035463626895,0.391667673152653
"392",14,22,2,2,152,1,2,1,5,0.428178263762892,0.442490628203908
"393",14,20,2,2,153,1,2,1,4,0.501045463998654,0.529790188274913
"394",14,28,2,1,154,3,1,1,2,0.721982909562761,0.662339105461652
"395",14,33,2,2,155,2,2,1,3,0.710660153756575,0.638089061287308
"396",14,36,2,1,156,1,1,1,5,0.518880444329507,0.617318061655413
"397",14,19,2,2,157,3,2,1,3,0.91020611398064,0.884362509399063
"398",14,35,2,1,158,2,1,1,4,0.542506633480605,0.472225546178177
"399",14,23,2,1,159,2,1,1,4,0.463511886685966,0.393135735664425
"400",14,24,2,2,160,2,2,1,3,0.562521503870662,0.589635767279818
"401",14,34,2,2,161,1,1,0,4,0.640160263727839,0.673195176409504
"402",14,22,2,1,162,1,1,1,4,0.283245983795457,0.26293963215812
"403",14,20,2,1,163,1,1,1,4,0.353369564006332,0.359449808848981
"404",14,28,2,1,164,1,1,1,5,0.457598972433501,0.428725251991766
"405",14,33,2,2,165,1,1,0,4,0.77097209921012,0.811065368439676
"406",14,36,2,2,166,2,1,0,3,0.690722101539551,0.669548508057211
"407",14,19,2,1,167,3,1,1,2,0.414885421332595,0.412432452962727
"408",14,35,2,1,168,2,2,0,3,0.842068876700352,0.872866623640366
"409",14,23,2,1,169,3,2,0,1,1.50581092963618,1.51372985081312
"410",14,24,2,1,170,3,1,1,2,0.713800601868826,0.815407433813483
"411",14,34,2,1,171,3,2,0,2,1.20135643886348,1.28778621348637
"412",14,22,2,2,172,1,2,1,5,0.365903387659211,0.343928177566596
"413",14,20,2,1,173,2,2,0,2,0.718925067214549,0.756797621394351
"414",14,28,2,1,174,1,1,1,5,0.393853931913722,0.379228965671328
"415",14,33,2,2,175,1,2,1,4,0.523881479897789,0.589083554498022
"416",14,36,2,2,176,3,2,1,2,0.959152430419245,0.924707852274202
"417",14,19,2,2,177,3,1,0,2,1.20542862991497,1.18951856679817
"418",14,35,2,2,178,2,2,1,3,0.409461188928664,0.451117588777678
"419",14,23,2,2,179,2,2,1,3,0.583335507192916,0.50603258389087
"420",14,24,2,1,180,1,1,1,5,0.447779205491343,0.438838425664678
"421",14,34,2,2,181,3,1,0,1,1.56408543193853,1.58738995194653
"422",14,22,2,1,182,3,2,0,2,0.680513833177047,0.697552444811988
"423",14,20,2,1,183,3,1,1,2,1.07884836569455,1.0976704947521
"424",14,28,2,2,184,3,2,1,2,0.707738336971872,0.670067213641126
"425",14,33,2,1,185,2,2,0,3,0.692461900485256,0.643916301972458
"426",14,36,2,1,186,2,1,1,3,0.504386032713761,0.542616485856706
"427",14,19,2,2,187,1,2,1,5,0.5403209695779,0.595160491598321
"428",14,35,2,2,188,1,2,1,4,0.372260117324353,0.471232968066555
"429",14,23,2,2,189,1,2,1,5,0.533082551366359,0.556703938303045
"430",14,24,2,1,190,2,1,1,4,0.841860260977251,0.797081554796502
"431",14,34,2,2,191,2,1,0,3,0.648525705671174,0.648651590564128
"432",14,22,2,2,192,1,2,1,4,0.36300105459676,0.34759561288057
"433",14,20,2,2,193,3,1,0,2,1.78597089274182,1.77772210232734
"434",14,28,2,2,194,3,2,1,3,1.14307680254626,1.17887774654367
"435",14,33,2,2,195,1,1,0,3,0.771512525231286,0.820991297205243
"436",14,36,2,2,196,2,2,1,3,0.624282174316624,0.559993154480108
"437",14,19,2,2,197,3,2,1,2,0.978429780402669,0.979906830611026
"438",14,35,2,1,198,1,1,1,5,0.424177742137203,0.443732486184027
"439",14,23,2,1,199,2,1,1,3,0.604619655080526,0.532533087574025
"440",14,24,2,2,200,1,2,1,5,0.419044016735561,0.422383358704531
"441",14,34,2,2,201,2,1,0,2,0.705497480231242,0.697177971052183
"442",14,22,2,1,202,2,1,1,3,0.68328486856395,0.782178566485631
"443",14,20,2,1,203,3,2,0,1,0.797034214444645,0.738834707580746
"444",14,28,2,1,204,1,1,1,4,0.482770994983551,0.511151430649873
"445",14,33,2,1,205,1,1,1,5,0.354476314604917,0.381797864824097
"446",14,36,2,2,206,2,2,1,3,0.514230773556244,0.527050546786619
"447",14,19,2,2,207,2,2,1,4,0.61856271445626,0.593897236561841
"448",14,35,2,2,208,1,1,0,4,0.41386767060835,0.393682608141855
"449",14,23,2,2,209,1,1,0,4,0.618702640545358,0.572087069477793
"450",14,24,2,1,210,1,1,1,4,0.393571349456035,0.324076411048206
"451",14,34,2,2,211,2,2,1,3,0.610250086833997,0.592405602608105
"452",14,22,2,1,212,2,1,1,4,0.762111482855893,0.737753638103966
"453",14,20,2,2,213,1,1,0,3,0.51792321515045,0.492826533191113
"454",14,28,2,2,214,1,2,1,5,0.401098754747404,0.352893156333223
"455",14,33,2,2,215,2,2,1,3,0.486578280635192,0.617257474577521
"456",14,36,2,1,216,1,1,1,4,0.351096670876547,0.26105320495281
"457",14,19,2,1,217,2,2,0,3,0.570490840470294,0.565284634215668
"458",14,35,2,1,218,3,1,1,2,1.29529750271691,1.31067264745985
"459",14,23,2,1,219,1,1,1,4,0.371286738437783,0.336891148619938
"460",14,24,2,2,220,2,2,1,4,0.641784619240145,0.646089574569942
"461",14,34,2,1,221,1,1,1,4,0.527458444828183,0.551146292824433
"462",14,22,2,1,222,2,2,0,3,0.471320995125976,0.474416856687345
"463",14,20,2,1,223,1,2,0,3,0.701575460945902,0.795442237882977
"464",14,28,2,1,224,3,1,1,2,0.853472160028392,0.780553180171708
"465",14,33,2,2,225,3,1,0,2,1.24293320164554,1.2672128044626
"466",14,36,2,1,226,3,2,0,2,1.19090022889003,1.21653570384948
"467",14,19,2,2,227,2,2,1,3,0.718605675887059,0.77578408618329
"468",14,35,2,2,228,2,1,0,3,0.44393450106616,0.488753050000505
"469",14,23,2,2,229,1,2,1,5,0.37950666880327,0.416157679901408
"470",14,24,2,2,230,3,1,0,1,0.761978793006247,0.782697256193553
"471",14,34,2,1,231,3,2,0,1,1.05951082798558,1.12718025732136
"472",14,22,2,2,232,3,1,0,2,0.847426908857679,0.895966365426595
"473",14,20,2,2,233,2,2,1,3,0.636442425635591,0.680987896425188
"474",14,28,2,2,234,2,2,1,4,0.637770099828837,0.663502489024013
"475",14,33,2,1,235,3,1,1,3,0.680646681138356,0.73840130062611
"476",14,36,2,2,236,3,2,1,2,0.895071185150391,0.898723489051987
"477",14,19,2,2,237,2,1,0,3,0.619386408903927,0.587827734935603
"478",14,35,2,2,238,1,2,1,5,0.384979274259838,0.441976433999189
"479",14,23,2,1,239,1,1,1,5,0.498497728559602,0.521854113678379
"480",14,24,2,2,240,3,2,1,3,0.518133412505003,0.608042354519535
"481",13,23,1,1,1,1,1,1,4,0.325104332330667,0.338131623800354
"482",13,30,1,2,2,1,2,1,4,0.47972621636328,0.448774583216977
"483",13,21,1,2,3,3,1,0,2,0.815451014904405,0.825622063666337
"484",13,18,1,1,4,3,1,1,2,0.868755543112662,0.947457993040031
"485",13,35,1,2,5,1,2,1,5,0.337053609549962,0.345185712501566
"486",13,29,1,2,6,1,1,0,4,0.781248967388369,0.760158248685654
"487",13,32,1,2,7,3,2,1,2,1.093386434462,1.0172240756279
"488",13,39,1,2,8,1,1,0,3,0.449347021484175,0.46059684958579
"489",13,26,1,2,9,1,2,1,4,0.474245393249129,0.494538073004184
"490",13,18,1,1,10,3,2,0,1,0.710406478448052,0.698946302778527
"491",13,23,1,1,11,1,1,1,4,0.381106107325638,0.418425302083382
"492",13,30,1,2,12,2,1,0,2,0.652678854484621,0.628260533524601
"493",13,21,1,1,13,2,1,1,3,0.556064959563645,0.610472326298551
"494",13,18,1,1,14,1,2,0,4,0.545566826774092,0.523766619217357
"495",13,35,1,2,15,1,2,1,5,0.315819996329037,0.315809646789625
"496",13,29,1,1,16,1,2,0,3,0.330949990813138,0.335576629190097
"497",13,32,1,2,17,1,2,1,4,0.305463780358429,0.241261865951848
"498",13,39,1,2,18,2,2,1,4,0.569678751873449,0.592866758805376
"499",13,26,1,2,19,2,1,0,2,0.84810872189648,0.731729159791091
"500",13,18,1,2,20,3,1,0,2,0.977926703931213,0.999602541025059
"501",13,23,1,1,21,1,1,1,5,0.471325396931967,0.565601600161742
"502",13,30,1,2,22,3,1,0,1,0.970141317612958,1.03667331549197
"503",13,21,1,2,23,1,1,0,4,0.581612066969819,0.654044597952574
"504",13,18,1,2,24,3,1,0,2,1.08099641915544,1.12171691799513
"505",13,35,1,1,25,3,2,0,2,1.40858052292977,1.37762112820575
"506",13,29,1,2,26,2,2,1,4,0.706750153919343,0.748378105789244
"507",13,32,1,2,27,3,2,1,3,0.405920937285911,0.367361880047456
"508",13,39,1,2,28,1,2,1,5,0.473810415103186,0.449647371007299
"509",13,26,1,2,29,1,1,0,4,0.380035855164952,0.354450137284645
"510",13,18,1,1,30,3,2,0,1,0.938860816292908,0.886222328930529
"511",13,23,1,1,31,3,2,0,2,1.1672023502897,1.14704174951324
"512",13,30,1,1,32,1,1,1,5,0.409088008711809,0.421899007283142
"513",13,21,1,2,33,1,2,1,5,0.350966949934445,0.401239654659353
"514",13,18,1,2,34,3,2,1,2,0.592972300046028,0.576655559337076
"515",13,35,1,2,35,1,1,0,4,0.557070402405995,0.587210193305007
"516",13,29,1,2,36,2,2,1,3,0.493436964887468,0.510191327894679
"517",13,32,1,2,37,2,1,0,3,0.758873973747948,0.77435139220257
"518",13,39,1,2,38,1,2,1,4,0.372661816873452,0.352639394069836
"519",13,26,1,1,39,2,1,1,4,0.888855362829235,0.919162553704317
"520",13,18,1,1,40,2,1,1,4,0.542831540284056,0.522576846415902
"521",13,23,1,2,41,2,1,0,2,0.51374423759186,0.591509360907813
"522",13,30,1,1,42,2,2,0,3,0.903624402159426,0.92192078002098
"523",13,21,1,2,43,1,2,1,5,0.579982801237327,0.626211734785082
"524",13,18,1,1,44,3,2,0,1,1.33518696315927,1.40541783166375
"525",13,35,1,2,45,2,1,0,2,0.952749431213942,0.910158054999867
"526",13,29,1,1,46,1,1,1,5,0.451817516818638,0.490240309168794
"527",13,32,1,2,47,2,1,0,2,0.684039972980002,0.669444827034888
"528",13,39,1,2,48,2,2,1,4,0.390666624694229,0.397188512133953
"529",13,26,1,1,49,1,2,0,3,0.52613566646417,0.554195816495264
"530",13,18,1,2,50,2,2,1,4,0.717432741207732,0.736633143579871
"531",13,23,1,1,51,3,2,0,2,0.749000679199161,0.660714679264716
"532",13,30,1,1,52,1,2,0,3,0.587327636082215,0.55772355701017
"533",13,21,1,1,53,1,1,1,5,0.441623706183182,0.431810210619325
"534",13,18,1,1,54,1,1,1,5,0.38619116411353,0.440827637342624
"535",13,35,1,1,55,1,1,1,4,0.314196425790778,0.365311086397098
"536",13,29,1,1,56,1,1,1,4,0.421001347143799,0.369717401319785
"537",13,32,1,2,57,3,1,0,2,0.741100512768426,0.741353496638103
"538",13,39,1,2,58,3,1,0,2,0.433541758021792,0.47110106675753
"539",13,26,1,1,59,3,2,0,2,0.80866904188779,0.782032732445409
"540",13,18,1,2,60,2,1,0,2,0.738280258478555,0.736209561325514
"541",13,23,1,1,61,2,2,0,3,0.57843122756134,0.566328475378398
"542",13,30,1,2,62,3,1,0,2,0.137327108452292,0.119853071132925
"543",13,21,1,2,63,3,1,0,1,0.693675199872387,0.855048106505462
"544",13,18,1,2,64,3,1,0,1,1.04380207941768,1.1144306506217
"545",13,35,1,1,65,2,1,1,3,0.666781536792854,0.686473385216431
"546",13,29,1,1,66,1,1,1,4,0.41148503342767,0.438486474687197
"547",13,32,1,2,67,3,1,0,2,1.2388986592558,1.26981144845228
"548",13,39,1,2,68,1,2,1,4,0.454842998260465,0.460232702195898
"549",13,26,1,2,69,2,1,0,3,0.644235022562513,0.613397106970981
"550",13,18,1,1,70,1,1,1,5,0.344708940811928,0.417623874510796
"551",13,23,1,1,71,1,1,1,4,0.485189195792769,0.500644813758629
"552",13,30,1,2,72,2,2,1,4,0.460559267530093,0.488846557169021
"553",13,21,1,1,73,3,1,1,3,0.511667108130314,0.481534640071361
"554",13,18,1,1,74,2,1,1,4,0.630415173219992,0.673820166569534
"555",13,35,1,2,75,3,1,0,1,1.1546597526157,1.10640411360898
"556",13,29,1,1,76,2,1,1,4,0.920990227607258,0.930098718711427
"557",13,32,1,1,77,2,2,0,2,0.843305246098896,0.828862197627532
"558",13,39,1,2,78,1,2,1,4,0.331913449632163,0.366128938083659
"559",13,26,1,2,79,1,2,1,5,0.37065559165673,0.388166590745828
"560",13,18,1,2,80,3,1,0,2,0.796480267576232,0.800803244539622
"561",13,23,1,1,81,3,2,0,1,0.815410991061517,0.749784464657851
"562",13,30,1,2,82,1,2,1,4,0.33989491453096,0.3153699407842
"563",13,21,1,1,83,2,1,1,3,0.590172423312007,0.51001759075167
"564",13,18,1,2,84,1,2,1,5,0.51475723952413,0.512278386983607
"565",13,35,1,1,85,3,2,0,1,1.12601809962801,1.09764395988959
"566",13,29,1,2,86,3,2,1,2,0.727185832222075,0.695480715879727
"567",13,32,1,1,87,3,2,0,1,0.980744524154012,0.989840897838864
"568",13,39,1,2,88,1,2,1,4,0.356970101312672,0.366960328602396
"569",13,26,1,1,89,2,2,0,2,0.715420109995669,0.71600524198587
"570",13,18,1,1,90,3,2,0,1,0.407697900449013,0.344353069112615
"571",13,23,1,1,91,2,1,1,3,0.636609092187455,0.652523789285537
"572",13,30,1,2,92,2,1,0,2,0.696095503850959,0.653399239184014
"573",13,21,1,1,93,3,1,1,3,0.793630584977112,0.793541092880021
"574",13,18,1,2,94,3,1,0,2,0.873967353250593,0.849877939714675
"575",13,35,1,2,95,2,1,0,3,0.684706614217898,0.645246652806836
"576",13,29,1,2,96,3,1,0,1,1.14709262765088,1.13125734996642
"577",13,32,1,2,97,2,2,1,4,0.538040550939761,0.594032502210474
"578",13,39,1,2,98,2,1,0,3,0.72290072684811,0.725179470775753
"579",13,26,1,1,99,3,2,0,1,1.06937308120219,1.1207600506994
"580",13,18,1,1,100,1,2,0,3,0.45576631773055,0.37560758005741
"581",13,23,1,1,101,1,1,1,5,0.562778937911228,0.512537254247728
"582",13,30,1,1,102,3,2,0,2,1.07086733590356,1.0096369250661
"583",13,21,1,2,103,3,1,0,1,1.7663623548376,1.8149237449841
"584",13,18,1,2,104,3,2,1,2,0.818915774609387,0.78642530388331
"585",13,35,1,2,105,3,1,0,1,0.992914355368265,0.917182910842465
"586",13,29,1,2,106,3,2,1,3,1.02713723598957,1.05971915719583
"587",13,32,1,2,107,3,1,0,1,1.50266971221778,1.5628817746081
"588",13,39,1,2,108,3,2,1,2,0.708773728084091,0.701691827925102
"589",13,26,1,1,109,2,2,0,2,0.622989644029462,0.646331154053201
"590",13,18,1,1,110,2,2,0,3,0.711280092319219,0.676211853404747
"591",13,23,1,1,111,1,1,1,5,0.336144810115452,0.20576318622712
"592",13,30,1,1,112,3,1,1,3,0.36155650200205,0.305028258267459
"593",13,21,1,1,113,3,1,1,3,0.650912984351757,0.585277965172182
"594",13,18,1,2,114,1,2,1,4,0.578333643515895,0.568067263046165
"595",13,35,1,1,115,2,1,1,4,0.698482854592618,0.772937426699122
"596",13,29,1,1,116,1,2,0,4,0.691244104918342,0.746617614598933
"597",13,32,1,2,117,1,2,1,5,0.504527529621891,0.515745397997763
"598",13,39,1,2,118,2,1,0,3,0.617320728828795,0.744989945589831
"599",13,26,1,1,119,1,1,1,5,0.324115043663571,0.4093791444386
"600",13,18,1,1,120,1,2,0,4,0.576403761357406,0.560329098980834
"601",13,23,1,1,121,1,1,1,4,0.395465092027263,0.345213603750627
"602",13,30,1,2,122,3,1,0,2,1.33997938674654,1.34864785598812
"603",13,21,1,1,123,1,1,1,4,0.317773475582135,0.285152694471135
"604",13,18,1,1,124,2,2,0,3,0.591060881719378,0.500286002038569
"605",13,35,1,2,125,3,2,1,2,0.584979672960651,0.559471739970042
"606",13,29,1,2,126,3,1,0,1,1.23771311217249,1.22784291844519
"607",13,32,1,2,127,1,2,1,4,0.436552182486233,0.425695128196671
"608",13,39,1,1,128,1,1,1,4,0.397412985429293,0.352880918985893
"609",13,26,1,2,129,1,2,1,5,0.333926953779825,0.329496467280947
"610",13,18,1,2,130,2,2,1,3,0.642095126511883,0.670889118956074
"611",13,23,1,1,131,3,1,1,2,0.404868871392292,0.378059607510388
"612",13,30,1,1,132,3,2,0,1,0.686714215056554,0.646944787663929
"613",13,21,1,1,133,1,1,1,5,0.367074045885228,0.333077486520035
"614",13,18,1,2,134,2,2,1,3,0.81112286721246,0.823927744185498
"615",13,35,1,2,135,1,2,1,5,0.292784841856261,0.320170607141481
"616",13,29,1,2,136,1,2,1,5,0.352038956234055,0.372811770279112
"617",13,32,1,2,137,1,2,1,4,0.379791796871914,0.340766672925454
"618",13,39,1,2,138,2,2,1,3,0.493975287644912,0.433458776232585
"619",13,26,1,2,139,1,2,1,4,0.439524088386491,0.408223958455948
"620",13,18,1,1,140,1,2,0,4,0.693151537430911,0.667993973808375
"621",13,23,1,1,141,2,1,1,4,0.403924174578544,0.31117929436005
"622",13,30,1,1,142,3,1,1,3,1.03347503279247,1.01342156210535
"623",13,21,1,1,143,2,1,1,3,0.72474096015481,0.739218714141416
"624",13,18,1,2,144,1,2,1,4,0.438550972713521,0.415711334946295
"625",13,35,1,2,145,3,1,0,1,0.128455720854199,0.0488490171609987
"626",13,29,1,1,146,3,2,0,2,0.136262621152977,0.12744631558152
"627",13,32,1,1,147,3,2,0,2,1.29897624679005,1.30966746242703
"628",13,39,1,1,148,3,2,0,2,0.487143172882349,0.474304732970021
"629",13,26,1,2,149,3,2,1,3,0.749044407811845,0.687320168778444
"630",13,18,1,2,150,3,2,1,3,0.938331443976903,0.90055318380532
"631",13,23,1,1,151,3,1,1,2,0.974448300930571,0.890400644334149
"632",13,30,1,1,152,1,1,1,4,0.426618764226799,0.45028957628957
"633",13,21,1,2,153,3,1,0,1,1.34339454227865,1.39354217109183
"634",13,18,1,1,154,3,1,1,3,0.681299614781615,0.643641053434082
"635",13,35,1,1,155,1,1,1,5,0.292935858312778,0.348179549992814
"636",13,29,1,1,156,1,2,0,4,0.616908744722006,0.651047004413507
"637",13,32,1,2,157,3,1,0,1,0.438328408186384,0.446088281673605
"638",13,39,1,1,158,1,1,1,4,0.359761714480727,0.375539447302389
"639",13,26,1,1,159,1,1,1,4,0.282487493924439,0.357585622819057
"640",13,18,1,1,160,1,1,1,5,0.277426320589576,0.27196449532308
"641",13,23,1,1,161,3,1,1,3,0.859497790564514,0.834845701080697
"642",13,30,1,1,162,1,1,1,4,0.298471507395767,0.3338993863129
"643",13,21,1,2,163,1,2,1,4,0.481970891319669,0.455134028666577
"644",13,18,1,1,164,2,1,1,3,0.378718930897276,0.333491982593652
"645",13,35,1,2,165,3,2,1,2,0.703313928841895,0.679914832581636
"646",13,29,1,2,166,1,2,1,4,0.45912170333933,0.494636591601442
"647",13,32,1,2,167,2,2,1,3,0.867885330205463,0.841414602694172
"648",13,39,1,1,168,2,2,0,3,0.789158312384576,0.854240259022183
"649",13,26,1,1,169,1,1,1,4,0.504368032207219,0.487267495664889
"650",13,18,1,2,170,3,2,1,3,0.978837925644516,0.963871144377957
"651",13,23,1,2,171,3,2,1,3,0.746962972193621,0.691783454267034
"652",13,30,1,2,172,2,2,1,4,0.503882015903239,0.501042985887012
"653",13,21,1,2,173,3,1,0,1,0.514361654039919,0.468058203945774
"654",13,18,1,1,174,1,1,1,5,0.519489685060501,0.432097868778889
"655",13,35,1,1,175,1,1,1,4,0.206221287468921,0.169321405487107
"656",13,29,1,2,176,2,1,0,3,0.823897614134126,0.782448725254539
"657",13,32,1,1,177,1,1,1,5,0.390248901085506,0.355854835934408
"658",13,39,1,2,178,2,2,1,4,0.622062335964133,0.610573986634688
"659",13,26,1,1,179,1,1,1,4,0.457925779176773,0.407788887266584
"660",13,18,1,1,180,2,2,0,3,0.732294261499379,0.759114439795214
"661",13,23,1,2,181,2,2,1,3,0.558047139300679,0.620191400568718
"662",13,30,1,2,182,2,2,1,3,0.406893746613416,0.443214212672847
"663",13,21,1,1,183,2,2,0,2,0.656189295397677,0.648791369828293
"664",13,18,1,2,184,2,2,1,4,0.538346770518032,0.610711210372274
"665",13,35,1,1,185,2,1,1,4,0.624399660370234,0.62265019683231
"666",13,29,1,1,186,2,1,1,3,0.576106861489193,0.549521494377542
"667",13,32,1,1,187,2,1,1,4,0.520111015012204,0.629292750325727
"668",13,39,1,1,188,2,1,1,4,0.529498364162808,0.461149628069273
"669",13,26,1,1,189,3,2,0,2,1.04600602416782,1.08324537071738
"670",13,18,1,1,190,2,1,1,4,0.414737136960849,0.361393783760999
"671",13,23,1,1,191,3,2,0,2,1.1698701553325,1.14601381133326
"672",13,30,1,1,192,2,2,0,3,0.670609122672923,0.667231236217969
"673",13,21,1,2,193,2,1,0,3,1.02542200830766,0.985735320031557
"674",13,18,1,2,194,2,2,1,4,0.732951569069617,0.729441300384218
"675",13,35,1,1,195,3,2,0,2,1.26800141272469,1.25752651495192
"676",13,29,1,1,196,3,2,0,1,0.792168447079492,0.817220620651043
"677",13,32,1,1,197,2,1,1,4,0.479508072251821,0.500904364790697
"678",13,39,1,2,198,3,1,0,1,0.635562601058843,0.576375108257436
"679",13,26,1,2,199,2,2,1,4,0.734852384188314,0.747291976306541
"680",13,18,1,2,200,3,1,0,1,0.741683100186554,0.729328370090877
"681",13,23,1,2,201,2,2,1,3,0.666759550121874,0.69014850102653
"682",13,30,1,1,202,2,1,1,4,0.556876093959954,0.466526246944101
"683",13,21,1,1,203,3,2,0,1,0.603817482218085,0.613596279509771
"684",13,18,1,1,204,1,1,1,5,0.30292137273104,0.261896574895939
"685",13,35,1,1,205,2,1,1,4,0.58423468265386,0.56574636180624
"686",13,29,1,2,206,1,2,1,5,0.424934071029045,0.429442023270871
"687",13,32,1,1,207,3,2,0,1,0.407106409643843,0.402646780572487
"688",13,39,1,1,208,2,1,1,4,0.39877666539798,0.484279043818617
"689",13,26,1,2,209,1,2,1,4,0.365132010359326,0.300126778548454
"690",13,18,1,2,210,3,2,1,3,0.856748519414449,0.834786748950926
"691",13,23,1,1,211,1,1,1,4,0.371972829972654,0.367104817928021
"692",13,30,1,1,212,3,2,0,1,0.706581675876315,0.779256156518221
"693",13,21,1,1,213,1,1,1,5,0.438269360377398,0.530482234359578
"694",13,18,1,1,214,2,1,1,4,0.596792195952633,0.603690558312627
"695",13,35,1,2,215,2,2,1,3,0.679201937798037,0.721255806359426
"696",13,29,1,1,216,2,1,1,4,0.740358123513377,0.74412911188927
"697",13,32,1,2,217,2,2,1,3,0.69659900370101,0.738469431447027
"698",13,39,1,2,218,1,1,0,3,0.621047638089712,0.661498660886044
"699",13,26,1,1,219,1,1,1,5,0.549742271702307,0.616987077530669
"700",13,18,1,1,220,2,2,0,2,0.60334836783728,0.484292681659003
"701",13,23,1,2,221,2,1,0,3,0.596829645428255,0.557979947412567
"702",13,30,1,2,222,3,2,1,2,0.600983758782822,0.57675175863903
"703",13,21,1,2,223,2,2,1,4,0.55475709101757,0.57307708481106
"704",13,18,1,2,224,3,1,0,2,1.37332203441881,1.45540201944681
"705",13,35,1,2,225,3,2,1,2,0.716514718043445,0.687597775844042
"706",13,29,1,1,226,2,1,1,3,0.556023932944376,0.640330933585567
"707",13,32,1,2,227,1,1,0,3,0.444088767346714,0.442674982026104
"708",13,39,1,1,228,3,1,1,2,0.801649490322217,0.802323508106083
"709",13,26,1,1,229,3,2,0,1,0.676185506142432,0.639769470475866
"710",13,18,1,2,230,2,1,0,2,0.498294478928806,0.460311238203653
"711",13,23,1,2,231,2,2,1,4,0.495899999249549,0.560215563947861
"712",13,30,1,2,232,2,1,0,2,0.899126041929886,0.828372664217931
"713",13,21,1,2,233,1,1,0,3,0.436070984618238,0.416589331462886
"714",13,18,1,2,234,3,1,0,2,1.37129038465993,1.39571008562786
"715",13,35,1,1,235,2,2,0,2,0.556704777885833,0.596372702730046
"716",13,29,1,1,236,2,1,1,3,0.50344101900386,0.546714554662819
"717",13,32,1,1,237,1,1,1,5,0.375615349675757,0.387930673553243
"718",13,39,1,1,238,2,1,1,3,0.5304992548614,0.497201559436658
"719",13,26,1,2,239,2,1,0,3,0.573269209763527,0.564555049751851
"720",13,18,1,1,240,3,2,0,1,1.1967518854289,1.20908465665479
"721",12,30,2,2,1,2,1,0,2,0.69254013744217,0.699624161374553
"722",12,18,2,1,2,1,1,1,4,0.366514027278789,0.371336670001635
"723",12,28,2,2,3,2,2,1,4,0.621424637189876,0.562327968904109
"724",12,24,2,1,4,3,2,0,1,1.15570285346568,1.14958346369311
"725",12,25,2,2,5,2,2,1,3,0.70568468268595,0.730809139123876
"726",12,21,2,2,6,2,1,0,3,0.918467186940805,0.888184883068289
"727",12,23,2,2,7,2,1,0,2,0.858462805357796,0.830627627652877
"728",12,36,2,2,8,2,2,1,4,0.57626143136053,0.573279438202423
"729",12,26,2,1,9,3,1,1,2,1.12132446886142,1.126377136613
"730",12,31,2,2,10,1,2,1,5,0.454713139182563,0.431113747429827
"731",12,30,2,1,11,3,1,1,3,0.915589075840603,0.953383081951287
"732",12,18,2,2,12,3,1,0,1,1.00212519736679,1.01891630189814
"733",12,28,2,1,13,2,1,1,3,0.765038765624711,0.814140334060399
"734",12,24,2,2,14,3,1,0,1,1.07939824116609,1.02441945780615
"735",12,25,2,1,15,2,2,0,3,0.605918488886516,0.596991343186599
"736",12,21,2,1,16,3,2,0,2,0.980467061727675,0.979207498017223
"737",12,23,2,2,17,1,2,1,5,0.374464891154662,0.360123178333099
"738",12,36,2,2,18,3,2,1,3,1.12556172508819,1.16544648102056
"739",12,26,2,1,19,1,1,1,4,0.397934836659037,0.378162582291439
"740",12,31,2,2,20,1,2,1,5,0.475737706668492,0.446481488866153
"741",12,30,2,1,21,2,2,0,3,0.552687047580198,0.537305612421345
"742",12,18,2,2,22,1,2,1,4,0.301748920149036,0.332036506335012
"743",12,28,2,2,23,3,1,0,2,1.18177088946603,1.17399831038717
"744",12,24,2,1,24,2,1,1,4,0.63123337031231,0.600405210074826
"745",12,25,2,1,25,1,1,1,5,0.278102877514525,0.286380890706046
"746",12,21,2,2,26,2,1,0,2,0.43406165005421,0.343416569926837
"747",12,23,2,1,27,3,2,0,1,0.578878900054093,0.614862041936945
"748",12,36,2,1,28,3,2,0,2,1.08230916377287,1.15875913795627
"749",12,26,2,2,29,3,2,1,2,0.880922447538383,0.828457046749638
"750",12,31,2,2,30,2,1,0,3,0.635727138938892,0.639878677649504
"751",12,30,2,1,31,1,2,0,3,0.657083591740499,0.609254108720772
"752",12,18,2,1,32,2,1,1,3,0.652503407289693,0.598359771673436
"753",12,28,2,1,33,3,2,0,1,0.635448278068808,0.675420193131611
"754",12,24,2,2,34,1,2,1,4,0.369464037776199,0.367298701022665
"755",12,25,2,1,35,1,1,1,5,0.459954124486868,0.544325854315807
"756",12,21,2,2,36,2,1,0,3,0.735844470581352,0.650998031615768
"757",12,23,2,1,37,3,1,1,3,0.588449018819233,0.55969957349845
"758",12,36,2,2,38,3,1,0,2,0.951442515433102,0.980687567142531
"759",12,26,2,1,39,1,1,1,4,0.383086796227868,0.395752028062473
"760",12,31,2,2,40,2,2,1,3,0.436242164277035,0.414301964019249
"761",12,30,2,1,41,3,2,0,2,1.33598951746875,1.36410173737044
"762",12,18,2,1,42,1,1,1,4,0.381349102602265,0.317774020594081
"763",12,28,2,2,43,3,1,0,1,0.668610134328451,0.685834825285955
"764",12,24,2,2,44,2,1,0,3,0.773510283239933,0.804150321214738
"765",12,25,2,2,45,2,2,1,3,0.73237587798783,0.669446910323867
"766",12,21,2,2,46,2,2,1,4,0.610619512713954,0.565807564223792
"767",12,23,2,1,47,2,1,1,3,0.496410804841782,0.607985191049376
"768",12,36,2,1,48,3,2,0,1,0.790808523121635,0.737930420873104
"769",12,26,2,2,49,3,2,1,3,0.915341845273688,0.844437648628002
"770",12,31,2,1,50,2,1,1,3,0.56739982182664,0.581844188769066
"771",12,30,2,1,51,2,2,0,2,0.826811919538766,0.826310505739202
"772",12,18,2,1,52,1,2,0,3,0.564900801114582,0.622015799666442
"773",12,28,2,1,53,1,2,0,3,0.508489963528504,0.495879026200067
"774",12,24,2,1,54,1,1,1,4,0.249119031828775,0.211137201666671
"775",12,25,2,1,55,3,2,0,1,0.936506508022187,0.976205737935428
"776",12,21,2,1,56,1,1,1,5,0.440931264277161,0.398925614314343
"777",12,23,2,1,57,2,1,1,4,0.670649348050877,0.665738168263802
"778",12,36,2,1,58,2,1,1,4,0.646719578623593,0.724201286108145
"779",12,26,2,2,59,1,2,1,4,0.421234301151258,0.463432727913848
"780",12,31,2,2,60,2,2,1,4,0.675527187482526,0.725568903582871
"781",12,30,2,2,61,1,2,1,5,0.355793605232249,0.38469890157017
"782",12,18,2,1,62,1,1,1,5,0.466599732824803,0.442476850082677
"783",12,28,2,1,63,2,2,0,2,0.908346751285998,0.950593778818735
"784",12,24,2,2,64,2,2,1,4,0.459754621794364,0.464185826673632
"785",12,25,2,2,65,1,2,1,4,0.326661150912431,0.342912938891238
"786",12,21,2,2,66,3,2,1,3,1.03294245994051,0.990952490641011
"787",12,23,2,1,67,3,1,1,2,0.749778407085641,0.728799323669317
"788",12,36,2,1,68,3,1,1,3,0.758366941081584,0.763774565040942
"789",12,26,2,2,69,3,2,1,2,0.72053528679887,0.640621091959797
"790",12,31,2,1,70,1,1,1,4,0.557437112051705,0.528571166550692
"791",12,30,2,2,71,1,2,1,5,0.412617719712736,0.414702282219172
"792",12,18,2,1,72,1,2,0,4,0.444185756721094,0.517589402527355
"793",12,28,2,2,73,1,2,1,4,0.450219687840065,0.410349240677594
"794",12,24,2,1,74,2,2,0,3,0.785713129243811,0.797323770353287
"795",12,25,2,2,75,1,1,0,3,0.691812541657611,0.752714277440582
"796",12,21,2,1,76,2,2,0,3,0.493055339126617,0.443159454628385
"797",12,23,2,2,77,1,2,1,5,0.367845530977216,0.379787109744052
"798",12,36,2,2,78,3,2,1,3,0.546324619219268,0.561592320732012
"799",12,26,2,1,79,2,1,1,4,0.602381609264214,0.644926277784297
"800",12,31,2,2,80,1,2,1,4,0.384455401395817,0.4490661293495
"801",12,30,2,1,81,1,1,1,5,0.428972495845009,0.426858708184298
"802",12,18,2,1,82,3,1,1,3,0.554898421448851,0.565236943116298
"803",12,28,2,2,83,2,1,0,3,0.57632622150676,0.508077035924469
"804",12,24,2,2,84,3,1,0,2,0.983514384193488,0.933798231680157
"805",12,25,2,1,85,3,1,1,3,0.875167835882108,0.986035024372421
"806",12,21,2,1,86,3,1,1,2,0.800797957416506,0.806489694261954
"807",12,23,2,2,87,3,2,1,3,0.79431607246146,0.710939114852982
"808",12,36,2,1,88,3,1,1,3,0.944229790820312,0.940926066946207
"809",12,26,2,2,89,3,1,0,2,1.24101378986016,1.19926874841763
"810",12,31,2,2,90,1,1,0,4,0.516252330853755,0.609610826731428
"811",12,30,2,2,91,2,1,0,2,0.476654061014171,0.501379842988667
"812",12,18,2,1,92,3,2,0,2,1.08783165493677,1.13680605697751
"813",12,28,2,2,93,2,2,1,3,0.606009388156827,0.541452816774508
"814",12,24,2,2,94,2,2,1,3,0.545670931619979,0.588861445622656
"815",12,25,2,2,95,2,1,0,3,0.648150588076173,0.640103147648784
"816",12,21,2,2,96,2,2,1,4,0.723460753378882,0.740084586572135
"817",12,23,2,1,97,2,2,0,2,0.769745157898102,0.693232702010313
"818",12,36,2,2,98,2,2,1,3,0.604427451956667,0.552763642751455
"819",12,26,2,2,99,1,2,1,4,0.293362929313187,0.250255652073435
"820",12,31,2,1,100,2,1,1,3,0.635744623942142,0.6179558350645
"821",12,30,2,2,101,1,2,1,4,0.308573825221758,0.226093589681217
"822",12,18,2,1,102,1,1,1,4,0.488002949785604,0.422526984202648
"823",12,28,2,2,103,1,2,1,5,0.324769823337913,0.321614037508532
"824",12,24,2,1,104,1,1,1,4,0.397792868474492,0.498742101868273
"825",12,25,2,2,105,2,1,0,2,0.69127065028612,0.620476123490851
"826",12,21,2,2,106,2,1,0,3,0.776693878269256,0.696809534048127
"827",12,23,2,1,107,3,1,1,2,0.628039040097565,0.670596781585151
"828",12,36,2,1,108,3,1,1,3,1.19372312063126,1.15337135637618
"829",12,26,2,1,109,2,1,1,3,0.501195738499115,0.446527906517468
"830",12,31,2,1,110,1,1,1,5,0.361147274496831,0.395216468307851
"831",12,30,2,1,111,3,2,0,1,0.616250513274011,0.554858532802987
"832",12,18,2,1,112,3,2,0,2,0.825959858535479,0.892116673370715
"833",12,28,2,2,113,2,1,0,2,0.821083318633356,0.768923491127499
"834",12,24,2,2,114,1,2,1,4,0.297974036791152,0.314893605482064
"835",12,25,2,2,115,1,2,1,4,0.494027933860285,0.515533460528314
"836",12,21,2,2,116,1,1,0,3,0.615780328084927,0.662626880826255
"837",12,23,2,1,117,2,1,1,3,0.596990985618575,0.623847868884343
"838",12,36,2,2,118,2,1,0,2,0.801561626666668,0.741531000546595
"839",12,26,2,2,119,3,1,0,1,1.40442612212835,1.40014875245122
"840",12,31,2,2,120,3,2,1,2,0.78346106261742,0.799823233847153
"841",12,30,2,1,121,3,2,0,2,0.747587218570988,0.725385355449607
"842",12,18,2,1,122,1,2,0,4,0.517028955912401,0.376123108898508
"843",12,28,2,2,123,3,1,0,2,0.83346083392066,0.816955497489059
"844",12,24,2,1,124,3,2,0,1,1.25867148058691,1.26988171714657
"845",12,25,2,2,125,1,2,1,4,0.507931082143425,0.5958023055647
"846",12,21,2,1,126,1,1,1,5,0.40826106107754,0.455362553417652
"847",12,23,2,2,127,1,2,1,4,0.473891425678299,0.522715825923582
"848",12,36,2,2,128,2,1,0,3,0.755069898747703,0.777574027069585
"849",12,26,2,1,129,1,1,1,4,0.374065598991402,0.352734028467965
"850",12,31,2,2,130,2,2,1,4,0.683793341908492,0.725557015210007
"851",12,30,2,1,131,2,1,1,3,0.684706695607563,0.68206601144068
"852",12,18,2,1,132,3,2,0,2,0.534905104007277,0.470130365344364
"853",12,28,2,1,133,3,2,0,2,0.681746523923094,0.703227029124378
"854",12,24,2,1,134,2,2,0,3,0.899544231353447,0.925703508510922
"855",12,25,2,2,135,2,1,0,2,0.598318938912484,0.580891166698157
"856",12,21,2,2,136,2,1,0,2,0.53413603412888,0.552880807461773
"857",12,23,2,2,137,2,2,1,3,0.639513991786775,0.594145884933669
"858",12,36,2,2,138,1,2,1,4,0.427873797622579,0.466502063539004
"859",12,26,2,1,139,2,1,1,4,0.616499603512841,0.620842493352002
"860",12,31,2,2,140,1,1,0,4,0.481993472099249,0.420161541852459
"861",12,30,2,1,141,3,1,1,3,0.683874680600369,0.644799152206254
"862",12,18,2,1,142,2,2,0,3,0.707711837172316,0.690303726850081
"863",12,28,2,2,143,3,1,0,2,1.00286129974618,1.01502420434115
"864",12,24,2,2,144,1,2,1,4,0.365814501731054,0.32207103986792
"865",12,25,2,1,145,3,2,0,1,0.824265876224032,0.754928845416744
"866",12,21,2,1,146,1,1,1,4,0.363380584089387,0.358443866736132
"867",12,23,2,1,147,2,2,0,3,0.562361030163686,0.638707467793133
"868",12,36,2,2,148,3,1,0,1,1.05965641531434,1.01192520911136
"869",12,26,2,2,149,3,1,0,1,0.752682522711262,0.764728971314786
"870",12,31,2,2,150,2,2,1,4,0.632940615971313,0.615235776519781
"871",12,30,2,2,151,1,2,1,5,0.419637648462034,0.3796528629907
"872",12,18,2,1,152,2,1,1,3,0.463129361438931,0.315153586783977
"873",12,28,2,1,153,3,2,0,1,1.47246679869349,1.48144997915637
"874",12,24,2,2,154,1,2,1,4,0.375249302624361,0.365030871798672
"875",12,25,2,1,155,3,2,0,1,1.00567326658391,0.97630501588327
"876",12,21,2,2,156,2,1,0,3,0.689284046979917,0.705735522093519
"877",12,23,2,2,157,1,1,0,4,0.502410514576103,0.627656736239659
"878",12,36,2,1,158,3,2,0,2,0.956469967277111,1.01174193036454
"879",12,26,2,1,159,2,1,1,3,0.633676742282029,0.617294302810081
"880",12,31,2,1,160,3,2,0,2,1.36672983901725,1.35909037234783
"881",12,30,2,1,161,3,2,0,2,0.951794350267387,0.991079277395698
"882",12,18,2,2,162,2,2,1,3,0.577808372050424,0.583849448965774
"883",12,28,2,1,163,1,1,1,5,0.338366021212688,0.289442136223478
"884",12,24,2,2,164,1,2,1,5,0.482151015459172,0.470387567132496
"885",12,25,2,2,165,1,2,1,4,0.335282234423093,0.415938477083587
"886",12,21,2,2,166,3,1,0,2,1.17576549711066,1.2434420347777
"887",12,23,2,1,167,3,2,0,1,1.01018661701305,1.03292688936725
"888",12,36,2,2,168,1,1,0,3,0.58500363064479,0.570068199187574
"889",12,26,2,1,169,3,2,0,2,0.923858882802857,0.943823676576627
"890",12,31,2,1,170,1,1,1,5,0.500895627470903,0.50891823969299
"891",12,30,2,1,171,1,1,1,5,0.368849264245087,0.434584453888539
"892",12,18,2,1,172,3,2,0,1,1.56706706996154,1.53670555697425
"893",12,28,2,1,173,1,1,1,4,0.510278378040565,0.488124914448943
"894",12,24,2,2,174,2,2,1,4,0.668747543739675,0.661489582023104
"895",12,25,2,1,175,3,2,0,2,0.94415337772218,0.92630553270063
"896",12,21,2,1,176,2,2,0,2,0.932131235343211,0.970604812323101
"897",12,23,2,2,177,2,1,0,2,0.498187919749326,0.517285475585709
"898",12,36,2,2,178,3,2,1,2,0.946579246352973,0.993006414281855
"899",12,26,2,2,179,1,2,1,4,0.459985485715646,0.385141964646182
"900",12,31,2,1,180,3,2,0,2,1.27108369194014,1.36445771987677
"901",12,30,2,2,181,1,2,1,4,0.461907651586843,0.373443913462879
"902",12,18,2,2,182,3,2,1,3,0.680271565950636,0.632548651905789
"903",12,28,2,2,183,1,2,1,5,0.453054187811975,0.455645786293311
"904",12,24,2,1,184,2,1,1,3,0.572063879283764,0.550159742805394
"905",12,25,2,2,185,3,1,0,2,1.30828788187218,1.3369381666005
"906",12,21,2,1,186,1,1,1,5,0.458084315093082,0.518678018089154
"907",12,23,2,2,187,2,1,0,3,0.651166258129183,0.628097219761839
"908",12,36,2,2,188,3,1,0,1,0.915473480258757,0.948522893597675
"909",12,26,2,2,189,2,2,1,4,0.589162993910484,0.538990963254485
"910",12,31,2,1,190,2,2,0,2,0.643446906836528,0.708769375212142
"911",12,30,2,2,191,1,2,1,4,0.480294248734542,0.444478390694202
"912",12,18,2,1,192,1,1,1,5,0.365609112224726,0.300922271613594
"913",12,28,2,1,193,3,1,1,3,0.900019605363683,0.896202991101748
"914",12,24,2,2,194,2,1,0,2,0.594822576374536,0.604716231429622
"915",12,25,2,2,195,2,1,0,2,0.875106128729456,0.836976848504699
"916",12,21,2,1,196,2,1,1,3,0.582284410772585,0.550754640528645
"917",12,23,2,2,197,2,2,1,4,0.443586201775544,0.487092508618881
"918",12,36,2,2,198,1,2,1,5,0.474898943509049,0.423972055742315
"919",12,26,2,2,199,2,2,1,3,0.773419065614442,0.773884088766249
"920",12,31,2,1,200,2,1,1,4,0.56758016730851,0.621848075945497
"921",12,30,2,1,201,3,1,1,3,0.917534241600402,0.929676389814577
"922",12,18,2,2,202,1,2,1,5,0.140698247043093,0.124053568304619
"923",12,28,2,1,203,3,2,0,1,0.746304738933532,0.752328937450031
"924",12,24,2,2,204,1,1,0,4,0.592648200920599,0.696954427725806
"925",12,25,2,1,205,2,1,1,3,0.970393051501346,1.00229610458715
"926",12,21,2,1,206,1,1,1,5,0.357750295485941,0.341013527287521
"927",12,23,2,2,207,3,1,0,2,0.190740352694732,0.213066722853937
"928",12,36,2,1,208,2,1,1,4,0.517689882520726,0.518437064995025
"929",12,26,2,1,209,3,2,0,2,1.08403477874029,1.10186309522722
"930",12,31,2,1,210,2,2,0,3,0.564630950442707,0.606747538613823
"931",12,30,2,1,211,2,1,1,4,0.408924674482834,0.372849671145009
"932",12,18,2,2,212,1,2,1,4,0.524080389734233,0.497394707529521
"933",12,28,2,1,213,3,1,1,3,0.507056156233658,0.473284213388917
"934",12,24,2,1,214,1,1,1,4,0.356660836376306,0.290021305410601
"935",12,25,2,1,215,1,2,0,3,0.533815655125602,0.591658213404243
"936",12,21,2,2,216,1,1,0,4,0.525510448486491,0.502069806722069
"937",12,23,2,2,217,1,2,1,4,0.31712496861197,0.323521954600709
"938",12,36,2,1,218,3,1,1,3,0.536269665539824,0.605001793545506
"939",12,26,2,2,219,1,1,0,3,0.459399720532995,0.457175186486734
"940",12,31,2,1,220,2,1,1,3,0.581952591747858,0.538585807663541
"941",12,30,2,1,221,3,2,0,1,1.20926978622501,1.13457712257453
"942",12,18,2,2,222,3,2,1,2,0.884189690953465,0.850955241934723
"943",12,28,2,1,223,3,2,0,2,1.28565141873258,1.35101129824869
"944",12,24,2,1,224,3,2,0,1,0.83607101862087,0.879880473207125
"945",12,25,2,2,225,1,2,1,4,0.300805620211858,0.345850275195276
"946",12,21,2,2,226,1,1,0,4,0.609334328054768,0.600297934195389
"947",12,23,2,2,227,2,2,1,3,0.697936450192747,0.585760039910313
"948",12,36,2,2,228,2,2,1,4,0.375623139077926,0.294917911587018
"949",12,26,2,2,229,1,2,1,4,0.373384980576569,0.439574057605748
"950",12,31,2,1,230,1,2,0,3,0.308644359485291,0.241540864029431
"951",12,30,2,1,231,3,2,0,1,1.11511790708433,1.06959617337312
"952",12,18,2,1,232,1,2,0,3,0.391127975096612,0.359336568202903
"953",12,28,2,1,233,3,2,0,1,1.07755486289501,0.99554632943236
"954",12,24,2,1,234,3,1,1,2,0.99561540750428,1.03610758204637
"955",12,25,2,2,235,1,2,1,5,0.429174392149685,0.424832301428169
"956",12,21,2,1,236,3,1,1,2,0.543679631230266,0.583662101008895
"957",12,23,2,1,237,2,2,0,3,0.712712881068425,0.669593655018043
"958",12,36,2,2,238,1,2,1,4,0.417975051819539,0.374603317873307
"959",12,26,2,2,239,3,2,1,3,0.885817608591661,0.885601425701479
"960",12,31,2,2,240,3,1,0,1,1.42032494026364,1.33685240066488
"961",11,27,1,2,1,3,2,1,3,0.925495095702228,0.975708041214951
"962",11,40,1,2,2,1,2,1,4,0.393506989447055,0.413194442536755
"963",11,30,1,1,3,3,2,0,1,0.323540230936726,0.331734332515546
"964",11,33,1,1,4,2,2,0,2,0.63139045898285,0.559868131554031
"965",11,19,1,1,5,2,1,1,4,0.681398720870423,0.662021367666892
"966",11,30,1,2,6,2,2,1,3,0.546604954183163,0.535997098179182
"967",11,31,1,2,7,2,2,1,3,0.550618885281436,0.516598603166206
"968",11,34,1,1,8,2,2,0,2,0.555388236821051,0.571251473628237
"969",11,34,1,1,9,2,1,1,3,0.685306314583162,0.550157649025529
"970",11,38,1,2,10,2,1,0,2,0.731342206185774,0.695220923456385
"971",11,27,1,2,11,3,2,1,3,0.702996104274952,0.726059057279474
"972",11,40,1,1,12,1,1,1,4,0.423219800228444,0.348083778891074
"973",11,30,1,2,13,2,2,1,3,0.334445547298145,0.328834686876327
"974",11,33,1,1,14,1,2,0,4,0.577994498166345,0.621909025722077
"975",11,19,1,2,15,1,1,0,4,0.491545336968968,0.501703473138532
"976",11,30,1,2,16,2,2,1,4,0.461474706024796,0.433745995141831
"977",11,31,1,2,17,2,1,0,2,0.678844737214879,0.747125694801399
"978",11,34,1,1,18,3,2,0,1,1.30733181323171,1.25077680327267
"979",11,34,1,2,19,2,2,1,4,0.48917086033443,0.473028205284014
"980",11,38,1,1,20,1,1,1,4,0.458250028835056,0.555413336928298
"981",11,27,1,1,21,2,2,0,3,0.555677718941379,0.493725227147899
"982",11,40,1,1,22,2,1,1,4,0.496971080203463,0.552562208392323
"983",11,30,1,1,23,1,1,1,4,0.31043010802718,0.291615242177294
"984",11,33,1,1,24,3,2,0,1,1.45900077861342,1.41159642699377
"985",11,19,1,2,25,1,2,1,4,0.413894733382141,0.468788197948307
"986",11,30,1,2,26,3,2,1,3,0.50764260174355,0.421697744562602
"987",11,31,1,1,27,1,1,1,4,0.40001243587207,0.450782646295243
"988",11,34,1,2,28,1,2,1,4,0.37181561342164,0.386860902385491
"989",11,34,1,2,29,3,2,1,2,0.733841065711314,0.816208320983377
"990",11,38,1,1,30,1,1,1,5,0.366765023827756,0.332512139859966
"991",11,27,1,1,31,3,2,0,2,0.767996515982732,0.72925537481923
"992",11,40,1,1,32,1,1,1,4,0.299413330066563,0.25442772019842
"993",11,30,1,1,33,1,1,1,4,0.30521892997413,0.266813461962863
"994",11,33,1,2,34,2,1,0,2,0.589128827451243,0.632079016062332
"995",11,19,1,1,35,3,1,1,3,0.649353119401658,0.665640088242498
"996",11,30,1,1,36,3,1,1,2,0.466178698365223,0.549631726616561
"997",11,31,1,2,37,3,2,1,3,0.925215671980133,0.925522812829923
"998",11,34,1,2,38,2,2,1,3,0.656862679504538,0.64480465399599
"999",11,34,1,2,39,1,1,0,4,0.585502761979915,0.552978958722745
"1000",11,38,1,2,40,2,1,0,3,0.683159131571327,0.655862776590819
"1001",11,27,1,1,41,3,1,1,2,1.0697003416531,1.0352399262845
"1002",11,40,1,1,42,2,1,1,3,0.687890002010034,0.683659086203055
"1003",11,30,1,2,43,2,1,0,3,0.792512089082554,0.764530752132629
"1004",11,33,1,2,44,2,2,1,3,0.670630443885525,0.575285961590507
"1005",11,19,1,1,45,3,2,0,2,1.06159334579854,1.03529542734491
"1006",11,30,1,2,46,3,2,1,2,0.974943038544099,1.00286488680548
"1007",11,31,1,2,47,3,1,0,2,0.622124115801865,0.582936406896362
"1008",11,34,1,1,48,2,1,1,4,0.621889153635802,0.547582974463085
"1009",11,34,1,2,49,1,2,1,4,0.35538565880542,0.384240120615246
"1010",11,38,1,1,50,2,1,1,4,0.811398802908635,0.816607610873154
"1011",11,27,1,2,51,3,1,0,2,1.02986345874128,1.01657054485643
"1012",11,40,1,1,52,3,1,1,2,0.961649486023155,1.01145785180573
"1013",11,30,1,1,53,1,2,0,4,0.527569748794182,0.494245865172972
"1014",11,33,1,1,54,1,2,0,3,0.662251092488665,0.562645804067861
"1015",11,19,1,2,55,2,2,1,4,0.488381837873295,0.510740101924109
"1016",11,30,1,1,56,1,1,1,4,0.351746203916053,0.434030074159332
"1017",11,31,1,1,57,1,1,1,5,0.404593153785647,0.344042710736323
"1018",11,34,1,2,58,2,2,1,3,0.937147258305287,0.926916092532854
"1019",11,34,1,2,59,2,2,1,4,0.433673825195729,0.553798649094655
"1020",11,38,1,1,60,3,1,1,3,0.587217182115227,0.574590731644928
"1021",11,27,1,1,61,1,2,0,3,0.640059113253755,0.652453768493252
"1022",11,40,1,1,62,3,2,0,2,0.97893640899178,0.90755066554623
"1023",11,30,1,2,63,3,2,1,3,0.573252936752198,0.553868227358373
"1024",11,33,1,1,64,2,1,1,4,0.659747358884882,0.74242037520414
"1025",11,19,1,2,65,2,2,1,3,0.697182741881011,0.676068182724961
"1026",11,30,1,2,66,3,1,0,2,0.49930788710716,0.46107329336004
"1027",11,31,1,2,67,3,1,0,1,0.889457455348204,0.918457473656549
"1028",11,34,1,1,68,1,1,1,4,0.592673484830453,0.636688467455078
"1029",11,34,1,2,69,3,2,1,3,0.641121880079746,0.72515348159881
"1030",11,38,1,1,70,1,1,1,4,0.496937609809824,0.474109868505408
"1031",11,27,1,1,71,3,2,0,1,1.45894475521971,1.50832250075968
"1032",11,40,1,1,72,2,1,1,4,0.538473336723072,0.619000083006469
"1033",11,30,1,1,73,3,1,1,2,0.774136833825794,0.742928234204319
"1034",11,33,1,1,74,1,1,1,5,0.281528821701472,0.291124350064171
"1035",11,19,1,2,75,3,2,1,2,0.614636854735101,0.541626519139982
"1036",11,30,1,1,76,1,1,1,5,0.369817811668216,0.365454492589874
"1037",11,31,1,1,77,3,2,0,2,0.74002424936068,0.769761300301193
"1038",11,34,1,1,78,1,1,1,4,0.343777536852758,0.371187499755009
"1039",11,34,1,2,79,1,1,0,4,0.741756658769871,0.650071347205427
"1040",11,38,1,2,80,1,2,1,5,0.443483762558373,0.400835965642024
"1041",11,27,1,2,81,1,1,0,4,0.483698007157442,0.427309548539988
"1042",11,40,1,1,82,1,2,0,3,0.596385868139352,0.556453273673888
"1043",11,30,1,1,83,3,1,1,2,0.93797616880613,0.972048249794465
"1044",11,33,1,2,84,3,1,0,2,0.723039940663287,0.705680296223143
"1045",11,19,1,1,85,1,2,0,4,0.426768931432987,0.310629181366328
"1046",11,30,1,2,86,2,2,1,4,0.673423704346908,0.696087644533687
"1047",11,31,1,1,87,2,1,1,3,0.632047010496749,0.642499234971372
"1048",11,34,1,2,88,3,2,1,2,0.95031021306582,0.940051242843461
"1049",11,34,1,1,89,1,2,0,3,0.593165802060274,0.582514043702412
"1050",11,38,1,1,90,1,1,1,4,0.318766516933251,0.294335410854753
"1051",11,27,1,2,91,2,2,1,4,0.546907955499368,0.57635417326166
"1052",11,40,1,1,92,2,2,0,2,0.520584134424717,0.506751951613677
"1053",11,30,1,1,93,2,1,1,4,0.439096835636217,0.478839861060213
"1054",11,33,1,1,94,1,1,1,4,0.451057567640368,0.434897209759666
"1055",11,19,1,1,95,3,2,0,2,1.10419599680932,1.1178888354201
"1056",11,30,1,2,96,1,2,1,5,0.384119064674293,0.440226586218876
"1057",11,31,1,2,97,2,1,0,2,0.391573012461769,0.315505894319723
"1058",11,34,1,2,98,2,2,1,4,0.71110278262126,0.728255319181353
"1059",11,34,1,2,99,1,2,1,4,0.524838055097921,0.588012870050584
"1060",11,38,1,1,100,1,1,1,4,0.502951753216825,0.518222886020171
"1061",11,27,1,2,101,3,1,0,2,1.35911518303495,1.3649919961772
"1062",11,40,1,2,102,3,2,1,2,0.92553002883322,0.935636028701659
"1063",11,30,1,1,103,2,1,1,3,0.34366596704687,0.375596394920047
"1064",11,33,1,2,104,2,1,0,3,0.844357316968708,0.914484875276855
"1065",11,19,1,2,105,2,2,1,3,0.452355114259333,0.405232233059536
"1066",11,30,1,2,106,3,2,1,2,0.581820587840509,0.49836577463095
"1067",11,31,1,1,107,2,2,0,2,0.351006297329833,0.387834334255847
"1068",11,34,1,2,108,1,1,0,3,0.599672146844159,0.657120637504326
"1069",11,34,1,1,109,2,1,1,4,0.786037064902551,0.818976067772999
"1070",11,38,1,2,110,2,2,1,4,0.501221911979048,0.475139182265709
"1071",11,27,1,1,111,1,1,1,5,0.364480277917445,0.3992971891932
"1072",11,40,1,1,112,1,2,0,4,0.613543773110081,0.594923779176389
"1073",11,30,1,2,113,2,2,1,4,0.605357408742639,0.615601705400316
"1074",11,33,1,2,114,2,2,1,4,0.499312964867514,0.501088166683566
"1075",11,19,1,2,115,2,2,1,3,0.522491128076003,0.493232943250397
"1076",11,30,1,1,116,3,1,1,2,0.608843468375511,0.62022071517703
"1077",11,31,1,2,117,3,2,1,3,0.808362170840133,0.762034622802322
"1078",11,34,1,1,118,3,1,1,3,0.675450295843246,0.680676430884094
"1079",11,34,1,2,119,2,1,0,2,0.641363459134499,0.656569849738052
"1080",11,38,1,2,120,3,2,1,3,0.603684332925525,0.618369666234247
"1081",11,27,1,2,121,2,2,1,4,0.57806987836341,0.526439914598173
"1082",11,40,1,2,122,1,2,1,4,0.478021851941845,0.453241010227182
"1083",11,30,1,1,123,2,1,1,4,0.740820659226402,0.755534009537398
"1084",11,33,1,1,124,1,1,1,4,0.485490680745879,0.410330149186925
"1085",11,19,1,2,125,1,2,1,4,0.41256956099499,0.438216708063424
"1086",11,30,1,2,126,1,2,1,5,0.292595913955236,0.332377541250164
"1087",11,31,1,2,127,1,2,1,4,0.4423848272675,0.524860766709407
"1088",11,34,1,1,128,1,2,0,3,0.58546915491892,0.594906637632
"1089",11,34,1,2,129,3,1,0,1,1.01565707763592,1.00435399823835
"1090",11,38,1,2,130,2,2,1,3,0.675414269666807,0.595074652784666
"1091",11,27,1,1,131,1,2,0,3,0.487683439759913,0.509786528761306
"1092",11,40,1,2,132,1,2,1,4,0.358109942504826,0.452479337034753
"1093",11,30,1,1,133,3,1,1,2,0.768188629544755,0.747744712216315
"1094",11,33,1,1,134,1,1,1,4,0.31743675741028,0.291839488497729
"1095",11,19,1,1,135,1,1,1,4,0.384699499319074,0.295392902720535
"1096",11,30,1,1,136,3,1,1,3,0.738143485493093,0.716236865515716
"1097",11,31,1,2,137,2,2,1,4,0.725514966577433,0.749473260034127
"1098",11,34,1,1,138,1,1,1,4,0.520735686179273,0.470660579888894
"1099",11,34,1,1,139,3,1,1,3,0.672355818726346,0.551293290341557
"1100",11,38,1,2,140,1,2,1,5,0.417407145512495,0.373440362750152
"1101",11,27,1,2,141,3,2,1,2,0.915872729950791,0.850698523583493
"1102",11,40,1,2,142,1,2,1,5,0.305371297343996,0.261570408365617
"1103",11,30,1,1,143,1,1,1,5,0.512436705993912,0.422761422805242
"1104",11,33,1,2,144,3,1,0,1,0.764545731605727,0.723699720452271
"1105",11,19,1,1,145,2,2,0,2,0.567652151686755,0.561101096333894
"1106",11,30,1,1,146,1,1,1,5,0.542188277843641,0.447940825186286
"1107",11,31,1,2,147,1,2,1,5,0.428409711464383,0.441464737038932
"1108",11,34,1,2,148,2,1,0,2,0.741655508911272,0.736583756444217
"1109",11,34,1,1,149,1,1,1,4,0.247983649466181,0.351781234504489
"1110",11,38,1,2,150,3,2,1,3,0.706132405576594,0.691068253039927
"1111",11,27,1,1,151,3,2,0,1,0.263480791962015,0.2448708843767
"1112",11,40,1,2,152,2,1,0,3,0.569607909047377,0.598826241332917
"1113",11,30,1,2,153,3,1,0,1,0.842468945781717,0.859899264687681
"1114",11,33,1,1,154,1,2,0,3,0.589051945235252,0.587421955847899
"1115",11,19,1,1,155,3,2,0,2,0.678027952101579,0.75598397098017
"1116",11,30,1,1,156,2,1,1,4,0.575117902648905,0.535482384457867
"1117",11,31,1,2,157,2,2,1,4,0.420422412948528,0.422549882378451
"1118",11,34,1,2,158,3,2,1,2,0.794558149285233,0.733260132683912
"1119",11,34,1,2,159,1,2,1,5,0.344460689229807,0.375893925172827
"1120",11,38,1,2,160,2,1,0,3,0.823889303916889,0.830738009948147
"1121",11,27,1,2,161,2,2,1,3,0.769224934783457,0.816696542658184
"1122",11,40,1,2,162,2,1,0,2,0.68820474245857,0.677625119951163
"1123",11,30,1,2,163,3,2,1,3,0.550352672058357,0.543792821201438
"1124",11,33,1,2,164,3,2,1,3,0.535694258896204,0.49935696073364
"1125",11,19,1,2,165,3,1,0,2,0.875890842342169,0.872872281158335
"1126",11,30,1,1,166,3,2,0,2,1.40387418863445,1.3914937660529
"1127",11,31,1,2,167,1,2,1,4,0.436911852519118,0.469822881146135
"1128",11,34,1,1,168,3,1,1,2,0.922465496529246,0.848096558653893
"1129",11,34,1,1,169,1,2,0,4,0.581732906742031,0.454858148008608
"1130",11,38,1,2,170,3,2,1,3,1.09578664526861,1.08137929366149
"1131",11,27,1,2,171,3,1,0,1,0.893873825394145,0.899872712634827
"1132",11,40,1,2,172,2,2,1,3,0.703556254555825,0.732049673959415
"1133",11,30,1,1,173,3,1,1,2,0.566019110667544,0.540954148494776
"1134",11,33,1,2,174,2,2,1,4,0.780095744453007,0.861150410861909
"1135",11,19,1,1,175,2,1,1,3,0.802958250516549,0.799561512633988
"1136",11,30,1,1,176,3,1,1,2,0.688200733024622,0.744870878640012
"1137",11,31,1,1,177,3,2,0,2,1.00399927972504,0.928281208705598
"1138",11,34,1,2,178,3,2,1,3,0.908850441147659,0.832706494170911
"1139",11,34,1,1,179,2,1,1,4,0.572340433496391,0.656831461703326
"1140",11,38,1,1,180,2,1,1,4,0.56783129393605,0.472137678806386
"1141",11,27,1,1,181,3,1,1,3,1.00226534280754,0.920003611952413
"1142",11,40,1,1,182,2,2,0,3,0.456416154475814,0.48533586844192
"1143",11,30,1,2,183,1,2,1,4,0.453621548700421,0.387691054454692
"1144",11,33,1,1,184,2,1,1,3,0.563218502847736,0.604233441906542
"1145",11,19,1,1,185,3,1,1,3,0.803784860401707,0.723449525769885
"1146",11,30,1,2,186,2,1,0,3,0.65492753062672,0.777618422484092
"1147",11,31,1,1,187,1,1,1,4,0.417454725396141,0.424038722959946
"1148",11,34,1,2,188,2,2,1,4,0.657763452810828,0.695905619627294
"1149",11,34,1,2,189,2,2,1,3,0.64536696033555,0.722230436608083
"1150",11,38,1,2,190,2,2,1,4,0.668949677156283,0.665841519850046
"1151",11,27,1,2,191,2,2,1,3,0.597199499606785,0.550477653865273
"1152",11,40,1,1,192,3,2,0,2,1.39569431059383,1.44074567287839
"1153",11,30,1,2,193,2,2,1,3,0.514342319009969,0.534400758876797
"1154",11,33,1,2,194,3,1,0,2,1.34631690914778,1.37421279144056
"1155",11,19,1,2,195,1,1,0,3,0.665199114171845,0.636991051164638
"1156",11,30,1,1,196,1,1,1,5,0.271530059253077,0.306360649014731
"1157",11,31,1,1,197,2,1,1,3,0.481374853192102,0.510651918896855
"1158",11,34,1,2,198,1,2,1,5,0.531326159645938,0.544003246215908
"1159",11,34,1,1,199,1,1,1,4,0.393500695770679,0.480303383870667
"1160",11,38,1,1,200,2,2,0,3,0.761620734191289,0.748972611057749
"1161",11,27,1,2,201,3,2,1,2,1.02471813687434,1.03288105212921
"1162",11,40,1,2,202,1,2,1,5,0.599984986994288,0.576139281039932
"1163",11,30,1,1,203,3,2,0,2,0.61113216956082,0.641651755579788
"1164",11,33,1,1,204,1,1,1,4,0.244330029346081,0.250281331854325
"1165",11,19,1,2,205,3,1,0,1,1.7983558153817,1.82479748202824
"1166",11,30,1,2,206,3,2,1,2,0.854915088662999,0.908611142698112
"1167",11,31,1,2,207,1,2,1,5,0.426806497393881,0.426726178479911
"1168",11,34,1,2,208,2,1,0,3,0.525132773377628,0.537973427953785
"1169",11,34,1,2,209,2,2,1,3,0.542014357008649,0.563768485980757
"1170",11,38,1,2,210,2,2,1,3,0.803549431691316,0.763818500061881
"1171",11,27,1,2,211,1,2,1,4,0.453946320308248,0.469111576419388
"1172",11,40,1,2,212,3,2,1,2,0.579517558096073,0.533979390924861
"1173",11,30,1,1,213,3,2,0,1,1.17324126578337,1.17293739517403
"1174",11,33,1,1,214,2,2,0,2,0.737256263473953,0.692959235471154
"1175",11,19,1,1,215,2,2,0,2,0.857865391547467,0.90310495590963
"1176",11,30,1,1,216,1,2,0,4,0.480004418780335,0.506576985293751
"1177",11,31,1,1,217,1,1,1,4,0.345704570590291,0.383762249650619
"1178",11,34,1,1,218,2,2,0,2,0.890128013568116,0.867358923169009
"1179",11,34,1,1,219,3,1,1,3,0.414699125712052,0.383705627180257
"1180",11,38,1,1,220,2,1,1,4,0.554869225570141,0.562317784448968
"1181",11,27,1,1,221,2,2,0,2,0.74476158723775,0.721472259704579
"1182",11,40,1,1,222,3,2,0,2,0.548815450266185,0.514747244791937
"1183",11,30,1,1,223,1,1,1,4,0.452449734459319,0.40782750994731
"1184",11,33,1,1,224,3,2,0,1,1.21069576814369,1.2704244199237
"1185",11,19,1,2,225,3,1,0,1,1.69647922046667,1.6642458375457
"1186",11,30,1,2,226,1,2,1,4,0.517993329216739,0.534410658493856
"1187",11,31,1,1,227,3,1,1,2,1.06123699092195,1.10753887541595
"1188",11,34,1,2,228,1,2,1,4,0.331358940511521,0.41850397511833
"1189",11,34,1,1,229,1,1,1,4,0.292557227573935,0.37713255846297
"1190",11,38,1,2,230,3,2,1,2,0.89541745768258,0.923412851219852
"1191",11,27,1,1,231,3,1,1,3,0.885637753042561,0.892512167365226
"1192",11,40,1,2,232,3,2,1,2,0.622546798329405,0.56092945008245
"1193",11,30,1,1,233,1,1,1,5,0.30309983765364,0.269896673694225
"1194",11,33,1,1,234,3,1,1,3,0.396724685400103,0.356911253255079
"1195",11,19,1,2,235,1,2,1,5,0.325057858846351,0.44867505110594
"1196",11,30,1,2,236,1,2,1,4,0.436586706347761,0.416991798694265
"1197",11,31,1,1,237,2,1,1,3,0.583725218461444,0.657079966487754
"1198",11,34,1,2,238,1,2,1,5,0.310681768233368,0.319234129101678
"1199",11,34,1,1,239,1,1,1,4,0.452516339757073,0.378906935381109
"1200",11,38,1,1,240,3,1,1,2,0.622463246241977,0.61165418682325
"1201",10,23,2,2,1,2,1,0,2,0.607614943256334,0.644375420617055
"1202",10,36,2,1,2,3,2,0,1,0.709003690648685,0.709635834402646
"1203",10,38,2,2,3,2,2,1,4,0.623201343356036,0.659813796203654
"1204",10,25,2,2,4,1,1,0,3,0.688075932617567,0.65884212399094
"1205",10,20,2,1,5,2,1,1,4,0.729647977614218,0.690004498951564
"1206",10,40,2,1,6,1,1,1,5,0.409868386653865,0.42840863431723
"1207",10,23,2,2,7,3,1,0,2,0.731638088206367,0.842601544972388
"1208",10,20,2,2,8,1,1,0,4,0.443952475990547,0.492088502676117
"1209",10,40,2,2,9,3,1,0,1,1.34663842111463,1.30998525476369
"1210",10,23,2,2,10,1,1,0,4,0.569362745180381,0.62759366203244
"1211",10,23,2,1,11,1,1,1,5,0.346703072254113,0.315573030249009
"1212",10,36,2,1,12,2,2,0,2,0.742877026058049,0.770711772831353
"1213",10,38,2,2,13,3,1,0,1,0.99696099209907,1.03169175693058
"1214",10,25,2,2,14,2,2,1,3,0.6421189212578,0.747216445777587
"1215",10,20,2,1,15,2,2,0,3,0.840221102554756,0.841043305794056
"1216",10,40,2,1,16,2,1,1,4,0.591093908532666,0.657109384108507
"1217",10,23,2,1,17,1,1,1,4,0.611222703128785,0.647788602028269
"1218",10,20,2,2,18,1,2,1,5,0.481894354998255,0.496174255862047
"1219",10,40,2,1,19,1,1,1,4,0.387171006440054,0.344103568957187
"1220",10,23,2,1,20,1,2,0,4,0.626453324415254,0.58210778951464
"1221",10,23,2,2,21,3,2,1,3,0.327720792917462,0.357158098826698
"1222",10,36,2,1,22,1,1,1,5,0.455750739300231,0.464471521984688
"1223",10,38,2,2,23,1,2,1,4,0.40837268237081,0.449921589099822
"1224",10,25,2,2,24,3,2,1,2,0.574115282410826,0.556022920851687
"1225",10,20,2,1,25,2,2,0,3,1.01032221861057,1.03176969487761
"1226",10,40,2,1,26,2,1,1,4,0.664281647685352,0.539796876446213
"1227",10,23,2,1,27,3,2,0,2,0.363580392302839,0.270201450971137
"1228",10,20,2,1,28,1,1,1,5,0.5618533313372,0.423211857021066
"1229",10,40,2,1,29,2,2,0,2,0.738129859752472,0.657586676142396
"1230",10,23,2,1,30,2,1,1,3,0.764468335022627,0.777838736497393
"1231",10,23,2,1,31,1,1,1,5,0.357697176473411,0.372386335732105
"1232",10,36,2,2,32,1,1,0,4,0.610569746428827,0.686348969772736
"1233",10,38,2,1,33,1,1,1,4,0.325982420781719,0.33984348203935
"1234",10,25,2,1,34,1,1,1,5,0.404291361346831,0.427859103047825
"1235",10,20,2,2,35,1,2,1,5,0.400538388932855,0.456826677966525
"1236",10,40,2,2,36,2,2,1,4,0.345243242612696,0.413131330475029
"1237",10,23,2,1,37,1,1,1,4,0.400560349209375,0.409012960906922
"1238",10,20,2,2,38,3,1,0,1,1.14269255315762,1.08251767446616
"1239",10,40,2,1,39,1,1,1,4,0.349436275585413,0.322323975377082
"1240",10,23,2,1,40,1,1,1,5,0.323634222219537,0.313288372251119
"1241",10,23,2,1,41,1,2,0,4,0.476460698878079,0.459177060882036
"1242",10,36,2,2,42,3,2,1,3,0.500213940072176,0.520388961493181
"1243",10,38,2,1,43,2,2,0,2,0.685351504397382,0.621800431761258
"1244",10,25,2,2,44,1,1,0,4,0.59257261646032,0.655364188796022
"1245",10,20,2,2,45,3,1,0,1,0.597877238812866,0.627110922774536
"1246",10,40,2,2,46,3,2,1,2,0.908052728715827,0.952619309709671
"1247",10,23,2,1,47,3,2,0,1,0.644122677805534,0.608514708235757
"1248",10,20,2,2,48,3,1,0,1,0.334055672302499,0.38838830705153
"1249",10,40,2,1,49,3,1,1,2,0.624890659883099,0.645025065338988
"1250",10,23,2,2,50,2,1,0,2,0.5569056333427,0.564253922055831
"1251",10,23,2,2,51,3,2,1,2,0.911362285473987,0.931403252712165
"1252",10,36,2,1,52,2,1,1,4,0.596018526828819,0.510733626176995
"1253",10,38,2,2,53,2,1,0,2,0.883815310224645,0.892360743327089
"1254",10,25,2,2,54,1,2,1,5,0.335169347723035,0.361428291904552
"1255",10,20,2,2,55,2,2,1,4,0.704454726677762,0.702559141166974
"1256",10,40,2,1,56,2,2,0,3,0.69476067347048,0.793781311825982
"1257",10,23,2,1,57,1,1,1,5,0.445639596815912,0.453179564534058
"1258",10,20,2,1,58,2,1,1,4,0.749589630923082,0.79779911840147
"1259",10,40,2,1,59,3,2,0,1,0.568534597792706,0.586682876088424
"1260",10,23,2,1,60,3,2,0,2,0.641264271818936,0.671123868818484
"1261",10,23,2,1,61,1,1,1,4,0.312065459971303,0.32894963394767
"1262",10,36,2,2,62,3,1,0,2,1.60844131414771,1.63201771027594
"1263",10,38,2,1,63,2,2,0,3,0.805195829746215,0.803291825510788
"1264",10,25,2,2,64,2,1,0,3,0.612223246565237,0.605593431087221
"1265",10,20,2,2,65,3,2,1,2,0.678516496449543,0.623197134932529
"1266",10,40,2,2,66,2,2,1,3,0.63499179334671,0.715821291636375
"1267",10,23,2,2,67,2,2,1,4,0.555285806719682,0.568554839469464
"1268",10,20,2,1,68,3,2,0,1,1.27402864305213,1.19883693228489
"1269",10,40,2,1,69,3,1,1,2,0.219311959765489,0.116359458543236
"1270",10,23,2,1,70,1,1,1,4,0.33580444498102,0.383299922017017
"1271",10,23,2,2,71,1,2,1,5,0.471202742586779,0.45225452342946
"1272",10,36,2,1,72,3,1,1,3,1.03017111371023,1.01562702033324
"1273",10,38,2,2,73,2,1,0,3,0.703835674275394,0.695275854690947
"1274",10,25,2,2,74,2,2,1,3,0.516324508713217,0.522421204740443
"1275",10,20,2,1,75,1,1,1,4,0.447349020433378,0.429246448035979
"1276",10,40,2,1,76,2,2,0,3,0.492185067467804,0.48364761822765
"1277",10,23,2,2,77,1,2,1,5,0.383958644207931,0.330026782292318
"1278",10,20,2,2,78,1,1,0,3,0.587853922597692,0.592629501816962
"1279",10,40,2,1,79,3,2,0,2,0.946251901562454,0.990827687760673
"1280",10,23,2,1,80,2,2,0,2,0.749904644150338,0.745266810733329
"1281",10,23,2,1,81,2,2,0,3,0.485144360170986,0.433188776277427
"1282",10,36,2,2,82,2,2,1,4,0.484459508000181,0.544343016548334
"1283",10,38,2,2,83,3,2,1,3,0.781701098376676,0.730229915093164
"1284",10,25,2,2,84,2,2,1,4,0.740147085658572,0.799642476910665
"1285",10,20,2,1,85,3,2,0,2,1.91458042542412,1.88383752939241
"1286",10,40,2,2,86,2,1,0,2,0.553737935501264,0.584202883383792
"1287",10,23,2,2,87,2,1,0,3,0.547247347281847,0.586262046950519
"1288",10,20,2,1,88,1,1,1,4,0.317610208864168,0.261788269932247
"1289",10,40,2,1,89,2,1,1,3,0.540301588936584,0.482670425209992
"1290",10,23,2,1,90,1,1,1,4,0.390166084604744,0.423199014623739
"1291",10,23,2,1,91,1,1,1,4,0.466199135535203,0.419893301595428
"1292",10,36,2,2,92,1,2,1,5,0.409720009364351,0.327022359191241
"1293",10,38,2,1,93,1,1,1,5,0.336501536787141,0.345849709971051
"1294",10,25,2,1,94,3,2,0,2,0.457969688319137,0.385125138403805
"1295",10,20,2,1,95,1,1,1,4,0.412032398502611,0.409943616797558
"1296",10,40,2,1,96,1,2,0,3,0.666323491077492,0.692660039898015
"1297",10,23,2,2,97,2,1,0,3,0.795658023202606,0.818287982570988
"1298",10,20,2,1,98,3,1,1,3,0.608571705140329,0.686026584830149
"1299",10,40,2,1,99,1,1,1,4,0.473768287161419,0.466086563892372
"1300",10,23,2,2,100,1,2,1,5,0.479980401471415,0.505041129580571
"1301",10,23,2,2,101,1,2,1,5,0.439443077138936,0.416286306917378
"1302",10,36,2,2,102,1,2,1,4,0.424194149764179,0.498701457671717
"1303",10,38,2,2,103,1,1,0,4,0.436428708391534,0.360546020734426
"1304",10,25,2,1,104,1,1,1,5,0.418444746114172,0.372403199056792
"1305",10,20,2,1,105,1,1,1,5,0.293013754525174,0.30339745450116
"1306",10,40,2,1,106,1,1,1,5,0.582502902193565,0.657357256197998
"1307",10,23,2,1,107,2,1,1,4,0.534374711870443,0.557470441352825
"1308",10,20,2,2,108,1,2,1,5,0.336064367008089,0.359906835597783
"1309",10,40,2,1,109,3,2,0,1,1.29100895091868,1.23321891750019
"1310",10,23,2,1,110,2,1,1,3,0.725975080822472,0.753190400665631
"1311",10,23,2,2,111,2,1,0,3,0.576441647706063,0.603919585998974
"1312",10,36,2,1,112,3,1,1,3,1.2973702667461,1.24971896402346
"1313",10,38,2,2,113,3,2,1,2,0.832990021941063,0.91028851046002
"1314",10,25,2,1,114,2,2,0,2,0.542661475890517,0.535634878942645
"1315",10,20,2,1,115,3,2,0,1,1.35553840206915,1.36191455114773
"1316",10,40,2,2,116,3,1,0,1,1.29315232255548,1.328906348537
"1317",10,23,2,2,117,2,1,0,2,0.193095073540954,0.191327680134729
"1318",10,20,2,1,118,3,1,1,3,0.602234453232209,0.624800206210683
"1319",10,40,2,2,119,3,2,1,3,0.222090870059849,0.175869763500009
"1320",10,23,2,2,120,1,2,1,4,0.362065425061623,0.314093094559383
"1321",10,23,2,1,121,1,1,1,5,0.338201041764599,0.394323153445564
"1322",10,36,2,2,122,2,2,1,4,0.670427646172276,0.725042157831882
"1323",10,38,2,2,123,2,1,0,3,1.02164257708029,0.968585509052707
"1324",10,25,2,2,124,2,2,1,3,0.527589524118988,0.532116941515563
"1325",10,20,2,2,125,3,2,1,2,0.690219811365698,0.806042705197932
"1326",10,40,2,1,126,1,1,1,5,0.489730403781178,0.536068674113533
"1327",10,23,2,1,127,3,1,1,3,0.742156817525633,0.724192184367136
"1328",10,20,2,1,128,3,2,0,2,1.11807141092035,1.01007532541807
"1329",10,40,2,1,129,2,2,0,3,0.635707108165646,0.501851898369953
"1330",10,23,2,2,130,1,2,1,5,0.380205430497236,0.369836880311648
"1331",10,23,2,1,131,1,1,1,4,0.331750810185399,0.368717560878806
"1332",10,36,2,1,132,2,1,1,3,0.568641322080733,0.521722102240533
"1333",10,38,2,2,133,3,1,0,1,0.834445640282511,0.793514949735925
"1334",10,25,2,2,134,2,1,0,3,0.517211452139499,0.607853116543782
"1335",10,20,2,2,135,1,2,1,5,0.472808880258042,0.454603092903595
"1336",10,40,2,2,136,3,2,1,2,0.722992831602636,0.781235429565298
"1337",10,23,2,1,137,2,2,0,3,0.847214480252215,0.848024762874557
"1338",10,20,2,2,138,3,2,1,3,0.715650875790844,0.748376171396751
"1339",10,40,2,2,139,2,2,1,4,0.48778777776615,0.461993162257403
"1340",10,23,2,1,140,3,2,0,2,0.461789122666009,0.470731462241291
"1341",10,23,2,2,141,2,2,1,3,0.594193901087024,0.648936070858187
"1342",10,36,2,2,142,2,1,0,3,0.323221071931271,0.355044777425046
"1343",10,38,2,1,143,2,2,0,3,0.675680719374842,0.656276647012521
"1344",10,25,2,2,144,1,2,1,5,0.446713702081305,0.458746098162971
"1345",10,20,2,1,145,2,1,1,3,0.759247299816847,0.782252967625834
"1346",10,40,2,1,146,2,2,0,2,0.910926790043365,0.832251134009114
"1347",10,23,2,1,147,3,1,1,3,0.407681540262191,0.35424717968132
"1348",10,20,2,2,148,3,2,1,2,0.510287537430188,0.518608388088771
"1349",10,40,2,1,149,3,1,1,2,1.09781942249003,1.12627813868952
"1350",10,23,2,2,150,3,2,1,2,0.552914086122541,0.54750033376591
"1351",10,23,2,2,151,3,1,0,1,1.01542119289405,1.07834250674251
"1352",10,36,2,1,152,3,1,1,2,0.666994748408376,0.649283997050929
"1353",10,38,2,2,153,1,2,1,5,0.457113178199557,0.465528365732907
"1354",10,25,2,2,154,3,1,0,2,1.03947212380859,1.01480159581561
"1355",10,20,2,1,155,3,2,0,1,0.92757502554708,0.914839152815999
"1356",10,40,2,2,156,3,1,0,2,1.87401849855066,1.85305039610859
"1357",10,23,2,2,157,1,2,1,5,0.477071084146645,0.557865541194064
"1358",10,20,2,1,158,3,1,1,2,0.914170397115113,0.930496900486278
"1359",10,40,2,1,159,3,1,1,2,1.18868301233632,1.15464727842022
"1360",10,23,2,2,160,1,1,0,4,0.557932424708794,0.479187163257192
"1361",10,23,2,2,161,3,1,0,2,0.937677160473614,0.931796116137931
"1362",10,36,2,2,162,1,2,1,5,0.429393745151196,0.431117482225241
"1363",10,38,2,1,163,2,1,1,4,0.526725480095653,0.570821398981994
"1364",10,25,2,1,164,1,1,1,4,0.434591809550306,0.411498870460353
"1365",10,20,2,2,165,3,2,1,2,0.684042290792983,0.623863238051741
"1366",10,40,2,2,166,1,2,1,5,0.339181170728668,0.359192756474645
"1367",10,23,2,1,167,1,2,0,4,0.535676456740113,0.533067450406284
"1368",10,20,2,1,168,1,1,1,5,0.376046054876379,0.378858256728902
"1369",10,40,2,2,169,2,2,1,3,0.806902566471629,0.765979023285008
"1370",10,23,2,2,170,3,1,0,2,0.855112919567227,0.926508275021911
"1371",10,23,2,1,171,3,1,1,3,0.741193841290214,0.725157853937828
"1372",10,36,2,1,172,2,2,0,3,0.964202138934949,0.873730926167823
"1373",10,38,2,2,173,1,2,1,4,0.469057604913454,0.490506614743264
"1374",10,25,2,2,174,2,1,0,3,0.879890963375822,0.925766440169248
"1375",10,20,2,2,175,2,2,1,4,0.728949610586162,0.661241030457389
"1376",10,40,2,2,176,3,2,1,2,0.620190847530879,0.607938686796984
"1377",10,23,2,2,177,2,1,0,2,0.639304680060488,0.697928052975532
"1378",10,20,2,1,178,1,2,0,3,0.467570269383394,0.404976627463404
"1379",10,40,2,1,179,1,1,1,5,0.426299497946765,0.459008202081269
"1380",10,23,2,2,180,1,2,1,5,0.330614179094453,0.256791189401766
"1381",10,23,2,1,181,3,1,1,3,0.83658215282336,0.816824187865686
"1382",10,36,2,2,182,3,2,1,3,0.922727832348167,0.923894909464734
"1383",10,38,2,2,183,2,1,0,2,0.566726215573437,0.57527802861946
"1384",10,25,2,1,184,1,2,0,4,0.566248843625115,0.543125179199453
"1385",10,20,2,2,185,3,1,0,1,0.941515787522662,0.930748134951527
"1386",10,40,2,1,186,2,2,0,2,0.832893224991899,0.827346190202017
"1387",10,23,2,1,187,2,1,1,4,0.667254257763472,0.787253447354669
"1388",10,20,2,2,188,1,2,1,4,0.301439309586135,0.254705941614149
"1389",10,40,2,2,189,3,2,1,3,0.848160817230081,0.922046469951626
"1390",10,23,2,1,190,2,1,1,4,0.496157219158736,0.489343137952939
"1391",10,23,2,1,191,2,1,1,3,0.586845406160137,0.599698062533184
"1392",10,36,2,2,192,3,1,0,2,1.42471140496307,1.42558715772728
"1393",10,38,2,1,193,2,1,1,3,0.535854853374363,0.477239619233211
"1394",10,25,2,2,194,1,2,1,4,0.459649595221168,0.414863034155811
"1395",10,20,2,1,195,3,1,1,2,0.774746042101871,0.746814861755516
"1396",10,40,2,2,196,3,1,0,2,1.28726758227933,1.25942271077066
"1397",10,23,2,2,197,3,2,1,3,0.904819528778006,0.785131815343387
"1398",10,20,2,1,198,2,2,0,2,0.816467389082345,0.905918087995954
"1399",10,40,2,2,199,1,2,1,5,0.445509205555596,0.460229655389613
"1400",10,23,2,1,200,3,1,1,2,0.983236590934209,0.872030543723186
"1401",10,23,2,2,201,1,2,1,4,0.254005036220431,0.313164741467547
"1402",10,36,2,2,202,1,2,1,4,0.273323352154941,0.233323425327531
"1403",10,38,2,2,203,3,2,1,3,0.949226948678084,0.918796917285508
"1404",10,25,2,1,204,3,2,0,2,1.39494000851202,1.39219533061467
"1405",10,20,2,2,205,2,1,0,3,0.858222033590337,0.836735710006786
"1406",10,40,2,2,206,2,1,0,3,0.703372376116182,0.724600451115583
"1407",10,23,2,2,207,2,1,0,2,0.54769291634373,0.538744427863781
"1408",10,20,2,1,208,3,1,1,2,0.570355656967762,0.588643998168114
"1409",10,40,2,2,209,2,2,1,3,0.706353489623875,0.749250623985601
"1410",10,23,2,2,210,3,1,0,2,0.981922533638404,1.01298561043442
"1411",10,23,2,2,211,2,1,0,2,0.671686434269943,0.639841964589454
"1412",10,36,2,2,212,2,1,0,2,0.699719880363334,0.619896125409732
"1413",10,38,2,2,213,2,2,1,4,0.574769627411864,0.582860033091761
"1414",10,25,2,1,214,3,2,0,1,0.97306355595806,1.01429027891221
"1415",10,20,2,2,215,3,2,1,3,0.91020537231494,0.943329540306477
"1416",10,40,2,2,216,1,2,1,5,0.429907942066246,0.453169642778507
"1417",10,23,2,1,217,3,1,1,2,0.723650069397173,0.75477333208769
"1418",10,20,2,1,218,3,1,1,3,0.802430814824303,0.878334391613871
"1419",10,40,2,1,219,2,1,1,4,0.523903635374852,0.547155211749648
"1420",10,23,2,2,220,2,2,1,3,0.467086912324669,0.492270956702563
"1421",10,23,2,1,221,1,1,1,5,0.387664873471317,0.376231962754709
"1422",10,36,2,2,222,1,2,1,5,0.503718536533976,0.444588065591688
"1423",10,38,2,2,223,2,2,1,3,0.570387071302855,0.545811018716612
"1424",10,25,2,1,224,1,1,1,5,0.473269780455384,0.398538046145716
"1425",10,20,2,1,225,3,1,1,3,0.69918013878324,0.717013924288811
"1426",10,40,2,1,226,1,1,1,5,0.416538342112573,0.391568821650417
"1427",10,23,2,2,227,2,2,1,3,0.417188384801378,0.378370072943806
"1428",10,20,2,1,228,2,1,1,3,0.529460662662655,0.504377557949861
"1429",10,40,2,1,229,3,2,0,2,0.993038526826201,1.00079741262425
"1430",10,23,2,2,230,1,2,1,5,0.232439803409586,0.175206782425145
"1431",10,23,2,1,231,1,1,1,5,0.457681401647672,0.520509919111424
"1432",10,36,2,2,232,3,1,0,2,0.362783386171308,0.299466912173158
"1433",10,38,2,2,233,3,1,0,2,0.737894768201262,0.726301273561449
"1434",10,25,2,1,234,1,1,1,4,0.420214983243723,0.432105139315837
"1435",10,20,2,1,235,2,2,0,2,0.613570557821651,0.66104434343655
"1436",10,40,2,1,236,3,2,0,1,1.36973695243014,1.35160308624999
"1437",10,23,2,2,237,2,2,1,4,0.524990174239759,0.385077193645985
"1438",10,20,2,1,238,3,1,1,3,0.829970837347903,0.898203856265522
"1439",10,40,2,1,239,2,1,1,4,0.610758377581147,0.597785864281855
"1440",10,23,2,1,240,1,1,1,5,0.436070959495963,0.444225949250955
"1441",9,34,1,2,1,1,2,1,4,0.40921431300055,0.421868872544299
"1442",9,26,1,1,2,1,1,1,5,0.389465282410816,0.323201167709352
"1443",9,37,1,2,3,3,1,0,2,1.56539074808952,1.64242934163671
"1444",9,33,1,1,4,2,1,1,3,0.664727700581641,0.667687667521232
"1445",9,38,1,2,5,2,2,1,3,0.646166908494568,0.641408969893833
"1446",9,35,1,1,6,2,2,0,2,0.780621600485562,0.796283548005086
"1447",9,35,1,2,7,2,2,1,4,0.48360374327249,0.560275194989441
"1448",9,31,1,2,8,1,2,1,5,0.380001855458798,0.380675891832914
"1449",9,28,1,2,9,2,1,0,2,0.817424787137749,0.85199198488582
"1450",9,31,1,1,10,3,2,0,1,0.885659799684401,0.903352118678124
"1451",9,34,1,2,11,3,1,0,1,0.785089258307602,0.775162352257551
"1452",9,26,1,2,12,3,2,1,2,1.07131540478459,1.11787609704382
"1453",9,37,1,1,13,3,1,1,3,0.789743931223324,0.770504594839837
"1454",9,33,1,2,14,2,1,0,2,0.917101322596957,0.860682060462196
"1455",9,38,1,2,15,2,1,0,3,0.47348688955752,0.432041186041285
"1456",9,35,1,2,16,2,1,0,3,0.531913106066788,0.554080364604284
"1457",9,35,1,1,17,2,2,0,2,0.634259939702093,0.615307831964883
"1458",9,31,1,1,18,1,1,1,4,0.320762019954493,0.382143622733556
"1459",9,28,1,2,19,2,2,1,4,0.348192445209188,0.361500800540551
"1460",9,31,1,2,20,2,2,1,3,0.661755191973678,0.680145317562247
"1461",9,34,1,2,21,1,2,1,4,0.442539159292726,0.434971195712604
"1462",9,26,1,2,22,3,1,0,2,0.864367458569315,0.821455735938683
"1463",9,37,1,2,23,2,1,0,3,0.45508614326555,0.528147846640451
"1464",9,33,1,2,24,1,1,0,3,0.550773240007784,0.576083343539786
"1465",9,38,1,2,25,3,2,1,3,0.764489384801263,0.786707089556218
"1466",9,35,1,2,26,1,2,1,4,0.423228894775366,0.454490739956841
"1467",9,35,1,2,27,3,1,0,2,0.747788843845573,0.894752011292851
"1468",9,31,1,1,28,1,2,0,3,0.443159703237753,0.470462274000946
"1469",9,28,1,1,29,3,1,1,3,0.822373554837206,0.842542147036969
"1470",9,31,1,2,30,3,2,1,2,0.58070863075167,0.56730973730025
"1471",9,34,1,1,31,1,2,0,3,0.648357674706184,0.649852938223964
"1472",9,26,1,1,32,3,2,0,2,0.364302598853308,0.301819117661564
"1473",9,37,1,1,33,1,1,1,4,0.315172560953205,0.319507216546146
"1474",9,33,1,2,34,2,1,0,2,0.605399868185362,0.621330251477529
"1475",9,38,1,2,35,1,1,0,4,0.65769736828452,0.698418402363777
"1476",9,35,1,2,36,2,1,0,3,0.793430299019759,0.754284606293602
"1477",9,35,1,1,37,2,1,1,4,0.680131686732947,0.832039876771686
"1478",9,31,1,1,38,3,1,1,3,1.00679174794606,1.0522275142132
"1479",9,28,1,1,39,3,2,0,2,1.52565198339951,1.55210310523157
"1480",9,31,1,1,40,1,1,1,5,0.424528740800203,0.425861904683901
"1481",9,34,1,2,41,1,2,1,5,0.409240817580505,0.323255551564772
"1482",9,26,1,2,42,1,2,1,4,0.434237515372834,0.488721729127413
"1483",9,37,1,1,43,2,1,1,4,0.558496420182479,0.640861846293967
"1484",9,33,1,1,44,1,1,1,4,0.424367804842972,0.448832401165951
"1485",9,38,1,1,45,2,1,1,3,0.595207311976853,0.608909994102494
"1486",9,35,1,2,46,3,1,0,1,1.12367625783622,1.08359221008812
"1487",9,35,1,1,47,2,1,1,4,0.504135379090654,0.425228051028155
"1488",9,31,1,1,48,2,1,1,3,0.722687760825814,0.762138679151614
"1489",9,28,1,1,49,2,1,1,4,0.605950215294634,0.609356376736994
"1490",9,31,1,1,50,2,1,1,4,0.672192475417841,0.703581590059494
"1491",9,34,1,2,51,1,2,1,5,0.457080809929412,0.409840192414118
"1492",9,26,1,1,52,3,1,1,2,0.878425939575066,0.903622911533463
"1493",9,37,1,2,53,1,1,0,4,0.562620200248107,0.546134668160225
"1494",9,33,1,2,54,1,2,1,4,0.461929868145489,0.447409149362636
"1495",9,38,1,2,55,2,2,1,3,0.714296605817244,0.670329190375058
"1496",9,35,1,1,56,1,1,1,5,0.480769475077991,0.532173223586902
"1497",9,35,1,2,57,1,2,1,5,0.454920384896033,0.385568090585764
"1498",9,31,1,2,58,3,1,0,2,0.680329505875203,0.620525266911828
"1499",9,28,1,2,59,2,1,0,2,0.474502573971494,0.539286099232127
"1500",9,31,1,2,60,1,2,1,5,0.384985939862256,0.359014975124853
"1501",9,34,1,1,61,2,1,1,4,0.847481509877825,0.827538409496521
"1502",9,26,1,1,62,1,1,1,4,0.479818008661691,0.43301845203765
"1503",9,37,1,2,63,2,2,1,4,0.44795260227435,0.486538795405826
"1504",9,33,1,2,64,1,2,1,4,0.412280212281196,0.45443043097641
"1505",9,38,1,2,65,2,1,0,2,0.63343061852344,0.710094790683337
"1506",9,35,1,1,66,1,1,1,5,0.283963578607964,0.234174408669097
"1507",9,35,1,1,67,1,1,1,4,0.492754129422205,0.587143382874835
"1508",9,31,1,1,68,1,1,1,4,0.536409147769662,0.494914883471726
"1509",9,28,1,1,69,1,2,0,4,0.585989380525384,0.562531325217536
"1510",9,31,1,2,70,3,2,1,3,0.650788619628215,0.719630549719131
"1511",9,34,1,2,71,2,2,1,3,0.787352365375945,0.854616877952655
"1512",9,26,1,1,72,3,1,1,3,0.975155950136123,0.934530611018634
"1513",9,37,1,1,73,3,1,1,2,0.608708179064822,0.526243328371131
"1514",9,33,1,1,74,3,2,0,2,0.94515695316692,0.967887777488016
"1515",9,38,1,1,75,1,1,1,5,0.372600273372629,0.347739262767933
"1516",9,35,1,2,76,3,1,0,1,0.734815334774344,0.828525611894218
"1517",9,35,1,1,77,2,2,0,2,0.689972032267292,0.708436988165414
"1518",9,31,1,1,78,1,2,0,4,0.358893579879812,0.33036204779307
"1519",9,28,1,2,79,1,2,1,5,0.384573029653662,0.48265506826223
"1520",9,31,1,1,80,2,1,1,3,0.647117519254539,0.562534441459859
"1521",9,34,1,1,81,1,2,0,3,0.477742285607759,0.442100607426053
"1522",9,26,1,1,82,3,1,1,2,0.753273943541372,0.726133483155539
"1523",9,37,1,2,83,2,2,1,3,0.706905485470421,0.703869089100677
"1524",9,33,1,2,84,1,2,1,5,0.36485741521864,0.338543513996154
"1525",9,38,1,1,85,3,1,1,3,0.635858635884041,0.58775716013927
"1526",9,35,1,2,86,2,2,1,4,0.761429828565165,0.832867638420357
"1527",9,35,1,1,87,2,2,0,3,0.921054068714529,0.777912567099294
"1528",9,31,1,2,88,3,1,0,1,1.10139356068382,1.13852856442212
"1529",9,28,1,2,89,1,2,1,4,0.289822031282893,0.312334069092424
"1530",9,31,1,2,90,1,2,1,4,0.466107064746587,0.395100706993466
"1531",9,34,1,2,91,2,2,1,4,0.371859038386296,0.425611670199617
"1532",9,26,1,1,92,1,1,1,5,0.376537946645845,0.370077839946889
"1533",9,37,1,2,93,3,1,0,2,1.05002795054019,1.03431315825579
"1534",9,33,1,1,94,2,1,1,3,0.68007610829393,0.68286276164671
"1535",9,38,1,2,95,3,1,0,1,0.615819290565858,0.554020208844065
"1536",9,35,1,1,96,1,2,0,3,0.577031455547167,0.621873469139778
"1537",9,35,1,1,97,2,1,1,4,0.453782982342313,0.489858007346677
"1538",9,31,1,2,98,1,2,1,5,0.341483018337294,0.326471897722431
"1539",9,28,1,2,99,3,1,0,1,1.38830866367751,1.38213945501206
"1540",9,31,1,2,100,3,2,1,2,1.00671690309627,0.983329055616963
"1541",9,34,1,2,101,1,2,1,5,0.370457848930047,0.309635798598473
"1542",9,26,1,1,102,3,2,0,2,1.27697075157028,1.2207596821935
"1543",9,37,1,1,103,2,2,0,2,0.590395298054482,0.625454782039744
"1544",9,33,1,2,104,1,2,1,5,0.449911278543516,0.39260572245332
"1545",9,38,1,2,105,3,1,0,2,0.864499371301029,0.839051185690332
"1546",9,35,1,1,106,3,1,1,3,1.27787582251944,1.30377728689376
"1547",9,35,1,1,107,3,1,1,3,0.720126288473341,0.80136404648911
"1548",9,31,1,2,108,1,1,0,3,0.560125056458413,0.620946234266934
"1549",9,28,1,1,109,3,1,1,3,0.916331553617964,0.859187560727428
"1550",9,31,1,1,110,1,2,0,4,0.575354355594258,0.578576655577823
"1551",9,34,1,2,111,2,2,1,4,0.733303957619012,0.747976552678161
"1552",9,26,1,1,112,1,1,1,5,0.310007663390504,0.331501595204123
"1553",9,37,1,2,113,3,2,1,2,0.871566588485151,0.921155443037337
"1554",9,33,1,1,114,3,2,0,1,0.861620953019539,0.853198859901031
"1555",9,38,1,1,115,3,1,1,3,0.7784369772482,0.806849873875204
"1556",9,35,1,2,116,3,2,1,2,0.594099073087862,0.617668581009521
"1557",9,35,1,1,117,3,2,0,2,1.4546984647819,1.5395705171995
"1558",9,31,1,2,118,3,2,1,3,0.814488841511893,0.737205430344582
"1559",9,28,1,2,119,3,1,0,2,0.705681954789075,0.744081885705048
"1560",9,31,1,1,120,1,1,1,4,0.431708567577186,0.550041622507127
"1561",9,34,1,2,121,1,1,0,4,0.649997395744501,0.603579375771517
"1562",9,26,1,2,122,3,2,1,3,0.701580612161511,0.676051552874139
"1563",9,37,1,2,123,1,1,0,4,0.613497562469934,0.528759567666028
"1564",9,33,1,1,124,3,1,1,3,0.600689210572479,0.557002645048399
"1565",9,38,1,1,125,3,2,0,1,0.755129265052797,0.765575678053845
"1566",9,35,1,2,126,3,2,1,3,0.546301647699585,0.607083652057661
"1567",9,35,1,1,127,2,2,0,2,0.619643530675943,0.570256351582058
"1568",9,31,1,1,128,2,1,1,3,0.598374363071816,0.636937935329606
"1569",9,28,1,2,129,2,2,1,3,0.551647120093657,0.548486467983209
"1570",9,31,1,1,130,3,1,1,2,0.87947430558278,0.915467428268557
"1571",9,34,1,1,131,2,1,1,4,0.570299669226794,0.53914710404723
"1572",9,26,1,1,132,1,1,1,5,0.562769790750784,0.584711332691836
"1573",9,37,1,2,133,1,2,1,4,0.297375757208761,0.344764447342943
"1574",9,33,1,1,134,1,1,1,4,0.337029934723431,0.347010616032072
"1575",9,38,1,2,135,2,2,1,3,0.742699154711364,0.728103557225272
"1576",9,35,1,2,136,2,2,1,4,0.536127826584313,0.513167216405734
"1577",9,35,1,1,137,1,1,1,4,0.407054565433327,0.415963437151993
"1578",9,31,1,2,138,1,2,1,4,0.463933776893161,0.505258831749139
