"","subj_no","age","group","stim","trial","difficulty","resp","corr","conf","RT_day1","RT_day2"
"1",16,23,2,2,1,3,2,1,3,0.571775487489231,0.615912918223546
"2",16,31,2,1,2,3,2,0,2,1.42551744678311,1.34457793058396
"3",16,34,2,2,3,3,1,0,1,1.226817579567,1.20900647047412
"4",16,37,2,2,4,3,1,0,2,1.0997667471299,1.12052535921278
"5",16,26,2,1,5,3,2,0,2,1.0613945223487,1.1702977979995
"6",16,24,2,1,6,2,1,1,3,0.596385055455093,0.575579156625424
"7",16,22,2,2,7,2,1,0,2,0.445823833608925,0.44701484198564
"8",16,40,2,1,8,2,1,1,4,0.505210197307005,0.517090724774143
"9",16,25,2,1,9,2,1,1,3,0.654160794174586,0.581125730053701
"10",16,34,2,2,10,3,1,0,1,1.30540950788014,1.35546255974162
"11",16,23,2,2,11,1,2,1,5,0.383213585280867,0.414029884643334
"12",16,31,2,2,12,3,1,0,2,0.733046366413291,0.735905753891831
"13",16,34,2,2,13,2,2,1,3,0.767090025522118,0.749951445342085
"14",16,37,2,2,14,3,2,1,2,0.96105282186542,0.965835877858286
"15",16,26,2,2,15,1,2,1,5,0.435683343487977,0.392037497326164
"16",16,24,2,2,16,1,2,1,4,0.437192808815089,0.418465845104083
"17",16,22,2,2,17,1,2,1,4,0.404827491521439,0.375427613718292
"18",16,40,2,1,18,2,1,1,4,0.556972824693092,0.551448219773993
"19",16,25,2,1,19,2,2,0,2,0.623379074969989,0.579640155530531
"20",16,34,2,2,20,3,2,1,2,0.721655246370749,0.59081256780566
"21",16,23,2,1,21,3,1,1,2,0.542309795684505,0.607167838132435
"22",16,31,2,1,22,3,1,1,3,0.810435734446952,0.871085734291154
"23",16,34,2,2,23,1,1,0,3,0.503852491332699,0.513729176417373
"24",16,37,2,2,24,2,1,0,2,0.699330517773224,0.714739779912289
"25",16,26,2,1,25,2,2,0,3,0.805459862296424,0.88516433342639
"26",16,24,2,1,26,1,1,1,4,0.459284934878356,0.473107106391437
"27",16,22,2,1,27,1,2,0,3,0.640130323336675,0.684142211678441
"28",16,40,2,1,28,3,1,1,3,0.427638124057225,0.508183315604797
"29",16,25,2,2,29,1,2,1,4,0.444883042875464,0.449112445509177
"30",16,34,2,2,30,2,1,0,2,0.737593094551342,0.701554801939074
"31",16,23,2,2,31,2,2,1,3,0.652343530302887,0.692528176117188
"32",16,31,2,1,32,1,1,1,5,0.334645851711645,0.338950515448546
"33",16,34,2,1,33,1,1,1,4,0.354120530960244,0.424952266336295
"34",16,37,2,2,34,1,1,0,3,0.49903904127409,0.495101683714517
"35",16,26,2,2,35,1,2,1,5,0.450121797361222,0.35479202284055
"36",16,24,2,2,36,3,1,0,2,0.814484217777623,0.820702374828764
"37",16,22,2,1,37,2,2,0,2,0.66739945999663,0.750018244668806
"38",16,40,2,1,38,1,1,1,5,0.498546420444739,0.464239636455483
"39",16,25,2,2,39,3,1,0,2,0.451364369992772,0.473326844018446
"40",16,34,2,2,40,1,2,1,5,0.60817718219166,0.44571454505501
"41",16,23,2,2,41,1,1,0,4,0.49404296768692,0.442176008493802
"42",16,31,2,1,42,3,1,1,3,0.983227653977609,1.02127342205208
"43",16,34,2,1,43,2,1,1,4,0.433094498791652,0.440921837774012
"44",16,37,2,2,44,1,2,1,5,0.358680661143806,0.301554452544688
"45",16,26,2,2,45,3,2,1,2,0.632271152101262,0.632530057884764
"46",16,24,2,1,46,3,2,0,1,1.42075953110119,1.4023318141312
"47",16,22,2,1,47,1,1,1,4,0.390173579081167,0.443250193741917
"48",16,40,2,1,48,2,1,1,4,0.47467114418032,0.554361402074025
"49",16,25,2,1,49,3,2,0,2,1.10942225496127,1.12809170936556
"50",16,34,2,2,50,2,2,1,4,0.462945381293339,0.526831478178831
"51",16,23,2,1,51,1,1,1,4,0.475206276958157,0.516159023839174
"52",16,31,2,2,52,3,2,1,2,1.04619833547253,1.03359773293403
"53",16,34,2,2,53,1,2,1,4,0.433460735128723,0.408506002629023
"54",16,37,2,1,54,3,1,1,3,0.791445101230773,0.705343360822699
"55",16,26,2,2,55,1,1,0,3,0.776119863406876,0.783432547201985
"56",16,24,2,2,56,1,2,1,4,0.32447685164256,0.374408716959648
"57",16,22,2,1,57,1,1,1,4,0.375092163504112,0.410163048728564
"58",16,40,2,2,58,2,2,1,3,0.692273778526611,0.731219639053608
"59",16,25,2,2,59,3,2,1,3,0.791872302223317,0.822981305240645
"60",16,34,2,1,60,1,1,1,4,0.385070524492737,0.425984573924616
"61",16,23,2,2,61,2,2,1,3,0.598006613813432,0.597437894842127
"62",16,31,2,1,62,3,1,1,2,0.871475797232685,0.819806374476199
"63",16,34,2,2,63,3,1,0,2,1.1749021841987,1.1419880929452
"64",16,37,2,1,64,2,1,1,3,0.699190993070674,0.683494367250617
"65",16,26,2,1,65,1,1,1,5,0.432343255672905,0.420532341707221
"66",16,24,2,1,66,3,1,1,2,0.764305098933713,0.855532051146615
"67",16,22,2,2,67,2,1,0,2,0.905049864359047,0.913267803409465
"68",16,40,2,1,68,3,1,1,2,0.766207150484264,0.746274100839746
"69",16,25,2,1,69,2,1,1,4,0.611774643543071,0.565644334811961
"70",16,34,2,2,70,2,1,0,2,0.8529697104136,0.908411238606175
"71",16,23,2,2,71,2,2,1,4,0.678615842369157,0.724664852766667
"72",16,31,2,2,72,3,2,1,3,1.34145926860453,1.32505457803808
"73",16,34,2,1,73,2,2,0,2,0.754081756564491,0.746382725237002
"74",16,37,2,2,74,3,2,1,2,0.728139954610851,0.664773527807958
"75",16,26,2,2,75,1,2,1,5,0.370600938272102,0.313091518279144
"76",16,24,2,1,76,2,2,0,2,0.484531299103236,0.448622815070155
"77",16,22,2,1,77,1,1,1,5,0.429851647389031,0.444708617480328
"78",16,40,2,1,78,2,2,0,2,0.809142069030247,0.885741604746355
"79",16,25,2,2,79,1,2,1,4,0.483958563301356,0.527413613243549
"80",16,34,2,2,80,3,1,0,2,0.740276778415283,0.738477880547362
"81",16,23,2,2,81,1,2,1,5,0.430998870585116,0.463229053587992
"82",16,31,2,2,82,1,2,1,4,0.484403469173573,0.506936963040835
"83",16,34,2,1,83,2,2,0,3,0.544511097713625,0.50308666243227
"84",16,37,2,2,84,2,2,1,4,0.758262062642267,0.732188896185467
"85",16,26,2,1,85,1,1,1,4,0.404528017327112,0.400228557536145
"86",16,24,2,1,86,3,1,1,2,0.758767941965602,0.777456935756211
"87",16,22,2,1,87,1,2,0,4,0.727815023367514,0.770699201691189
"88",16,40,2,1,88,3,1,1,2,0.914812672664397,0.886616581516938
"89",16,25,2,1,89,1,1,1,4,0.468292684188046,0.524417734283958
"90",16,34,2,2,90,1,2,1,4,0.444716649816192,0.521965118912275
"91",16,23,2,1,91,1,1,1,4,0.459483595079655,0.506047728123058
"92",16,31,2,1,92,2,1,1,4,0.698325308241163,0.609379189299574
"93",16,34,2,2,93,2,1,0,3,0.846855318658979,0.883783067336613
"94",16,37,2,2,94,3,2,1,2,0.918925996290041,0.839717900460147
"95",16,26,2,2,95,3,1,0,2,0.88558498710002,0.844080593838908
"96",16,24,2,1,96,2,1,1,3,0.498645340187118,0.42742698834487
"97",16,22,2,2,97,2,2,1,4,0.60754812999192,0.605446708396467
"98",16,40,2,1,98,3,2,0,1,1.20648514609414,1.24865215541915
"99",16,25,2,1,99,3,1,1,3,1.2260902371177,1.20562482751322
"100",16,34,2,1,100,2,1,1,3,0.457826127349963,0.420720549878046
"101",16,23,2,2,101,2,2,1,4,0.425150300148583,0.421955048645644
"102",16,31,2,2,102,3,2,1,3,0.753500606557177,0.658499223152383
"103",16,34,2,1,103,2,2,0,3,0.702256627856924,0.745605917954456
"104",16,37,2,1,104,1,2,0,4,0.647893993510909,0.608803751346239
"105",16,26,2,1,105,1,2,0,4,0.607482462562781,0.573467162417526
"106",16,24,2,2,106,3,1,0,1,1.267798767757,1.34680939847881
"107",16,22,2,1,107,3,1,1,3,0.717402947415567,0.703619154982604
"108",16,40,2,1,108,1,1,1,4,0.358138427956275,0.398463486295048
"109",16,25,2,2,109,3,1,0,1,0.803078609821418,0.884367657088314
"110",16,34,2,1,110,1,1,1,4,0.360697090847192,0.370427815172573
"111",16,23,2,2,111,2,2,1,3,0.660204717834242,0.663878368114772
"112",16,31,2,2,112,2,2,1,4,0.377574884931798,0.31228536002371
"113",16,34,2,2,113,2,1,0,3,0.616426670319106,0.596666565442457
"114",16,37,2,1,114,1,1,1,5,0.489187054500539,0.498574743643422
"115",16,26,2,1,115,3,2,0,2,0.831349550830137,0.934359024029753
"116",16,24,2,1,116,1,1,1,4,0.453649502894803,0.461481901399971
"117",16,22,2,2,117,3,2,1,3,0.575286654485389,0.565696441559764
"118",16,40,2,1,118,2,1,1,3,0.693379346790313,0.679566800728501
"119",16,25,2,2,119,2,2,1,4,0.637012050182595,0.565359144261441
"120",16,34,2,1,120,2,1,1,3,0.618114517696247,0.591081958537769
"121",16,23,2,2,121,1,2,1,5,0.501809492242868,0.447278877708179
"122",16,31,2,2,122,3,1,0,2,1.00851101522057,1.06780310132108
"123",16,34,2,1,123,2,1,1,4,0.521674091589682,0.608541697102508
"124",16,37,2,1,124,3,2,0,1,1.13430480160144,1.11823767293929
"125",16,26,2,2,125,2,2,1,4,0.489233113927372,0.509525176975459
"126",16,24,2,1,126,2,2,0,2,0.53178585772523,0.444622027413929
"127",16,22,2,1,127,1,1,1,5,0.380057403483739,0.275479589686507
"128",16,40,2,1,128,2,2,0,3,0.518770215323218,0.468113377194598
"129",16,25,2,1,129,1,1,1,5,0.223753268051493,0.248494022693402
"130",16,34,2,2,130,3,1,0,2,0.603567441148656,0.577776958631412
"131",16,23,2,1,131,2,1,1,4,0.46598690982852,0.570959202126874
"132",16,31,2,1,132,3,2,0,2,1.15036327377177,1.16219861828972
"133",16,34,2,1,133,3,1,1,2,1.03925229796704,1.08238919969495
"134",16,37,2,1,134,1,2,0,4,0.594501069129587,0.559693654562928
"135",16,26,2,2,135,3,2,1,2,0.614163642673432,0.641507873577918
"136",16,24,2,2,136,2,2,1,4,0.630954779993955,0.684264068306778
"137",16,22,2,2,137,3,1,0,1,1.70967033845855,1.71819733300398
"138",16,40,2,2,138,1,2,1,5,0.28349278899389,0.139100419130156
"139",16,25,2,2,139,1,1,0,3,0.521877923863943,0.539929929763484
"140",16,34,2,2,140,1,2,1,4,0.42830329595067,0.481504149817609
"141",16,23,2,2,141,2,1,0,3,1.00810419951772,1.06503522427357
"142",16,31,2,2,142,3,1,0,1,1.05683122844833,1.08033860756042
"143",16,34,2,2,143,3,1,0,2,1.03276739565707,1.05508524010393
"144",16,37,2,2,144,1,1,0,3,0.565193207719509,0.627568200964884
"145",16,26,2,2,145,3,2,1,3,0.820103762476838,0.793070512692959
"146",16,24,2,2,146,1,2,1,5,0.389763305771167,0.395599128703477
"147",16,22,2,2,147,1,2,1,4,0.319458851746511,0.346361837857608
"148",16,40,2,2,148,2,2,1,3,0.679612396596027,0.698848944266735
"149",16,25,2,2,149,1,2,1,4,0.503289871613373,0.490785742884065
"150",16,34,2,2,150,3,2,1,2,0.816280009195836,0.83904830637983
"151",16,23,2,1,151,2,1,1,4,0.687792037653346,0.676373111573857
"152",16,31,2,1,152,1,2,0,3,0.539561487640943,0.572614341768963
"153",16,34,2,2,153,2,2,1,4,0.63934279803486,0.58315335529607
"154",16,37,2,1,154,3,1,1,3,0.824751597411209,0.838190444673893
"155",16,26,2,2,155,2,1,0,3,0.719570454178777,0.719458614378814
"156",16,24,2,1,156,2,2,0,3,0.773942878500302,0.758865192855887
"157",16,22,2,1,157,1,1,1,5,0.406920186209536,0.466393996895594
"158",16,40,2,2,158,3,1,0,1,1.90922546389849,1.87977563909891
"159",16,25,2,1,159,1,1,1,5,0.421782769054211,0.371945687761522
"160",16,34,2,2,160,2,1,0,3,1.03889704962425,1.01903160128836
"161",16,23,2,1,161,2,1,1,4,0.479045525953806,0.559356750539131
"162",16,31,2,1,162,3,1,1,3,0.851684865625793,0.758464905263095
"163",16,34,2,1,163,1,2,0,4,0.39754383062063,0.351859807485545
"164",16,37,2,1,164,1,1,1,5,0.350134043977637,0.37005054056885
"165",16,26,2,2,165,3,1,0,2,1.01282702732851,0.989073046182582
"166",16,24,2,1,166,3,1,1,3,0.73386462848792,0.765511055692275
"167",16,22,2,1,167,2,2,0,3,0.684742562523779,0.662927489532407
"168",16,40,2,1,168,2,1,1,4,0.652399727462434,0.645354025812734
"169",16,25,2,2,169,3,1,0,1,1.41836545055196,1.45941031035035
"170",16,34,2,1,170,3,2,0,2,1.07122330704148,0.992159688507503
"171",16,23,2,2,171,2,2,1,3,0.654257282137122,0.640384258383203
"172",16,31,2,1,172,1,1,1,5,0.367394361750469,0.358956734489302
"173",16,34,2,2,173,3,1,0,2,0.951255915188255,0.9380588510334
"174",16,37,2,2,174,1,2,1,4,0.498277849313378,0.411633286754662
"175",16,26,2,2,175,2,2,1,4,0.485106465743329,0.449346514019362
"176",16,24,2,2,176,2,2,1,4,0.670731977504047,0.683916452913648
"177",16,22,2,2,177,3,1,0,2,0.527358724936395,0.520080996760853
"178",16,40,2,2,178,1,2,1,5,0.338526015787775,0.406455286991004
"179",16,25,2,1,179,3,1,1,3,0.582485223095156,0.6222141055318
"180",16,34,2,2,180,1,2,1,5,0.397629073876368,0.354385432704601
"181",16,23,2,2,181,1,2,1,4,0.534402306244723,0.451922615592966
"182",16,31,2,1,182,1,2,0,4,0.485009985491732,0.441507969257265
"183",16,34,2,1,183,1,1,1,4,0.395063328948029,0.446679168766984
"184",16,37,2,1,184,2,1,1,4,0.782719192923513,0.776198875182972
"185",16,26,2,1,185,1,1,1,4,0.255947585285277,0.260391811961516
"186",16,24,2,1,186,2,2,0,2,0.763827905852926,0.698209587335705
"187",16,22,2,1,187,2,2,0,3,0.96177766456694,0.994402238220909
"188",16,40,2,2,188,1,1,0,4,0.63206287123504,0.539817231754676
"189",16,25,2,1,189,1,1,1,4,0.395122362848691,0.37493430512591
"190",16,34,2,1,190,1,1,1,5,0.482810719150406,0.548554889722389
"191",16,23,2,1,191,2,2,0,3,0.444294849708819,0.336593518198555
"192",16,31,2,2,192,1,2,1,4,0.591211295481819,0.64721804740502
"193",16,34,2,2,193,2,1,0,3,0.655346252992032,0.698104624436243
"194",16,37,2,1,194,3,2,0,1,0.849995209231931,0.868780516516034
"195",16,26,2,2,195,3,2,1,3,0.710231308720537,0.793122236793556
"196",16,24,2,2,196,3,1,0,1,0.955105158212377,0.877970025397345
"197",16,22,2,1,197,3,2,0,2,0.806098653475367,0.766536125100327
"198",16,40,2,1,198,2,2,0,2,0.764747180774752,0.749699176867389
"199",16,25,2,1,199,2,2,0,2,0.620514241198722,0.662786121474812
"200",16,34,2,2,200,2,1,0,2,0.660941970191526,0.654193427176276
"201",16,23,2,2,201,2,2,1,3,0.516555215941867,0.515849982420287
"202",16,31,2,2,202,3,1,0,2,0.868162245309484,0.832600339427623
"203",16,34,2,1,203,2,1,1,3,0.807316283596983,0.786249626609089
"204",16,37,2,2,204,2,1,0,3,0.822508650618521,0.864056156887058
"205",16,26,2,2,205,3,1,0,2,1.25085204269776,1.23480994107913
"206",16,24,2,2,206,2,1,0,2,0.638773539851572,0.621728216873489
"207",16,22,2,1,207,1,1,1,4,0.463544102119545,0.437718233036981
"208",16,40,2,1,208,1,1,1,5,0.298837693664294,0.368886461688457
"209",16,25,2,1,209,3,1,1,3,1.0265190846744,1.07472473662713
"210",16,34,2,1,210,1,1,1,4,0.383466455099768,0.328319183962725
"211",16,23,2,2,211,1,2,1,4,0.600979707318716,0.644419666358982
"212",16,31,2,1,212,3,2,0,2,0.553787515084616,0.497465641746261
"213",16,34,2,2,213,3,2,1,3,0.968379711540569,0.970777831838731
"214",16,37,2,1,214,1,2,0,4,0.557241907459931,0.63048006053089
"215",16,26,2,1,215,2,1,1,3,0.670346571849597,0.589220878391475
"216",16,24,2,1,216,3,1,1,2,0.642701970791989,0.727102220906216
"217",16,22,2,1,217,2,1,1,3,0.757682044906611,0.805026389006096
"218",16,40,2,2,218,1,2,1,5,0.389684130317722,0.35393207783914
"219",16,25,2,1,219,2,1,1,4,0.639703174778673,0.611810640984404
"220",16,34,2,2,220,2,2,1,4,0.72047224517856,0.691215193236085
"221",16,23,2,1,221,1,1,1,5,0.397902381518028,0.449653790055929
"222",16,31,2,1,222,1,1,1,5,0.356140849426501,0.342967018141355
"223",16,34,2,2,223,2,2,1,3,0.582172107723675,0.5507122361156
"224",16,37,2,1,224,3,1,1,3,0.535591833697537,0.563850149879569
"225",16,26,2,2,225,3,2,1,2,0.62459113319908,0.642043454258657
"226",16,24,2,2,226,3,1,0,2,1.71813967399327,1.64117277654529
"227",16,22,2,1,227,3,2,0,2,1.50642119272891,1.51131305278432
"228",16,40,2,1,228,3,1,1,2,0.647651052047744,0.659895630700563
"229",16,25,2,2,229,2,2,1,3,0.657641068760213,0.665660762647678
"230",16,34,2,2,230,2,2,1,4,0.632771455101681,0.595775961907752
"231",16,23,2,2,231,3,1,0,2,1.38358117370608,1.36513858028809
"232",16,31,2,1,232,1,1,1,5,0.453478436527745,0.561041542701106
"233",16,34,2,2,233,1,2,1,4,0.518797659600891,0.584701438384642
"234",16,37,2,2,234,3,1,0,2,1.01326409911117,0.957218130305576
"235",16,26,2,1,235,3,2,0,2,1.1937407182356,1.24162571422276
"236",16,24,2,1,236,3,2,0,1,1.05670337795575,1.05649230570812
"237",16,22,2,2,237,1,1,0,3,0.419866336722125,0.397704693616136
"238",16,40,2,1,238,1,1,1,5,0.471930544199626,0.456128538788396
"239",16,25,2,2,239,2,1,0,3,0.72342529860203,0.733404183083267
"240",16,34,2,1,240,2,1,1,4,0.641900958000729,0.6364349778015
"241",15,34,1,2,1,2,1,0,2,0.624847029734484,0.59268992863748
"242",15,31,1,1,2,2,1,1,3,0.384542970092436,0.308839469829842
"243",15,25,1,1,3,3,2,0,2,0.955308240036842,0.962654047455321
"244",15,28,1,2,4,1,2,1,4,0.38470014061519,0.413581937269268
"245",15,39,1,2,5,2,1,0,3,0.906828043752625,0.805953979614155
"246",15,32,1,2,6,1,2,1,4,0.461397586712439,0.447971682353053
"247",15,25,1,1,7,1,1,1,4,0.511813233016276,0.576838327506783
"248",15,26,1,1,8,3,2,0,1,0.891683678065202,0.84947195984577
"249",15,18,1,2,9,2,2,1,3,0.556983253130506,0.473117531907904
"250",15,23,1,2,10,2,2,1,4,0.693697714634829,0.697933977432065
"251",15,34,1,1,11,2,1,1,4,0.909239105959382,0.894993306144298
"252",15,31,1,2,12,1,1,0,4,0.571461676897537,0.658381661383728
"253",15,25,1,2,13,1,1,0,4,0.533568835206532,0.508108269690842
"254",15,28,1,2,14,3,1,0,1,1.2299390087579,1.18282159601063
"255",15,39,1,2,15,3,1,0,2,0.615154320095988,0.678193975733758
"256",15,32,1,2,16,1,2,1,4,0.462189173178206,0.422824798920551
"257",15,25,1,1,17,2,2,0,3,0.458915873318793,0.48824226709843
"258",15,26,1,1,18,3,1,1,3,0.451987179496541,0.448690683565762
"259",15,18,1,2,19,1,2,1,5,0.324009921753908,0.34120616650123
"260",15,23,1,2,20,2,1,0,2,0.495868020571645,0.598783097372363
"261",15,34,1,1,21,1,2,0,3,0.534499151287718,0.552148340312707
"262",15,31,1,1,22,1,1,1,5,0.422235025815462,0.486034017374946
"263",15,25,1,2,23,3,1,0,1,0.728756101885601,0.720279096987106
"264",15,28,1,1,24,1,1,1,4,0.502132194248776,0.529860678635943
"265",15,39,1,1,25,3,2,0,2,0.818397513441663,0.865829543929378
"266",15,32,1,2,26,2,2,1,4,0.575986371863941,0.538913094720348
"267",15,25,1,2,27,1,2,1,4,0.311063043877377,0.358329595672093
"268",15,26,1,1,28,3,1,1,3,0.740186949836283,0.792220150569771
"269",15,18,1,2,29,2,2,1,4,0.801940986196282,0.83758097777099
"270",15,23,1,1,30,1,1,1,5,0.485265629222263,0.598248399489761
"271",15,34,1,1,31,1,1,1,4,0.264497551138744,0.315318421821948
"272",15,31,1,1,32,1,1,1,4,0.292226516896807,0.309289353790558
"273",15,25,1,1,33,2,2,0,3,0.599681360713334,0.635355032158446
"274",15,28,1,1,34,3,1,1,2,0.457902145962814,0.387955486622995
"275",15,39,1,2,35,2,2,1,4,0.431532398052566,0.466760465986695
"276",15,32,1,2,36,2,1,0,3,0.76251789828514,0.73217931288685
"277",15,25,1,2,37,3,1,0,2,1.35213699720827,1.38013204457976
"278",15,26,1,2,38,1,2,1,4,0.52018260679378,0.469292228871417
"279",15,18,1,1,39,2,1,1,4,0.56608036803077,0.538502991164621
"280",15,23,1,1,40,2,2,0,3,0.527006787781084,0.531116851324621
"281",15,34,1,1,41,2,2,0,2,1.0070994508407,0.997464529509816
"282",15,31,1,1,42,1,1,1,4,0.386510695312257,0.394469632214098
"283",15,25,1,1,43,2,1,1,3,0.5887120713502,0.583509235761597
"284",15,28,1,1,44,1,1,1,4,0.495035043578132,0.445423559488067
"285",15,39,1,1,45,3,2,0,1,1.39905911295366,1.33243933588077
"286",15,32,1,1,46,1,2,0,4,0.611308993764046,0.614629818917236
"287",15,25,1,2,47,3,1,0,2,0.703773699603792,0.659033274298695
"288",15,26,1,2,48,1,2,1,4,0.362604630423952,0.338667245493198
"289",15,18,1,2,49,2,2,1,4,0.599729129073286,0.564245401335048
"290",15,23,1,1,50,1,1,1,5,0.416691792938286,0.363591814490329
"291",15,34,1,2,51,2,1,0,3,0.569422729602822,0.55045243063136
"292",15,31,1,1,52,3,1,1,2,0.221256793897079,0.150049204467628
"293",15,25,1,2,53,3,1,0,1,1.36985670849528,1.35357997597014
"294",15,28,1,1,54,2,1,1,4,0.771034767923941,0.710794070480783
"295",15,39,1,2,55,2,2,1,3,0.703923221844001,0.738005812518765
"296",15,32,1,2,56,1,2,1,5,0.370297309048556,0.273089604192449
"297",15,25,1,2,57,2,2,1,4,0.517940567557657,0.534538147340621
"298",15,26,1,2,58,3,1,0,1,1.09214959225691,1.11743175829516
"299",15,18,1,2,59,1,2,1,4,0.481172468149433,0.485209549933531
"300",15,23,1,2,60,1,2,1,4,0.287815224206739,0.336596013322463
"301",15,34,1,1,61,3,2,0,2,1.24014177743338,1.23453086258103
"302",15,31,1,2,62,2,1,0,2,0.676725094977058,0.609065843272625
"303",15,25,1,1,63,3,1,1,2,0.961887139273886,0.986916638148552
"304",15,28,1,1,64,3,2,0,2,0.800115635620089,0.780470413758878
"305",15,39,1,1,65,1,1,1,4,0.292000500995376,0.271339641946361
"306",15,32,1,1,66,2,1,1,4,0.663555788802665,0.621003714666164
"307",15,25,1,1,67,2,1,1,3,0.583335241739718,0.603847326140076
"308",15,26,1,1,68,1,1,1,5,0.522437723106748,0.606324721017353
"309",15,18,1,1,69,3,1,1,2,1.00180149642248,0.982562252371067
"310",15,23,1,2,70,3,2,1,2,0.808522158363261,0.784722661559129
"311",15,34,1,1,71,2,2,0,3,1.00640551216103,0.996102303450829
"312",15,31,1,2,72,1,2,1,5,0.430991986227688,0.382165629919167
"313",15,25,1,1,73,3,2,0,2,0.777707076667128,0.88532983450817
"314",15,28,1,2,74,1,2,1,5,0.475169892170199,0.427362050581189
"315",15,39,1,1,75,1,2,0,4,0.610623690486665,0.572079734134028
"316",15,32,1,2,76,3,1,0,1,0.645695322929919,0.655237555940321
"317",15,25,1,1,77,3,2,0,2,0.873061010985808,0.871471426038728
"318",15,26,1,1,78,3,2,0,1,1.36415585915688,1.34822249230342
"319",15,18,1,2,79,1,2,1,4,0.446209052508267,0.450884780013513
"320",15,23,1,2,80,3,1,0,2,1.1827847503098,1.20127420846063
"321",15,34,1,2,81,1,2,1,5,0.418180299080938,0.42064891973676
"322",15,31,1,2,82,1,2,1,5,0.328495069005,0.307774898347724
"323",15,25,1,2,83,3,1,0,2,0.939584630966516,1.02941537864682
"324",15,28,1,2,84,2,1,0,3,0.567266320961787,0.621489886827046
"325",15,39,1,2,85,3,2,1,2,0.637450709004525,0.55777016205213
"326",15,32,1,1,86,1,2,0,4,0.517756409258417,0.561649368307827
"327",15,25,1,2,87,2,2,1,3,0.469842735438137,0.445473719031137
"328",15,26,1,1,88,2,1,1,4,0.60527770471513,0.585583598076468
"329",15,18,1,1,89,1,1,1,4,0.514931310930766,0.568973936443194
"330",15,23,1,2,90,1,2,1,5,0.483307259259796,0.475255008763192
"331",15,34,1,2,91,1,2,1,5,0.372358769766662,0.354972439194338
"332",15,31,1,2,92,3,1,0,2,1.19022021322689,1.26540933514485
"333",15,25,1,1,93,1,1,1,5,0.38225712128152,0.308874853315201
"334",15,28,1,2,94,1,1,0,4,0.494792308720234,0.468882540304469
"335",15,39,1,2,95,1,2,1,4,0.404719020094195,0.327227154335247
"336",15,32,1,2,96,2,2,1,3,0.679390650152235,0.686146848908079
"337",15,25,1,2,97,3,1,0,2,1.09190766265634,1.16536527824908
"338",15,26,1,1,98,2,2,0,3,0.838863947037633,0.852819696381014
"339",15,18,1,1,99,3,2,0,1,0.824419012372341,0.868090146123092
"340",15,23,1,2,100,3,1,0,1,0.601763047714695,0.675732207347225
"341",15,34,1,2,101,3,2,1,3,0.727655867387032,0.715789100017251
"342",15,31,1,1,102,2,2,0,2,0.471302471667245,0.560203329538022
"343",15,25,1,2,103,2,1,0,2,0.62171365182376,0.541497263439311
"344",15,28,1,1,104,2,1,1,4,0.400126913608917,0.362990605221329
"345",15,39,1,1,105,3,1,1,2,0.711165179380797,0.725982953392196
"346",15,32,1,2,106,2,1,0,2,0.612491012664505,0.510753628024024
"347",15,25,1,2,107,1,1,0,4,0.398385442846964,0.291541739983267
"348",15,26,1,2,108,3,1,0,2,0.959968323556133,0.929416081245371
"349",15,18,1,1,109,1,1,1,5,0.410737445747423,0.405066367591438
"350",15,23,1,2,110,2,2,1,4,0.682439282015223,0.676434530399023
"351",15,34,1,2,111,2,2,1,4,0.53550479967097,0.485230287702929
"352",15,31,1,2,112,2,1,0,3,0.739398639976458,0.779476732003556
"353",15,25,1,1,113,3,2,0,2,0.762119091279564,0.801255337011064
"354",15,28,1,2,114,2,2,1,4,0.750750392438859,0.721141347538204
"355",15,39,1,2,115,2,2,1,3,0.428463699873626,0.398734078973488
"356",15,32,1,2,116,2,1,0,3,0.749184481261282,0.758896037171587
"357",15,25,1,1,117,3,1,1,3,1.01218747865251,0.971430899400886
"358",15,26,1,1,118,3,1,1,3,0.695604377656813,0.636437424746742
"359",15,18,1,1,119,2,2,0,2,0.642730323785251,0.727557131536308
"360",15,23,1,1,120,2,1,1,4,0.603696125686537,0.5285253572025
"361",15,34,1,1,121,2,2,0,3,0.70915321015336,0.75264887913958
"362",15,31,1,2,122,3,2,1,2,0.732801798092675,0.709622560191482
"363",15,25,1,1,123,1,2,0,3,0.577308681288848,0.564482631100458
"364",15,28,1,1,124,3,1,1,2,0.45123920016742,0.39420969342125
"365",15,39,1,2,125,3,1,0,2,1.18270167562796,1.23773143766586
"366",15,32,1,2,126,1,1,0,4,0.612609577011457,0.567750738116192
"367",15,25,1,1,127,1,1,1,5,0.237541150699226,0.275199834552455
"368",15,26,1,2,128,1,2,1,4,0.486186320805699,0.477965179520271
"369",15,18,1,2,129,1,2,1,5,0.393396989221176,0.294896567738994
"370",15,23,1,2,130,1,2,1,5,0.567243646021475,0.591945075061782
"371",15,34,1,1,131,1,1,1,5,0.416523856303808,0.412436338439029
"372",15,31,1,1,132,2,1,1,3,0.680146595956468,0.678195321553952
"373",15,25,1,1,133,3,2,0,1,1.21088043201095,1.29963908929746
"374",15,28,1,1,134,3,2,0,1,1.06529209478809,1.13640298982077
"375",15,39,1,1,135,1,2,0,4,0.618394184940402,0.627756488855055
"376",15,32,1,2,136,3,2,1,2,0.850849318384496,0.924948988262539
"377",15,25,1,1,137,3,2,0,1,1.74476341865153,1.78361463748618
"378",15,26,1,2,138,2,2,1,3,0.600586514966811,0.641429631338847
"379",15,18,1,2,139,3,1,0,1,0.719685507037841,0.675521534262699
"380",15,23,1,1,140,2,1,1,4,0.517833060578142,0.549696107498277
"381",15,34,1,1,141,3,1,1,2,0.647489770737824,0.599232940636918
"382",15,31,1,1,142,2,1,1,4,0.639264524130478,0.580750017538746
"383",15,25,1,1,143,2,2,0,3,0.364001762279118,0.350990616105789
"384",15,28,1,1,144,1,1,1,5,0.432382272129571,0.400016906243876
"385",15,39,1,1,145,3,2,0,2,0.473282875251274,0.437015425630115
"386",15,32,1,1,146,3,2,0,1,0.574163278246409,0.556440284683364
"387",15,25,1,1,147,1,1,1,4,0.40145471612578,0.410050067438813
"388",15,26,1,1,148,1,1,1,4,0.414301815748737,0.366431120524756
"389",15,18,1,2,149,3,1,0,2,1.01462435790149,0.996715513219776
"390",15,23,1,2,150,3,1,0,1,1.11753678402594,1.04274702027794
"391",15,34,1,1,151,2,1,1,4,0.67608036617307,0.716576394101619
"392",15,31,1,1,152,1,1,1,5,0.420837361237565,0.370611528382061
"393",15,25,1,1,153,1,1,1,5,0.448247016199953,0.44923445588714
"394",15,28,1,1,154,1,2,0,4,0.677644882496547,0.741867090441836
"395",15,39,1,2,155,1,2,1,4,0.308615664766805,0.377874504537823
"396",15,32,1,2,156,2,1,0,2,0.682742821673286,0.766244376166392
"397",15,25,1,1,157,3,2,0,2,1.54217239633135,1.49654847337422
"398",15,26,1,1,158,1,1,1,4,0.446448105150032,0.481827761131414
"399",15,18,1,2,159,3,2,1,2,0.92637682390828,0.926000677179089
"400",15,23,1,2,160,1,1,0,3,0.57481784552329,0.609940877186553
"401",15,34,1,2,161,2,1,0,2,0.719965507601044,0.704307667681081
"402",15,31,1,2,162,1,2,1,5,0.425767037418206,0.48938687838632
"403",15,25,1,1,163,2,1,1,4,0.691668933016796,0.659717603886908
"404",15,28,1,2,164,2,1,0,3,0.63389690721956,0.550632545213393
"405",15,39,1,1,165,1,2,0,3,0.588429479466745,0.647084588837714
"406",15,32,1,2,166,1,2,1,5,0.405600554746318,0.475189437692519
"407",15,25,1,1,167,3,2,0,1,1.16279564052266,1.18377404269785
"408",15,26,1,2,168,1,2,1,5,0.488525566342378,0.488179056944899
"409",15,18,1,2,169,3,2,1,3,0.722682727684455,0.722823982158007
"410",15,23,1,2,170,2,2,1,3,0.598843820121551,0.537666271152873
"411",15,34,1,2,171,3,2,1,2,0.931927643830176,0.89528931175485
"412",15,31,1,1,172,2,1,1,3,0.64039011326335,0.629550459699676
"413",15,25,1,2,173,2,2,1,4,0.478652863259659,0.497787881481421
"414",15,28,1,1,174,3,2,0,1,1.44182539474825,1.56485887959912
"415",15,39,1,2,175,3,2,1,2,0.505677345220421,0.499161455355191
"416",15,32,1,1,176,2,1,1,4,0.508473964763236,0.48777025650341
"417",15,25,1,2,177,3,2,1,2,0.831334434440672,0.768542120408968
"418",15,26,1,1,178,3,1,1,3,0.689661527161898,0.642886858826069
"419",15,18,1,2,179,3,1,0,2,1.06635616666492,1.06170170799637
"420",15,23,1,1,180,3,1,1,2,0.72961680398648,0.777015568461888
"421",15,34,1,1,181,2,1,1,3,0.295285224567901,0.280405176418218
"422",15,31,1,1,182,2,2,0,2,0.833321089546502,0.827753838758924
"423",15,25,1,1,183,3,1,1,3,0.669158217952384,0.60903796355709
"424",15,28,1,2,184,2,2,1,3,0.544631395258853,0.653429413250776
"425",15,39,1,1,185,3,1,1,2,0.552017213235914,0.512689480952038
"426",15,32,1,1,186,2,1,1,4,0.482217699041378,0.469236334311437
"427",15,25,1,1,187,2,1,1,3,0.761005056100936,0.76199627695129
"428",15,26,1,2,188,3,2,1,2,0.809217253539028,0.882396516523189
"429",15,18,1,1,189,3,2,0,2,1.08382580989202,1.03170815579217
"430",15,23,1,2,190,1,2,1,4,0.340490253421221,0.317374833279375
"431",15,34,1,2,191,3,2,1,2,0.856633435935637,0.864544817728942
"432",15,31,1,1,192,1,1,1,4,0.311929455578994,0.379184919463352
"433",15,25,1,2,193,1,1,0,4,0.538629372126974,0.616395100412436
"434",15,28,1,1,194,1,2,0,4,0.545242546262126,0.52147192231559
"435",15,39,1,2,195,1,1,0,4,0.599875277973464,0.523673934934355
"436",15,32,1,2,196,2,1,0,2,0.520867623084909,0.494423399013978
"437",15,25,1,1,197,2,2,0,3,0.568003872211231,0.597232382149992
"438",15,26,1,2,198,2,2,1,3,0.759183523909645,0.766970266590013
"439",15,18,1,1,199,2,2,0,3,0.839200051034304,0.74787360275787
"440",15,23,1,2,200,3,2,1,3,0.669234053517767,0.679496938484343
"441",15,34,1,1,201,1,1,1,4,0.218426333548115,0.235755691897313
"442",15,31,1,2,202,1,2,1,5,0.448864487436469,0.448992830647801
"443",15,25,1,2,203,2,2,1,4,0.538738983522091,0.596872092303486
"444",15,28,1,2,204,1,2,1,4,0.382944036914085,0.337235674238897
"445",15,39,1,1,205,2,2,0,3,0.512824779232641,0.531384361944906
"446",15,32,1,1,206,3,1,1,2,0.719492212039827,0.68636774190847
"447",15,25,1,1,207,3,2,0,2,1.13620598596193,1.12419981903823
"448",15,26,1,2,208,3,1,0,2,0.849150295740364,0.840643290684292
"449",15,18,1,2,209,1,2,1,4,0.366705916832122,0.395723252104474
"450",15,23,1,2,210,2,1,0,2,0.203883314247602,0.234175486098214
"451",15,34,1,1,211,2,2,0,2,0.953561716041103,0.857042495323791
"452",15,31,1,2,212,3,1,0,2,1.27430323716611,1.23641963649004
"453",15,25,1,2,213,3,2,1,3,0.995192685401546,0.947224518944684
"454",15,28,1,2,214,2,1,0,2,0.894582883531078,0.953638133027314
"455",15,39,1,1,215,1,1,1,4,0.491384285351402,0.516667136005394
"456",15,32,1,1,216,1,1,1,5,0.411561454105526,0.370579820560405
"457",15,25,1,2,217,2,2,1,3,0.284974290216688,0.307663157147279
"458",15,26,1,1,218,2,1,1,4,0.663783250398531,0.691470582918685
"459",15,18,1,2,219,2,2,1,3,0.254612956392688,0.224373796514014
"460",15,23,1,2,220,2,1,0,3,0.92985469493718,1.01469172651785
"461",15,34,1,2,221,1,1,0,3,0.483109619906382,0.425947467346624
"462",15,31,1,1,222,1,1,1,5,0.399034299624653,0.337184472942341
"463",15,25,1,1,223,2,2,0,2,0.851772085388866,0.882741639922577
"464",15,28,1,1,224,3,1,1,3,0.730952706771038,0.753840110648543
"465",15,39,1,1,225,3,2,0,1,0.574749484929041,0.511240528292099
"466",15,32,1,2,226,3,1,0,2,1.66121270159057,1.56656738493915
"467",15,25,1,2,227,3,2,1,2,0.755848755773997,0.813146506246636
"468",15,26,1,2,228,1,1,0,4,0.506158719438557,0.467866481851362
"469",15,18,1,1,229,1,1,1,5,0.468911339257934,0.478460780469023
"470",15,23,1,1,230,1,1,1,5,0.473098797134378,0.474735172799053
"471",15,34,1,1,231,1,1,1,4,0.417786410531361,0.410479899584516
"472",15,31,1,2,232,1,2,1,5,0.490414878759692,0.549297321766329
"473",15,25,1,2,233,3,1,0,2,0.838011945825075,0.827577671700924
"474",15,28,1,1,234,2,1,1,4,0.734166138536067,0.791629654246074
"475",15,39,1,2,235,2,2,1,4,0.661984243860816,0.625553439406913
"476",15,32,1,1,236,2,1,1,3,0.605818320100489,0.538799912139724
"477",15,25,1,1,237,3,2,0,2,1.04428195353378,1.17977970336747
"478",15,26,1,2,238,3,2,1,3,0.865094206023618,0.874147845892859
"479",15,18,1,1,239,3,2,0,1,1.11713858787646,1.12689280899675
"480",15,23,1,1,240,1,1,1,5,0.474932746522666,0.413105854708627
"481",14,34,2,2,1,2,1,0,3,0.676222163649528,0.686250377958745
"482",14,22,2,2,2,3,1,0,2,1.46449202452015,1.50127345178408
"483",14,20,2,1,3,1,2,0,4,0.737773064454582,0.710828100529507
"484",14,28,2,2,4,2,1,0,2,0.505792833158553,0.546273691754599
"485",14,33,2,1,5,1,1,1,4,0.533902326959933,0.581326689078307
"486",14,36,2,2,6,3,2,1,2,0.4261041070099,0.436613049882128
"487",14,19,2,1,7,1,2,0,3,0.451132965796705,0.479910537694296
"488",14,35,2,1,8,1,1,1,4,0.321478022817468,0.376964089898471
"489",14,23,2,1,9,2,1,1,3,0.632058043625546,0.707879958135527
"490",14,24,2,2,10,2,2,1,3,0.39056347433689,0.336118812519525
"491",14,34,2,2,11,2,2,1,3,0.670703413754894,0.71015591309994
"492",14,22,2,2,12,3,1,0,1,0.55717089585579,0.596054362538989
"493",14,20,2,1,13,2,1,1,4,0.636547540971471,0.68197122126585
"494",14,28,2,1,14,3,1,1,3,1.04114288834397,1.07257614829396
"495",14,33,2,2,15,3,2,1,3,0.817783931988472,0.764720705951985
"496",14,36,2,1,16,2,1,1,3,0.329975233821,0.418932476593285
"497",14,19,2,1,17,2,2,0,3,0.739409517664663,0.850211612427391
"498",14,35,2,1,18,3,1,1,2,0.901358188781832,0.844063541432991
"499",14,23,2,2,19,3,1,0,2,1.14294926670525,1.12464425007988
"500",14,24,2,1,20,1,1,1,4,0.473371784058291,0.443718972586786
"501",14,34,2,1,21,3,2,0,2,1.22870367877102,1.35139452491729
"502",14,22,2,2,22,1,2,1,5,0.375958729245602,0.38589605470905
"503",14,20,2,1,23,3,1,1,3,0.597993194397545,0.569604530067753
"504",14,28,2,2,24,2,2,1,3,0.504198535686437,0.55104614870509
"505",14,33,2,1,25,2,1,1,3,0.506872612187973,0.502458631455422
"506",14,36,2,1,26,1,1,1,4,0.458025001991163,0.532961786022852
"507",14,19,2,2,27,2,2,1,4,0.65692015921395,0.70746156178015
"508",14,35,2,2,28,2,1,0,2,0.591397316324095,0.582942202615116
"509",14,23,2,2,29,3,2,1,2,0.49566369251466,0.428695081696787
"510",14,24,2,1,30,2,1,1,4,0.455372647421335,0.382292268197529
"511",14,34,2,2,31,1,2,1,4,0.490531199310817,0.510397844201176
"512",14,22,2,2,32,3,1,0,2,1.38728270286845,1.39845943259486
"513",14,20,2,1,33,1,1,1,4,0.438904724182585,0.344050601468808
"514",14,28,2,1,34,3,2,0,2,1.70632408328342,1.72415176158417
"515",14,33,2,1,35,1,1,1,4,0.381582318919569,0.396947970377505
"516",14,36,2,1,36,2,1,1,3,0.719379743711912,0.731801268512527
"517",14,19,2,2,37,3,2,1,3,0.552974701476457,0.521961087313458
"518",14,35,2,1,38,1,2,0,4,0.544046226372774,0.529067897908975
"519",14,23,2,1,39,1,1,1,5,0.423151292584198,0.330737456965045
"520",14,24,2,1,40,3,2,0,2,1.10394050776692,1.12938668155659
"521",14,34,2,2,41,2,2,1,4,0.657031605950255,0.73095682660674
"522",14,22,2,1,42,2,2,0,2,0.946381177045281,1.03386380083248
"523",14,20,2,1,43,2,1,1,3,0.662117327195727,0.740976596620356
"524",14,28,2,2,44,1,2,1,5,0.448931740017589,0.510304771369136
"525",14,33,2,2,45,1,2,1,4,0.525590317721064,0.552454771721481
"526",14,36,2,2,46,2,2,1,3,0.677976519141809,0.735579540503566
"527",14,19,2,1,47,1,1,1,4,0.351003927150739,0.343716055167088
"528",14,35,2,2,48,1,2,1,4,0.597591145998426,0.610706419923295
"529",14,23,2,1,49,2,1,1,3,0.626175480935865,0.54269505541044
"530",14,24,2,1,50,2,2,0,2,0.711379994311308,0.720944867304046
"531",14,34,2,2,51,1,2,1,4,0.299028628939635,0.238354363510819
"532",14,22,2,1,52,3,2,0,1,0.176879253978467,0.1170415379984
"533",14,20,2,1,53,1,2,0,4,0.594022418343982,0.580154355387668
"534",14,28,2,2,54,1,2,1,4,0.400890100058016,0.427887896233562
"535",14,33,2,1,55,3,1,1,3,0.495162721236378,0.559369211928386
"536",14,36,2,1,56,2,1,1,4,0.818727658754082,0.831957527046806
"537",14,19,2,2,57,3,1,0,2,0.926451151187085,0.966102174220494
"538",14,35,2,1,58,1,2,0,4,0.641854481378336,0.613030448499839
"539",14,23,2,2,59,2,1,0,3,0.688970289114347,0.732763343177521
"540",14,24,2,1,60,1,1,1,4,0.270447767095294,0.335570546387064
"541",14,34,2,1,61,2,1,1,3,0.589569678327073,0.58940365517202
"542",14,22,2,1,62,3,2,0,2,1.33898315443665,1.35089393773733
"543",14,20,2,2,63,3,2,1,3,0.579181593088335,0.620010216514059
"544",14,28,2,1,64,3,2,0,1,0.855081652915177,0.837543025795552
"545",14,33,2,1,65,3,1,1,2,0.842608554260023,0.852703685207638
"546",14,36,2,1,66,1,1,1,5,0.55436034363033,0.556121859254408
"547",14,19,2,1,67,2,2,0,3,0.862174421815203,0.843993701635138
"548",14,35,2,2,68,2,2,1,3,0.745501610962876,0.729356098400575
"549",14,23,2,2,69,3,2,1,3,0.588599098607499,0.532977048983027
"550",14,24,2,1,70,3,2,0,2,0.831282667205712,0.839060934587554
"551",14,34,2,1,71,2,2,0,2,0.713829041428248,0.726054296318414
"552",14,22,2,1,72,1,1,1,4,0.408626544200098,0.370542293763611
"553",14,20,2,1,73,3,2,0,2,1.17299067413106,1.24958528900986
"554",14,28,2,1,74,3,1,1,2,0.709817912609012,0.768416990959134
"555",14,33,2,1,75,3,2,0,1,1.20335492787077,1.21268176656754
"556",14,36,2,2,76,1,1,0,3,0.594729536369983,0.594705059608137
"557",14,19,2,2,77,3,1,0,2,0.908571945915207,0.876815314735353
"558",14,35,2,1,78,2,2,0,3,0.598852728009542,0.634616572416607
"559",14,23,2,2,79,3,1,0,1,0.418336651844952,0.390798580649734
"560",14,24,2,2,80,2,2,1,3,0.504362801892975,0.550091860774109
"561",14,34,2,2,81,2,1,0,2,0.900844668811645,0.964881194896025
"562",14,22,2,2,82,1,2,1,4,0.325500445934638,0.191254638976915
"563",14,20,2,2,83,2,1,0,2,0.91252520693158,0.959940092381836
"564",14,28,2,2,84,3,2,1,2,0.548475154314445,0.514561013138827
"565",14,33,2,2,85,2,1,0,3,0.348418559111676,0.384070646544074
"566",14,36,2,1,86,1,2,0,4,0.496972005136886,0.41726165358047
"567",14,19,2,2,87,3,2,1,3,0.743841412907481,0.682786749478407
"568",14,35,2,2,88,1,1,0,3,0.62944744927605,0.608017263453322
"569",14,23,2,1,89,1,1,1,5,0.30789880104851,0.269180720628387
"570",14,24,2,1,90,3,1,1,3,0.697589645643565,0.723170265383557
"571",14,34,2,1,91,2,1,1,4,0.828253656189095,0.80358710240043
"572",14,22,2,1,92,1,1,1,4,0.607463819756203,0.620369026538721
"573",14,20,2,2,93,2,2,1,4,0.503696449714568,0.460786686540211
"574",14,28,2,1,94,2,1,1,3,0.79672278649383,0.696687721391319
"575",14,33,2,2,95,3,2,1,3,0.592100729874133,0.621194136371914
"576",14,36,2,1,96,1,1,1,5,0.42749618833484,0.413781113918473
"577",14,19,2,1,97,3,1,1,2,0.848775440135805,0.871859149065136
"578",14,35,2,1,98,3,1,1,3,0.88532566625895,0.974357475230783
"579",14,23,2,2,99,3,1,0,2,2.71783592361957,2.71363884193952
"580",14,24,2,1,100,1,1,1,4,0.403254470888793,0.424367440037606
"581",14,34,2,1,101,3,1,1,3,0.821338365956689,0.842134173102915
"582",14,22,2,1,102,3,2,0,2,0.122909172861706,0.0741251282059734
"583",14,20,2,1,103,1,1,1,4,0.377451008595994,0.322918408070949
"584",14,28,2,2,104,2,2,1,3,0.718892579289739,0.747585926780694
"585",14,33,2,1,105,2,2,0,2,0.876346630614234,0.932400257640198
"586",14,36,2,2,106,3,1,0,2,1.51096146769537,1.53842901701182
"587",14,19,2,2,107,2,2,1,4,0.673552219620241,0.753080834730269
"588",14,35,2,1,108,2,2,0,2,0.781523605339033,0.91117299550297
"589",14,23,2,2,109,1,2,1,5,0.423880909310764,0.434314320038121
"590",14,24,2,1,110,1,1,1,5,0.34115773411026,0.290078696708785
"591",14,34,2,2,111,1,1,0,3,0.477719423264527,0.534020141338338
"592",14,22,2,2,112,2,2,1,3,0.735165517430192,0.746671729392781
"593",14,20,2,2,113,1,2,1,4,0.323416104353816,0.290731694685594
"594",14,28,2,2,114,2,2,1,4,0.770693174054276,0.792777312685671
"595",14,33,2,2,115,3,1,0,1,1.52730102177717,1.63126337443664
"596",14,36,2,2,116,1,1,0,4,0.500308903307678,0.527671261830305
"597",14,19,2,1,117,1,1,1,4,0.546026849587463,0.446784706939303
"598",14,35,2,2,118,3,1,0,1,0.752131646540653,0.760594411458243
"599",14,23,2,2,119,1,2,1,5,0.36852573400143,0.446624711318348
"600",14,24,2,2,120,2,2,1,4,0.631696465403622,0.622382023416487
"601",14,34,2,2,121,1,1,0,4,0.577996624596016,0.498299798683847
"602",14,22,2,2,122,3,1,0,2,1.14701328687303,1.08209090398793
"603",14,20,2,1,123,1,1,1,4,0.432763499232382,0.490520138919011
"604",14,28,2,1,124,2,2,0,2,0.960088214208586,0.894194608648901
"605",14,33,2,2,125,2,1,0,2,0.840203801791335,0.842541597495963
"606",14,36,2,2,126,3,1,0,1,0.654750305262063,0.59522553175113
"607",14,19,2,1,127,2,2,0,3,0.518150966065722,0.45378721320193
"608",14,35,2,1,128,2,1,1,4,0.706115292364274,0.707562641297915
"609",14,23,2,2,129,2,1,0,2,0.709283332358051,0.709505752474482
"610",14,24,2,2,130,3,1,0,1,0.67472499453779,0.656214570788103
"611",14,34,2,2,131,3,1,0,1,1.0762354281775,1.06709924008072
"612",14,22,2,1,132,3,1,1,3,0.773883049215836,0.816331519869815
"613",14,20,2,1,133,3,2,0,1,0.561088664576455,0.581849680914748
"614",14,28,2,1,134,3,2,0,2,1.30546475732522,1.2553919783834
"615",14,33,2,1,135,3,2,0,1,1.11048405712163,1.03419157452443
"616",14,36,2,2,136,1,2,1,4,0.357168024372574,0.3062077148771
"617",14,19,2,2,137,3,1,0,2,1.2321443895232,1.25555792343072
"618",14,35,2,1,138,3,1,1,2,0.495826989190753,0.471500704557332
"619",14,23,2,2,139,1,2,1,5,0.370645379007929,0.382100826440164
"620",14,24,2,1,140,2,2,0,3,0.837661024336603,0.817625110881255
"621",14,34,2,2,141,1,2,1,4,0.432724707459692,0.385154967070819
"622",14,22,2,1,142,3,1,1,2,0.727835767696433,0.720592406413044
"623",14,20,2,2,143,2,2,1,3,0.799850538451912,0.759677420428814
"624",14,28,2,2,144,2,2,1,3,0.528455131959021,0.531593133229066
"625",14,33,2,1,145,3,2,0,1,1.36266354844078,1.33984852568049
"626",14,36,2,2,146,3,1,0,2,1.70571256044356,1.61528295752373
"627",14,19,2,1,147,3,1,1,3,0.643943749084807,0.50589618595872
"628",14,35,2,1,148,1,2,0,4,0.491168431627434,0.54651065371567
"629",14,23,2,2,149,2,2,1,4,0.586097685587937,0.692348277237484
"630",14,24,2,1,150,1,1,1,4,0.483768106206557,0.478154504958677
"631",14,34,2,1,151,1,1,1,4,0.337035463626895,0.391667673152653
"632",14,22,2,2,152,1,2,1,5,0.428178263762892,0.442490628203908
"633",14,20,2,2,153,1,2,1,4,0.501045463998654,0.529790188274913
"634",14,28,2,1,154,3,1,1,2,0.721982909562761,0.662339105461652
"635",14,33,2,2,155,2,2,1,3,0.710660153756575,0.638089061287308
"636",14,36,2,1,156,1,1,1,5,0.518880444329507,0.617318061655413
"637",14,19,2,2,157,3,2,1,3,0.91020611398064,0.884362509399063
"638",14,35,2,1,158,2,1,1,4,0.542506633480605,0.472225546178177
"639",14,23,2,1,159,2,1,1,4,0.463511886685966,0.393135735664425
"640",14,24,2,2,160,2,2,1,3,0.562521503870662,0.589635767279818
"641",14,34,2,2,161,1,1,0,4,0.640160263727839,0.673195176409504
"642",14,22,2,1,162,1,1,1,4,0.283245983795457,0.26293963215812
"643",14,20,2,1,163,1,1,1,4,0.353369564006332,0.359449808848981
"644",14,28,2,1,164,1,1,1,5,0.457598972433501,0.428725251991766
"645",14,33,2,2,165,1,1,0,4,0.77097209921012,0.811065368439676
"646",14,36,2,2,166,2,1,0,3,0.690722101539551,0.669548508057211
"647",14,19,2,1,167,3,1,1,2,0.414885421332595,0.412432452962727
"648",14,35,2,1,168,2,2,0,3,0.842068876700352,0.872866623640366
"649",14,23,2,1,169,3,2,0,1,1.50581092963618,1.51372985081312
"650",14,24,2,1,170,3,1,1,2,0.713800601868826,0.815407433813483
"651",14,34,2,1,171,3,2,0,2,1.20135643886348,1.28778621348637
"652",14,22,2,2,172,1,2,1,5,0.365903387659211,0.343928177566596
"653",14,20,2,1,173,2,2,0,2,0.718925067214549,0.756797621394351
"654",14,28,2,1,174,1,1,1,5,0.393853931913722,0.379228965671328
"655",14,33,2,2,175,1,2,1,4,0.523881479897789,0.589083554498022
"656",14,36,2,2,176,3,2,1,2,0.959152430419245,0.924707852274202
"657",14,19,2,2,177,3,1,0,2,1.20542862991497,1.18951856679817
"658",14,35,2,2,178,2,2,1,3,0.409461188928664,0.451117588777678
"659",14,23,2,2,179,2,2,1,3,0.583335507192916,0.50603258389087
"660",14,24,2,1,180,1,1,1,5,0.447779205491343,0.438838425664678
"661",14,34,2,2,181,3,1,0,1,1.56408543193853,1.58738995194653
"662",14,22,2,1,182,3,2,0,2,0.680513833177047,0.697552444811988
"663",14,20,2,1,183,3,1,1,2,1.07884836569455,1.0976704947521
"664",14,28,2,2,184,3,2,1,2,0.707738336971872,0.670067213641126
"665",14,33,2,1,185,2,2,0,3,0.692461900485256,0.643916301972458
"666",14,36,2,1,186,2,1,1,3,0.504386032713761,0.542616485856706
"667",14,19,2,2,187,1,2,1,5,0.5403209695779,0.595160491598321
"668",14,35,2,2,188,1,2,1,4,0.372260117324353,0.471232968066555
"669",14,23,2,2,189,1,2,1,5,0.533082551366359,0.556703938303045
"670",14,24,2,1,190,2,1,1,4,0.841860260977251,0.797081554796502
"671",14,34,2,2,191,2,1,0,3,0.648525705671174,0.648651590564128
"672",14,22,2,2,192,1,2,1,4,0.36300105459676,0.34759561288057
"673",14,20,2,2,193,3,1,0,2,1.78597089274182,1.77772210232734
"674",14,28,2,2,194,3,2,1,3,1.14307680254626,1.17887774654367
"675",14,33,2,2,195,1,1,0,3,0.771512525231286,0.820991297205243
"676",14,36,2,2,196,2,2,1,3,0.624282174316624,0.559993154480108
"677",14,19,2,2,197,3,2,1,2,0.978429780402669,0.979906830611026
"678",14,35,2,1,198,1,1,1,5,0.424177742137203,0.443732486184027
"679",14,23,2,1,199,2,1,1,3,0.604619655080526,0.532533087574025
"680",14,24,2,2,200,1,2,1,5,0.419044016735561,0.422383358704531
"681",14,34,2,2,201,2,1,0,2,0.705497480231242,0.697177971052183
"682",14,22,2,1,202,2,1,1,3,0.68328486856395,0.782178566485631
"683",14,20,2,1,203,3,2,0,1,0.797034214444645,0.738834707580746
"684",14,28,2,1,204,1,1,1,4,0.482770994983551,0.511151430649873
"685",14,33,2,1,205,1,1,1,5,0.354476314604917,0.381797864824097
"686",14,36,2,2,206,2,2,1,3,0.514230773556244,0.527050546786619
"687",14,19,2,2,207,2,2,1,4,0.61856271445626,0.593897236561841
"688",14,35,2,2,208,1,1,0,4,0.41386767060835,0.393682608141855
"689",14,23,2,2,209,1,1,0,4,0.618702640545358,0.572087069477793
"690",14,24,2,1,210,1,1,1,4,0.393571349456035,0.324076411048206
"691",14,34,2,2,211,2,2,1,3,0.610250086833997,0.592405602608105
"692",14,22,2,1,212,2,1,1,4,0.762111482855893,0.737753638103966
"693",14,20,2,2,213,1,1,0,3,0.51792321515045,0.492826533191113
"694",14,28,2,2,214,1,2,1,5,0.401098754747404,0.352893156333223
"695",14,33,2,2,215,2,2,1,3,0.486578280635192,0.617257474577521
"696",14,36,2,1,216,1,1,1,4,0.351096670876547,0.26105320495281
"697",14,19,2,1,217,2,2,0,3,0.570490840470294,0.565284634215668
"698",14,35,2,1,218,3,1,1,2,1.29529750271691,1.31067264745985
"699",14,23,2,1,219,1,1,1,4,0.371286738437783,0.336891148619938
"700",14,24,2,2,220,2,2,1,4,0.641784619240145,0.646089574569942
"701",14,34,2,1,221,1,1,1,4,0.527458444828183,0.551146292824433
"702",14,22,2,1,222,2,2,0,3,0.471320995125976,0.474416856687345
"703",14,20,2,1,223,1,2,0,3,0.701575460945902,0.795442237882977
"704",14,28,2,1,224,3,1,1,2,0.853472160028392,0.780553180171708
"705",14,33,2,2,225,3,1,0,2,1.24293320164554,1.2672128044626
"706",14,36,2,1,226,3,2,0,2,1.19090022889003,1.21653570384948
"707",14,19,2,2,227,2,2,1,3,0.718605675887059,0.77578408618329
"708",14,35,2,2,228,2,1,0,3,0.44393450106616,0.488753050000505
"709",14,23,2,2,229,1,2,1,5,0.37950666880327,0.416157679901408
"710",14,24,2,2,230,3,1,0,1,0.761978793006247,0.782697256193553
"711",14,34,2,1,231,3,2,0,1,1.05951082798558,1.12718025732136
"712",14,22,2,2,232,3,1,0,2,0.847426908857679,0.895966365426595
"713",14,20,2,2,233,2,2,1,3,0.636442425635591,0.680987896425188
"714",14,28,2,2,234,2,2,1,4,0.637770099828837,0.663502489024013
"715",14,33,2,1,235,3,1,1,3,0.680646681138356,0.73840130062611
"716",14,36,2,2,236,3,2,1,2,0.895071185150391,0.898723489051987
"717",14,19,2,2,237,2,1,0,3,0.619386408903927,0.587827734935603
"718",14,35,2,2,238,1,2,1,5,0.384979274259838,0.441976433999189
"719",14,23,2,1,239,1,1,1,5,0.498497728559602,0.521854113678379
"720",14,24,2,2,240,3,2,1,3,0.518133412505003,0.608042354519535
"721",13,23,1,1,1,1,1,1,4,0.325104332330667,0.338131623800354
"722",13,30,1,2,2,1,2,1,4,0.47972621636328,0.448774583216977
"723",13,21,1,2,3,3,1,0,2,0.815451014904405,0.825622063666337
"724",13,18,1,1,4,3,1,1,2,0.868755543112662,0.947457993040031
"725",13,35,1,2,5,1,2,1,5,0.337053609549962,0.345185712501566
"726",13,29,1,2,6,1,1,0,4,0.781248967388369,0.760158248685654
"727",13,32,1,2,7,3,2,1,2,1.093386434462,1.0172240756279
"728",13,39,1,2,8,1,1,0,3,0.449347021484175,0.46059684958579
"729",13,26,1,2,9,1,2,1,4,0.474245393249129,0.494538073004184
"730",13,18,1,1,10,3,2,0,1,0.710406478448052,0.698946302778527
"731",13,23,1,1,11,1,1,1,4,0.381106107325638,0.418425302083382
"732",13,30,1,2,12,2,1,0,2,0.652678854484621,0.628260533524601
"733",13,21,1,1,13,2,1,1,3,0.556064959563645,0.610472326298551
"734",13,18,1,1,14,1,2,0,4,0.545566826774092,0.523766619217357
"735",13,35,1,2,15,1,2,1,5,0.315819996329037,0.315809646789625
"736",13,29,1,1,16,1,2,0,3,0.330949990813138,0.335576629190097
"737",13,32,1,2,17,1,2,1,4,0.305463780358429,0.241261865951848
"738",13,39,1,2,18,2,2,1,4,0.569678751873449,0.592866758805376
"739",13,26,1,2,19,2,1,0,2,0.84810872189648,0.731729159791091
"740",13,18,1,2,20,3,1,0,2,0.977926703931213,0.999602541025059
"741",13,23,1,1,21,1,1,1,5,0.471325396931967,0.565601600161742
"742",13,30,1,2,22,3,1,0,1,0.970141317612958,1.03667331549197
"743",13,21,1,2,23,1,1,0,4,0.581612066969819,0.654044597952574
"744",13,18,1,2,24,3,1,0,2,1.08099641915544,1.12171691799513
"745",13,35,1,1,25,3,2,0,2,1.40858052292977,1.37762112820575
"746",13,29,1,2,26,2,2,1,4,0.706750153919343,0.748378105789244
"747",13,32,1,2,27,3,2,1,3,0.405920937285911,0.367361880047456
"748",13,39,1,2,28,1,2,1,5,0.473810415103186,0.449647371007299
"749",13,26,1,2,29,1,1,0,4,0.380035855164952,0.354450137284645
"750",13,18,1,1,30,3,2,0,1,0.938860816292908,0.886222328930529
"751",13,23,1,1,31,3,2,0,2,1.1672023502897,1.14704174951324
"752",13,30,1,1,32,1,1,1,5,0.409088008711809,0.421899007283142
"753",13,21,1,2,33,1,2,1,5,0.350966949934445,0.401239654659353
"754",13,18,1,2,34,3,2,1,2,0.592972300046028,0.576655559337076
"755",13,35,1,2,35,1,1,0,4,0.557070402405995,0.587210193305007
"756",13,29,1,2,36,2,2,1,3,0.493436964887468,0.510191327894679
"757",13,32,1,2,37,2,1,0,3,0.758873973747948,0.77435139220257
"758",13,39,1,2,38,1,2,1,4,0.372661816873452,0.352639394069836
"759",13,26,1,1,39,2,1,1,4,0.888855362829235,0.919162553704317
"760",13,18,1,1,40,2,1,1,4,0.542831540284056,0.522576846415902
"761",13,23,1,2,41,2,1,0,2,0.51374423759186,0.591509360907813
"762",13,30,1,1,42,2,2,0,3,0.903624402159426,0.92192078002098
"763",13,21,1,2,43,1,2,1,5,0.579982801237327,0.626211734785082
"764",13,18,1,1,44,3,2,0,1,1.33518696315927,1.40541783166375
"765",13,35,1,2,45,2,1,0,2,0.952749431213942,0.910158054999867
"766",13,29,1,1,46,1,1,1,5,0.451817516818638,0.490240309168794
"767",13,32,1,2,47,2,1,0,2,0.684039972980002,0.669444827034888
"768",13,39,1,2,48,2,2,1,4,0.390666624694229,0.397188512133953
"769",13,26,1,1,49,1,2,0,3,0.52613566646417,0.554195816495264
"770",13,18,1,2,50,2,2,1,4,0.717432741207732,0.736633143579871
"771",13,23,1,1,51,3,2,0,2,0.749000679199161,0.660714679264716
"772",13,30,1,1,52,1,2,0,3,0.587327636082215,0.55772355701017
"773",13,21,1,1,53,1,1,1,5,0.441623706183182,0.431810210619325
"774",13,18,1,1,54,1,1,1,5,0.38619116411353,0.440827637342624
"775",13,35,1,1,55,1,1,1,4,0.314196425790778,0.365311086397098
"776",13,29,1,1,56,1,1,1,4,0.421001347143799,0.369717401319785
"777",13,32,1,2,57,3,1,0,2,0.741100512768426,0.741353496638103
"778",13,39,1,2,58,3,1,0,2,0.433541758021792,0.47110106675753
"779",13,26,1,1,59,3,2,0,2,0.80866904188779,0.782032732445409
"780",13,18,1,2,60,2,1,0,2,0.738280258478555,0.736209561325514
"781",13,23,1,1,61,2,2,0,3,0.57843122756134,0.566328475378398
"782",13,30,1,2,62,3,1,0,2,0.137327108452292,0.119853071132925
"783",13,21,1,2,63,3,1,0,1,0.693675199872387,0.855048106505462
"784",13,18,1,2,64,3,1,0,1,1.04380207941768,1.1144306506217
"785",13,35,1,1,65,2,1,1,3,0.666781536792854,0.686473385216431
"786",13,29,1,1,66,1,1,1,4,0.41148503342767,0.438486474687197
"787",13,32,1,2,67,3,1,0,2,1.2388986592558,1.26981144845228
"788",13,39,1,2,68,1,2,1,4,0.454842998260465,0.460232702195898
"789",13,26,1,2,69,2,1,0,3,0.644235022562513,0.613397106970981
"790",13,18,1,1,70,1,1,1,5,0.344708940811928,0.417623874510796
"791",13,23,1,1,71,1,1,1,4,0.485189195792769,0.500644813758629
"792",13,30,1,2,72,2,2,1,4,0.460559267530093,0.488846557169021
"793",13,21,1,1,73,3,1,1,3,0.511667108130314,0.481534640071361
"794",13,18,1,1,74,2,1,1,4,0.630415173219992,0.673820166569534
"795",13,35,1,2,75,3,1,0,1,1.1546597526157,1.10640411360898
"796",13,29,1,1,76,2,1,1,4,0.920990227607258,0.930098718711427
"797",13,32,1,1,77,2,2,0,2,0.843305246098896,0.828862197627532
"798",13,39,1,2,78,1,2,1,4,0.331913449632163,0.366128938083659
"799",13,26,1,2,79,1,2,1,5,0.37065559165673,0.388166590745828
"800",13,18,1,2,80,3,1,0,2,0.796480267576232,0.800803244539622
"801",13,23,1,1,81,3,2,0,1,0.815410991061517,0.749784464657851
"802",13,30,1,2,82,1,2,1,4,0.33989491453096,0.3153699407842
"803",13,21,1,1,83,2,1,1,3,0.590172423312007,0.51001759075167
"804",13,18,1,2,84,1,2,1,5,0.51475723952413,0.512278386983607
"805",13,35,1,1,85,3,2,0,1,1.12601809962801,1.09764395988959
"806",13,29,1,2,86,3,2,1,2,0.727185832222075,0.695480715879727
"807",13,32,1,1,87,3,2,0,1,0.980744524154012,0.989840897838864
"808",13,39,1,2,88,1,2,1,4,0.356970101312672,0.366960328602396
"809",13,26,1,1,89,2,2,0,2,0.715420109995669,0.71600524198587
"810",13,18,1,1,90,3,2,0,1,0.407697900449013,0.344353069112615
"811",13,23,1,1,91,2,1,1,3,0.636609092187455,0.652523789285537
"812",13,30,1,2,92,2,1,0,2,0.696095503850959,0.653399239184014
"813",13,21,1,1,93,3,1,1,3,0.793630584977112,0.793541092880021
"814",13,18,1,2,94,3,1,0,2,0.873967353250593,0.849877939714675
"815",13,35,1,2,95,2,1,0,3,0.684706614217898,0.645246652806836
"816",13,29,1,2,96,3,1,0,1,1.14709262765088,1.13125734996642
"817",13,32,1,2,97,2,2,1,4,0.538040550939761,0.594032502210474
"818",13,39,1,2,98,2,1,0,3,0.72290072684811,0.725179470775753
"819",13,26,1,1,99,3,2,0,1,1.06937308120219,1.1207600506994
"820",13,18,1,1,100,1,2,0,3,0.45576631773055,0.37560758005741
"821",13,23,1,1,101,1,1,1,5,0.562778937911228,0.512537254247728
"822",13,30,1,1,102,3,2,0,2,1.07086733590356,1.0096369250661
"823",13,21,1,2,103,3,1,0,1,1.7663623548376,1.8149237449841
"824",13,18,1,2,104,3,2,1,2,0.818915774609387,0.78642530388331
"825",13,35,1,2,105,3,1,0,1,0.992914355368265,0.917182910842465
"826",13,29,1,2,106,3,2,1,3,1.02713723598957,1.05971915719583
"827",13,32,1,2,107,3,1,0,1,1.50266971221778,1.5628817746081
"828",13,39,1,2,108,3,2,1,2,0.708773728084091,0.701691827925102
"829",13,26,1,1,109,2,2,0,2,0.622989644029462,0.646331154053201
"830",13,18,1,1,110,2,2,0,3,0.711280092319219,0.676211853404747
"831",13,23,1,1,111,1,1,1,5,0.336144810115452,0.20576318622712
"832",13,30,1,1,112,3,1,1,3,0.36155650200205,0.305028258267459
"833",13,21,1,1,113,3,1,1,3,0.650912984351757,0.585277965172182
"834",13,18,1,2,114,1,2,1,4,0.578333643515895,0.568067263046165
"835",13,35,1,1,115,2,1,1,4,0.698482854592618,0.772937426699122
"836",13,29,1,1,116,1,2,0,4,0.691244104918342,0.746617614598933
"837",13,32,1,2,117,1,2,1,5,0.504527529621891,0.515745397997763
"838",13,39,1,2,118,2,1,0,3,0.617320728828795,0.744989945589831
"839",13,26,1,1,119,1,1,1,5,0.324115043663571,0.4093791444386
"840",13,18,1,1,120,1,2,0,4,0.576403761357406,0.560329098980834
"841",13,23,1,1,121,1,1,1,4,0.395465092027263,0.345213603750627
"842",13,30,1,2,122,3,1,0,2,1.33997938674654,1.34864785598812
"843",13,21,1,1,123,1,1,1,4,0.317773475582135,0.285152694471135
"844",13,18,1,1,124,2,2,0,3,0.591060881719378,0.500286002038569
"845",13,35,1,2,125,3,2,1,2,0.584979672960651,0.559471739970042
"846",13,29,1,2,126,3,1,0,1,1.23771311217249,1.22784291844519
"847",13,32,1,2,127,1,2,1,4,0.436552182486233,0.425695128196671
"848",13,39,1,1,128,1,1,1,4,0.397412985429293,0.352880918985893
"849",13,26,1,2,129,1,2,1,5,0.333926953779825,0.329496467280947
"850",13,18,1,2,130,2,2,1,3,0.642095126511883,0.670889118956074
"851",13,23,1,1,131,3,1,1,2,0.404868871392292,0.378059607510388
"852",13,30,1,1,132,3,2,0,1,0.686714215056554,0.646944787663929
"853",13,21,1,1,133,1,1,1,5,0.367074045885228,0.333077486520035
"854",13,18,1,2,134,2,2,1,3,0.81112286721246,0.823927744185498
"855",13,35,1,2,135,1,2,1,5,0.292784841856261,0.320170607141481
"856",13,29,1,2,136,1,2,1,5,0.352038956234055,0.372811770279112
"857",13,32,1,2,137,1,2,1,4,0.379791796871914,0.340766672925454
"858",13,39,1,2,138,2,2,1,3,0.493975287644912,0.433458776232585
"859",13,26,1,2,139,1,2,1,4,0.439524088386491,0.408223958455948
"860",13,18,1,1,140,1,2,0,4,0.693151537430911,0.667993973808375
"861",13,23,1,1,141,2,1,1,4,0.403924174578544,0.31117929436005
"862",13,30,1,1,142,3,1,1,3,1.03347503279247,1.01342156210535
"863",13,21,1,1,143,2,1,1,3,0.72474096015481,0.739218714141416
"864",13,18,1,2,144,1,2,1,4,0.438550972713521,0.415711334946295
"865",13,35,1,2,145,3,1,0,1,0.128455720854199,0.0488490171609987
"866",13,29,1,1,146,3,2,0,2,0.136262621152977,0.12744631558152
"867",13,32,1,1,147,3,2,0,2,1.29897624679005,1.30966746242703
"868",13,39,1,1,148,3,2,0,2,0.487143172882349,0.474304732970021
"869",13,26,1,2,149,3,2,1,3,0.749044407811845,0.687320168778444
"870",13,18,1,2,150,3,2,1,3,0.938331443976903,0.90055318380532
"871",13,23,1,1,151,3,1,1,2,0.974448300930571,0.890400644334149
"872",13,30,1,1,152,1,1,1,4,0.426618764226799,0.45028957628957
"873",13,21,1,2,153,3,1,0,1,1.34339454227865,1.39354217109183
"874",13,18,1,1,154,3,1,1,3,0.681299614781615,0.643641053434082
"875",13,35,1,1,155,1,1,1,5,0.292935858312778,0.348179549992814
"876",13,29,1,1,156,1,2,0,4,0.616908744722006,0.651047004413507
"877",13,32,1,2,157,3,1,0,1,0.438328408186384,0.446088281673605
"878",13,39,1,1,158,1,1,1,4,0.359761714480727,0.375539447302389
"879",13,26,1,1,159,1,1,1,4,0.282487493924439,0.357585622819057
"880",13,18,1,1,160,1,1,1,5,0.277426320589576,0.27196449532308
"881",13,23,1,1,161,3,1,1,3,0.859497790564514,0.834845701080697
"882",13,30,1,1,162,1,1,1,4,0.298471507395767,0.3338993863129
"883",13,21,1,2,163,1,2,1,4,0.481970891319669,0.455134028666577
"884",13,18,1,1,164,2,1,1,3,0.378718930897276,0.333491982593652
"885",13,35,1,2,165,3,2,1,2,0.703313928841895,0.679914832581636
"886",13,29,1,2,166,1,2,1,4,0.45912170333933,0.494636591601442
"887",13,32,1,2,167,2,2,1,3,0.867885330205463,0.841414602694172
"888",13,39,1,1,168,2,2,0,3,0.789158312384576,0.854240259022183
"889",13,26,1,1,169,1,1,1,4,0.504368032207219,0.487267495664889
"890",13,18,1,2,170,3,2,1,3,0.978837925644516,0.963871144377957
"891",13,23,1,2,171,3,2,1,3,0.746962972193621,0.691783454267034
"892",13,30,1,2,172,2,2,1,4,0.503882015903239,0.501042985887012
"893",13,21,1,2,173,3,1,0,1,0.514361654039919,0.468058203945774
"894",13,18,1,1,174,1,1,1,5,0.519489685060501,0.432097868778889
"895",13,35,1,1,175,1,1,1,4,0.206221287468921,0.169321405487107
"896",13,29,1,2,176,2,1,0,3,0.823897614134126,0.782448725254539
"897",13,32,1,1,177,1,1,1,5,0.390248901085506,0.355854835934408
"898",13,39,1,2,178,2,2,1,4,0.622062335964133,0.610573986634688
"899",13,26,1,1,179,1,1,1,4,0.457925779176773,0.407788887266584
"900",13,18,1,1,180,2,2,0,3,0.732294261499379,0.759114439795214
"901",13,23,1,2,181,2,2,1,3,0.558047139300679,0.620191400568718
"902",13,30,1,2,182,2,2,1,3,0.406893746613416,0.443214212672847
"903",13,21,1,1,183,2,2,0,2,0.656189295397677,0.648791369828293
"904",13,18,1,2,184,2,2,1,4,0.538346770518032,0.610711210372274
"905",13,35,1,1,185,2,1,1,4,0.624399660370234,0.62265019683231
"906",13,29,1,1,186,2,1,1,3,0.576106861489193,0.549521494377542
"907",13,32,1,1,187,2,1,1,4,0.520111015012204,0.629292750325727
"908",13,39,1,1,188,2,1,1,4,0.529498364162808,0.461149628069273
"909",13,26,1,1,189,3,2,0,2,1.04600602416782,1.08324537071738
"910",13,18,1,1,190,2,1,1,4,0.414737136960849,0.361393783760999
"911",13,23,1,1,191,3,2,0,2,1.1698701553325,1.14601381133326
"912",13,30,1,1,192,2,2,0,3,0.670609122672923,0.667231236217969
"913",13,21,1,2,193,2,1,0,3,1.02542200830766,0.985735320031557
"914",13,18,1,2,194,2,2,1,4,0.732951569069617,0.729441300384218
"915",13,35,1,1,195,3,2,0,2,1.26800141272469,1.25752651495192
"916",13,29,1,1,196,3,2,0,1,0.792168447079492,0.817220620651043
"917",13,32,1,1,197,2,1,1,4,0.479508072251821,0.500904364790697
"918",13,39,1,2,198,3,1,0,1,0.635562601058843,0.576375108257436
"919",13,26,1,2,199,2,2,1,4,0.734852384188314,0.747291976306541
"920",13,18,1,2,200,3,1,0,1,0.741683100186554,0.729328370090877
"921",13,23,1,2,201,2,2,1,3,0.666759550121874,0.69014850102653
"922",13,30,1,1,202,2,1,1,4,0.556876093959954,0.466526246944101
"923",13,21,1,1,203,3,2,0,1,0.603817482218085,0.613596279509771
"924",13,18,1,1,204,1,1,1,5,0.30292137273104,0.261896574895939
"925",13,35,1,1,205,2,1,1,4,0.58423468265386,0.56574636180624
"926",13,29,1,2,206,1,2,1,5,0.424934071029045,0.429442023270871
"927",13,32,1,1,207,3,2,0,1,0.407106409643843,0.402646780572487
"928",13,39,1,1,208,2,1,1,4,0.39877666539798,0.484279043818617
"929",13,26,1,2,209,1,2,1,4,0.365132010359326,0.300126778548454
"930",13,18,1,2,210,3,2,1,3,0.856748519414449,0.834786748950926
"931",13,23,1,1,211,1,1,1,4,0.371972829972654,0.367104817928021
"932",13,30,1,1,212,3,2,0,1,0.706581675876315,0.779256156518221
"933",13,21,1,1,213,1,1,1,5,0.438269360377398,0.530482234359578
"934",13,18,1,1,214,2,1,1,4,0.596792195952633,0.603690558312627
"935",13,35,1,2,215,2,2,1,3,0.679201937798037,0.721255806359426
"936",13,29,1,1,216,2,1,1,4,0.740358123513377,0.74412911188927
"937",13,32,1,2,217,2,2,1,3,0.69659900370101,0.738469431447027
"938",13,39,1,2,218,1,1,0,3,0.621047638089712,0.661498660886044
"939",13,26,1,1,219,1,1,1,5,0.549742271702307,0.616987077530669
"940",13,18,1,1,220,2,2,0,2,0.60334836783728,0.484292681659003
"941",13,23,1,2,221,2,1,0,3,0.596829645428255,0.557979947412567
"942",13,30,1,2,222,3,2,1,2,0.600983758782822,0.57675175863903
"943",13,21,1,2,223,2,2,1,4,0.55475709101757,0.57307708481106
"944",13,18,1,2,224,3,1,0,2,1.37332203441881,1.45540201944681
"945",13,35,1,2,225,3,2,1,2,0.716514718043445,0.687597775844042
"946",13,29,1,1,226,2,1,1,3,0.556023932944376,0.640330933585567
"947",13,32,1,2,227,1,1,0,3,0.444088767346714,0.442674982026104
"948",13,39,1,1,228,3,1,1,2,0.801649490322217,0.802323508106083
"949",13,26,1,1,229,3,2,0,1,0.676185506142432,0.639769470475866
"950",13,18,1,2,230,2,1,0,2,0.498294478928806,0.460311238203653
"951",13,23,1,2,231,2,2,1,4,0.495899999249549,0.560215563947861
"952",13,30,1,2,232,2,1,0,2,0.899126041929886,0.828372664217931
"953",13,21,1,2,233,1,1,0,3,0.436070984618238,0.416589331462886
"954",13,18,1,2,234,3,1,0,2,1.37129038465993,1.39571008562786
"955",13,35,1,1,235,2,2,0,2,0.556704777885833,0.596372702730046
"956",13,29,1,1,236,2,1,1,3,0.50344101900386,0.546714554662819
"957",13,32,1,1,237,1,1,1,5,0.375615349675757,0.387930673553243
"958",13,39,1,1,238,2,1,1,3,0.5304992548614,0.497201559436658
"959",13,26,1,2,239,2,1,0,3,0.573269209763527,0.564555049751851
"960",13,18,1,1,240,3,2,0,1,1.1967518854289,1.20908465665479
"961",12,30,2,2,1,2,1,0,2,0.69254013744217,0.699624161374553
"962",12,18,2,1,2,1,1,1,4,0.366514027278789,0.371336670001635
"963",12,28,2,2,3,2,2,1,4,0.621424637189876,0.562327968904109
"964",12,24,2,1,4,3,2,0,1,1.15570285346568,1.14958346369311
"965",12,25,2,2,5,2,2,1,3,0.70568468268595,0.730809139123876
"966",12,21,2,2,6,2,1,0,3,0.918467186940805,0.888184883068289
"967",12,23,2,2,7,2,1,0,2,0.858462805357796,0.830627627652877
"968",12,36,2,2,8,2,2,1,4,0.57626143136053,0.573279438202423
"969",12,26,2,1,9,3,1,1,2,1.12132446886142,1.126377136613
"970",12,31,2,2,10,1,2,1,5,0.454713139182563,0.431113747429827
"971",12,30,2,1,11,3,1,1,3,0.915589075840603,0.953383081951287
"972",12,18,2,2,12,3,1,0,1,1.00212519736679,1.01891630189814
"973",12,28,2,1,13,2,1,1,3,0.765038765624711,0.814140334060399
"974",12,24,2,2,14,3,1,0,1,1.07939824116609,1.02441945780615
"975",12,25,2,1,15,2,2,0,3,0.605918488886516,0.596991343186599
"976",12,21,2,1,16,3,2,0,2,0.980467061727675,0.979207498017223
"977",12,23,2,2,17,1,2,1,5,0.374464891154662,0.360123178333099
"978",12,36,2,2,18,3,2,1,3,1.12556172508819,1.16544648102056
"979",12,26,2,1,19,1,1,1,4,0.397934836659037,0.378162582291439
"980",12,31,2,2,20,1,2,1,5,0.475737706668492,0.446481488866153
"981",12,30,2,1,21,2,2,0,3,0.552687047580198,0.537305612421345
"982",12,18,2,2,22,1,2,1,4,0.301748920149036,0.332036506335012
"983",12,28,2,2,23,3,1,0,2,1.18177088946603,1.17399831038717
"984",12,24,2,1,24,2,1,1,4,0.63123337031231,0.600405210074826
"985",12,25,2,1,25,1,1,1,5,0.278102877514525,0.286380890706046
"986",12,21,2,2,26,2,1,0,2,0.43406165005421,0.343416569926837
"987",12,23,2,1,27,3,2,0,1,0.578878900054093,0.614862041936945
"988",12,36,2,1,28,3,2,0,2,1.08230916377287,1.15875913795627
"989",12,26,2,2,29,3,2,1,2,0.880922447538383,0.828457046749638
"990",12,31,2,2,30,2,1,0,3,0.635727138938892,0.639878677649504
"991",12,30,2,1,31,1,2,0,3,0.657083591740499,0.609254108720772
"992",12,18,2,1,32,2,1,1,3,0.652503407289693,0.598359771673436
"993",12,28,2,1,33,3,2,0,1,0.635448278068808,0.675420193131611
"994",12,24,2,2,34,1,2,1,4,0.369464037776199,0.367298701022665
"995",12,25,2,1,35,1,1,1,5,0.459954124486868,0.544325854315807
"996",12,21,2,2,36,2,1,0,3,0.735844470581352,0.650998031615768
"997",12,23,2,1,37,3,1,1,3,0.588449018819233,0.55969957349845
"998",12,36,2,2,38,3,1,0,2,0.951442515433102,0.980687567142531
"999",12,26,2,1,39,1,1,1,4,0.383086796227868,0.395752028062473
"1000",12,31,2,2,40,2,2,1,3,0.436242164277035,0.414301964019249
"1001",12,30,2,1,41,3,2,0,2,1.33598951746875,1.36410173737044
"1002",12,18,2,1,42,1,1,1,4,0.381349102602265,0.317774020594081
"1003",12,28,2,2,43,3,1,0,1,0.668610134328451,0.685834825285955
"1004",12,24,2,2,44,2,1,0,3,0.773510283239933,0.804150321214738
"1005",12,25,2,2,45,2,2,1,3,0.73237587798783,0.669446910323867
"1006",12,21,2,2,46,2,2,1,4,0.610619512713954,0.565807564223792
"1007",12,23,2,1,47,2,1,1,3,0.496410804841782,0.607985191049376
"1008",12,36,2,1,48,3,2,0,1,0.790808523121635,0.737930420873104
"1009",12,26,2,2,49,3,2,1,3,0.915341845273688,0.844437648628002
"1010",12,31,2,1,50,2,1,1,3,0.56739982182664,0.581844188769066
"1011",12,30,2,1,51,2,2,0,2,0.826811919538766,0.826310505739202
"1012",12,18,2,1,52,1,2,0,3,0.564900801114582,0.622015799666442
"1013",12,28,2,1,53,1,2,0,3,0.508489963528504,0.495879026200067
"1014",12,24,2,1,54,1,1,1,4,0.249119031828775,0.211137201666671
"1015",12,25,2,1,55,3,2,0,1,0.936506508022187,0.976205737935428
"1016",12,21,2,1,56,1,1,1,5,0.440931264277161,0.398925614314343
"1017",12,23,2,1,57,2,1,1,4,0.670649348050877,0.665738168263802
"1018",12,36,2,1,58,2,1,1,4,0.646719578623593,0.724201286108145
"1019",12,26,2,2,59,1,2,1,4,0.421234301151258,0.463432727913848
"1020",12,31,2,2,60,2,2,1,4,0.675527187482526,0.725568903582871
"1021",12,30,2,2,61,1,2,1,5,0.355793605232249,0.38469890157017
"1022",12,18,2,1,62,1,1,1,5,0.466599732824803,0.442476850082677
"1023",12,28,2,1,63,2,2,0,2,0.908346751285998,0.950593778818735
"1024",12,24,2,2,64,2,2,1,4,0.459754621794364,0.464185826673632
"1025",12,25,2,2,65,1,2,1,4,0.326661150912431,0.342912938891238
"1026",12,21,2,2,66,3,2,1,3,1.03294245994051,0.990952490641011
"1027",12,23,2,1,67,3,1,1,2,0.749778407085641,0.728799323669317
"1028",12,36,2,1,68,3,1,1,3,0.758366941081584,0.763774565040942
"1029",12,26,2,2,69,3,2,1,2,0.72053528679887,0.640621091959797
"1030",12,31,2,1,70,1,1,1,4,0.557437112051705,0.528571166550692
"1031",12,30,2,2,71,1,2,1,5,0.412617719712736,0.414702282219172
"1032",12,18,2,1,72,1,2,0,4,0.444185756721094,0.517589402527355
"1033",12,28,2,2,73,1,2,1,4,0.450219687840065,0.410349240677594
"1034",12,24,2,1,74,2,2,0,3,0.785713129243811,0.797323770353287
"1035",12,25,2,2,75,1,1,0,3,0.691812541657611,0.752714277440582
"1036",12,21,2,1,76,2,2,0,3,0.493055339126617,0.443159454628385
"1037",12,23,2,2,77,1,2,1,5,0.367845530977216,0.379787109744052
"1038",12,36,2,2,78,3,2,1,3,0.546324619219268,0.561592320732012
"1039",12,26,2,1,79,2,1,1,4,0.602381609264214,0.644926277784297
"1040",12,31,2,2,80,1,2,1,4,0.384455401395817,0.4490661293495
"1041",12,30,2,1,81,1,1,1,5,0.428972495845009,0.426858708184298
"1042",12,18,2,1,82,3,1,1,3,0.554898421448851,0.565236943116298
"1043",12,28,2,2,83,2,1,0,3,0.57632622150676,0.508077035924469
"1044",12,24,2,2,84,3,1,0,2,0.983514384193488,0.933798231680157
"1045",12,25,2,1,85,3,1,1,3,0.875167835882108,0.986035024372421
"1046",12,21,2,1,86,3,1,1,2,0.800797957416506,0.806489694261954
"1047",12,23,2,2,87,3,2,1,3,0.79431607246146,0.710939114852982
"1048",12,36,2,1,88,3,1,1,3,0.944229790820312,0.940926066946207
"1049",12,26,2,2,89,3,1,0,2,1.24101378986016,1.19926874841763
"1050",12,31,2,2,90,1,1,0,4,0.516252330853755,0.609610826731428
"1051",12,30,2,2,91,2,1,0,2,0.476654061014171,0.501379842988667
"1052",12,18,2,1,92,3,2,0,2,1.08783165493677,1.13680605697751
"1053",12,28,2,2,93,2,2,1,3,0.606009388156827,0.541452816774508
"1054",12,24,2,2,94,2,2,1,3,0.545670931619979,0.588861445622656
"1055",12,25,2,2,95,2,1,0,3,0.648150588076173,0.640103147648784
"1056",12,21,2,2,96,2,2,1,4,0.723460753378882,0.740084586572135
"1057",12,23,2,1,97,2,2,0,2,0.769745157898102,0.693232702010313
"1058",12,36,2,2,98,2,2,1,3,0.604427451956667,0.552763642751455
"1059",12,26,2,2,99,1,2,1,4,0.293362929313187,0.250255652073435
"1060",12,31,2,1,100,2,1,1,3,0.635744623942142,0.6179558350645
"1061",12,30,2,2,101,1,2,1,4,0.308573825221758,0.226093589681217
"1062",12,18,2,1,102,1,1,1,4,0.488002949785604,0.422526984202648
"1063",12,28,2,2,103,1,2,1,5,0.324769823337913,0.321614037508532
"1064",12,24,2,1,104,1,1,1,4,0.397792868474492,0.498742101868273
"1065",12,25,2,2,105,2,1,0,2,0.69127065028612,0.620476123490851
"1066",12,21,2,2,106,2,1,0,3,0.776693878269256,0.696809534048127
"1067",12,23,2,1,107,3,1,1,2,0.628039040097565,0.670596781585151
"1068",12,36,2,1,108,3,1,1,3,1.19372312063126,1.15337135637618
"1069",12,26,2,1,109,2,1,1,3,0.501195738499115,0.446527906517468
"1070",12,31,2,1,110,1,1,1,5,0.361147274496831,0.395216468307851
"1071",12,30,2,1,111,3,2,0,1,0.616250513274011,0.554858532802987
"1072",12,18,2,1,112,3,2,0,2,0.825959858535479,0.892116673370715
"1073",12,28,2,2,113,2,1,0,2,0.821083318633356,0.768923491127499
"1074",12,24,2,2,114,1,2,1,4,0.297974036791152,0.314893605482064
"1075",12,25,2,2,115,1,2,1,4,0.494027933860285,0.515533460528314
"1076",12,21,2,2,116,1,1,0,3,0.615780328084927,0.662626880826255
"1077",12,23,2,1,117,2,1,1,3,0.596990985618575,0.623847868884343
"1078",12,36,2,2,118,2,1,0,2,0.801561626666668,0.741531000546595
"1079",12,26,2,2,119,3,1,0,1,1.40442612212835,1.40014875245122
"1080",12,31,2,2,120,3,2,1,2,0.78346106261742,0.799823233847153
"1081",12,30,2,1,121,3,2,0,2,0.747587218570988,0.725385355449607
"1082",12,18,2,1,122,1,2,0,4,0.517028955912401,0.376123108898508
"1083",12,28,2,2,123,3,1,0,2,0.83346083392066,0.816955497489059
"1084",12,24,2,1,124,3,2,0,1,1.25867148058691,1.26988171714657
"1085",12,25,2,2,125,1,2,1,4,0.507931082143425,0.5958023055647
"1086",12,21,2,1,126,1,1,1,5,0.40826106107754,0.455362553417652
"1087",12,23,2,2,127,1,2,1,4,0.473891425678299,0.522715825923582
"1088",12,36,2,2,128,2,1,0,3,0.755069898747703,0.777574027069585
"1089",12,26,2,1,129,1,1,1,4,0.374065598991402,0.352734028467965
"1090",12,31,2,2,130,2,2,1,4,0.683793341908492,0.725557015210007
"1091",12,30,2,1,131,2,1,1,3,0.684706695607563,0.68206601144068
"1092",12,18,2,1,132,3,2,0,2,0.534905104007277,0.470130365344364
"1093",12,28,2,1,133,3,2,0,2,0.681746523923094,0.703227029124378
"1094",12,24,2,1,134,2,2,0,3,0.899544231353447,0.925703508510922
"1095",12,25,2,2,135,2,1,0,2,0.598318938912484,0.580891166698157
"1096",12,21,2,2,136,2,1,0,2,0.53413603412888,0.552880807461773
"1097",12,23,2,2,137,2,2,1,3,0.639513991786775,0.594145884933669
"1098",12,36,2,2,138,1,2,1,4,0.427873797622579,0.466502063539004
"1099",12,26,2,1,139,2,1,1,4,0.616499603512841,0.620842493352002
"1100",12,31,2,2,140,1,1,0,4,0.481993472099249,0.420161541852459
"1101",12,30,2,1,141,3,1,1,3,0.683874680600369,0.644799152206254
"1102",12,18,2,1,142,2,2,0,3,0.707711837172316,0.690303726850081
"1103",12,28,2,2,143,3,1,0,2,1.00286129974618,1.01502420434115
"1104",12,24,2,2,144,1,2,1,4,0.365814501731054,0.32207103986792
"1105",12,25,2,1,145,3,2,0,1,0.824265876224032,0.754928845416744
"1106",12,21,2,1,146,1,1,1,4,0.363380584089387,0.358443866736132
"1107",12,23,2,1,147,2,2,0,3,0.562361030163686,0.638707467793133
"1108",12,36,2,2,148,3,1,0,1,1.05965641531434,1.01192520911136
"1109",12,26,2,2,149,3,1,0,1,0.752682522711262,0.764728971314786
"1110",12,31,2,2,150,2,2,1,4,0.632940615971313,0.615235776519781
"1111",12,30,2,2,151,1,2,1,5,0.419637648462034,0.3796528629907
"1112",12,18,2,1,152,2,1,1,3,0.463129361438931,0.315153586783977
"1113",12,28,2,1,153,3,2,0,1,1.47246679869349,1.48144997915637
"1114",12,24,2,2,154,1,2,1,4,0.375249302624361,0.365030871798672
"1115",12,25,2,1,155,3,2,0,1,1.00567326658391,0.97630501588327
"1116",12,21,2,2,156,2,1,0,3,0.689284046979917,0.705735522093519
"1117",12,23,2,2,157,1,1,0,4,0.502410514576103,0.627656736239659
"1118",12,36,2,1,158,3,2,0,2,0.956469967277111,1.01174193036454
"1119",12,26,2,1,159,2,1,1,3,0.633676742282029,0.617294302810081
"1120",12,31,2,1,160,3,2,0,2,1.36672983901725,1.35909037234783
"1121",12,30,2,1,161,3,2,0,2,0.951794350267387,0.991079277395698
"1122",12,18,2,2,162,2,2,1,3,0.577808372050424,0.583849448965774
"1123",12,28,2,1,163,1,1,1,5,0.338366021212688,0.289442136223478
"1124",12,24,2,2,164,1,2,1,5,0.482151015459172,0.470387567132496
"1125",12,25,2,2,165,1,2,1,4,0.335282234423093,0.415938477083587
"1126",12,21,2,2,166,3,1,0,2,1.17576549711066,1.2434420347777
"1127",12,23,2,1,167,3,2,0,1,1.01018661701305,1.03292688936725
"1128",12,36,2,2,168,1,1,0,3,0.58500363064479,0.570068199187574
"1129",12,26,2,1,169,3,2,0,2,0.923858882802857,0.943823676576627
"1130",12,31,2,1,170,1,1,1,5,0.500895627470903,0.50891823969299
"1131",12,30,2,1,171,1,1,1,5,0.368849264245087,0.434584453888539
"1132",12,18,2,1,172,3,2,0,1,1.56706706996154,1.53670555697425
"1133",12,28,2,1,173,1,1,1,4,0.510278378040565,0.488124914448943
"1134",12,24,2,2,174,2,2,1,4,0.668747543739675,0.661489582023104
"1135",12,25,2,1,175,3,2,0,2,0.94415337772218,0.92630553270063
"1136",12,21,2,1,176,2,2,0,2,0.932131235343211,0.970604812323101
"1137",12,23,2,2,177,2,1,0,2,0.498187919749326,0.517285475585709
"1138",12,36,2,2,178,3,2,1,2,0.946579246352973,0.993006414281855
"1139",12,26,2,2,179,1,2,1,4,0.459985485715646,0.385141964646182
"1140",12,31,2,1,180,3,2,0,2,1.27108369194014,1.36445771987677
"1141",12,30,2,2,181,1,2,1,4,0.461907651586843,0.373443913462879
"1142",12,18,2,2,182,3,2,1,3,0.680271565950636,0.632548651905789
"1143",12,28,2,2,183,1,2,1,5,0.453054187811975,0.455645786293311
"1144",12,24,2,1,184,2,1,1,3,0.572063879283764,0.550159742805394
"1145",12,25,2,2,185,3,1,0,2,1.30828788187218,1.3369381666005
"1146",12,21,2,1,186,1,1,1,5,0.458084315093082,0.518678018089154
"1147",12,23,2,2,187,2,1,0,3,0.651166258129183,0.628097219761839
"1148",12,36,2,2,188,3,1,0,1,0.915473480258757,0.948522893597675
"1149",12,26,2,2,189,2,2,1,4,0.589162993910484,0.538990963254485
"1150",12,31,2,1,190,2,2,0,2,0.643446906836528,0.708769375212142
"1151",12,30,2,2,191,1,2,1,4,0.480294248734542,0.444478390694202
"1152",12,18,2,1,192,1,1,1,5,0.365609112224726,0.300922271613594
"1153",12,28,2,1,193,3,1,1,3,0.900019605363683,0.896202991101748
"1154",12,24,2,2,194,2,1,0,2,0.594822576374536,0.604716231429622
"1155",12,25,2,2,195,2,1,0,2,0.875106128729456,0.836976848504699
"1156",12,21,2,1,196,2,1,1,3,0.582284410772585,0.550754640528645
"1157",12,23,2,2,197,2,2,1,4,0.443586201775544,0.487092508618881
"1158",12,36,2,2,198,1,2,1,5,0.474898943509049,0.423972055742315
"1159",12,26,2,2,199,2,2,1,3,0.773419065614442,0.773884088766249
"1160",12,31,2,1,200,2,1,1,4,0.56758016730851,0.621848075945497
"1161",12,30,2,1,201,3,1,1,3,0.917534241600402,0.929676389814577
"1162",12,18,2,2,202,1,2,1,5,0.140698247043093,0.124053568304619
"1163",12,28,2,1,203,3,2,0,1,0.746304738933532,0.752328937450031
"1164",12,24,2,2,204,1,1,0,4,0.592648200920599,0.696954427725806
"1165",12,25,2,1,205,2,1,1,3,0.970393051501346,1.00229610458715
"1166",12,21,2,1,206,1,1,1,5,0.357750295485941,0.341013527287521
"1167",12,23,2,2,207,3,1,0,2,0.190740352694732,0.213066722853937
"1168",12,36,2,1,208,2,1,1,4,0.517689882520726,0.518437064995025
"1169",12,26,2,1,209,3,2,0,2,1.08403477874029,1.10186309522722
"1170",12,31,2,1,210,2,2,0,3,0.564630950442707,0.606747538613823
"1171",12,30,2,1,211,2,1,1,4,0.408924674482834,0.372849671145009
"1172",12,18,2,2,212,1,2,1,4,0.524080389734233,0.497394707529521
"1173",12,28,2,1,213,3,1,1,3,0.507056156233658,0.473284213388917
"1174",12,24,2,1,214,1,1,1,4,0.356660836376306,0.290021305410601
"1175",12,25,2,1,215,1,2,0,3,0.533815655125602,0.591658213404243
"1176",12,21,2,2,216,1,1,0,4,0.525510448486491,0.502069806722069
"1177",12,23,2,2,217,1,2,1,4,0.31712496861197,0.323521954600709
"1178",12,36,2,1,218,3,1,1,3,0.536269665539824,0.605001793545506
"1179",12,26,2,2,219,1,1,0,3,0.459399720532995,0.457175186486734
"1180",12,31,2,1,220,2,1,1,3,0.581952591747858,0.538585807663541
"1181",12,30,2,1,221,3,2,0,1,1.20926978622501,1.13457712257453
"1182",12,18,2,2,222,3,2,1,2,0.884189690953465,0.850955241934723
"1183",12,28,2,1,223,3,2,0,2,1.28565141873258,1.35101129824869
"1184",12,24,2,1,224,3,2,0,1,0.83607101862087,0.879880473207125
"1185",12,25,2,2,225,1,2,1,4,0.300805620211858,0.345850275195276
"1186",12,21,2,2,226,1,1,0,4,0.609334328054768,0.600297934195389
"1187",12,23,2,2,227,2,2,1,3,0.697936450192747,0.585760039910313
"1188",12,36,2,2,228,2,2,1,4,0.375623139077926,0.294917911587018
"1189",12,26,2,2,229,1,2,1,4,0.373384980576569,0.439574057605748
"1190",12,31,2,1,230,1,2,0,3,0.308644359485291,0.241540864029431
"1191",12,30,2,1,231,3,2,0,1,1.11511790708433,1.06959617337312
"1192",12,18,2,1,232,1,2,0,3,0.391127975096612,0.359336568202903
"1193",12,28,2,1,233,3,2,0,1,1.07755486289501,0.99554632943236
"1194",12,24,2,1,234,3,1,1,2,0.99561540750428,1.03610758204637
"1195",12,25,2,2,235,1,2,1,5,0.429174392149685,0.424832301428169
"1196",12,21,2,1,236,3,1,1,2,0.543679631230266,0.583662101008895
"1197",12,23,2,1,237,2,2,0,3,0.712712881068425,0.669593655018043
"1198",12,36,2,2,238,1,2,1,4,0.417975051819539,0.374603317873307
"1199",12,26,2,2,239,3,2,1,3,0.885817608591661,0.885601425701479
"1200",12,31,2,2,240,3,1,0,1,1.42032494026364,1.33685240066488
"1201",11,27,1,2,1,3,2,1,3,0.925495095702228,0.975708041214951
"1202",11,40,1,2,2,1,2,1,4,0.393506989447055,0.413194442536755
"1203",11,30,1,1,3,3,2,0,1,0.323540230936726,0.331734332515546
"1204",11,33,1,1,4,2,2,0,2,0.63139045898285,0.559868131554031
"1205",11,19,1,1,5,2,1,1,4,0.681398720870423,0.662021367666892
"1206",11,30,1,2,6,2,2,1,3,0.546604954183163,0.535997098179182
"1207",11,31,1,2,7,2,2,1,3,0.550618885281436,0.516598603166206
"1208",11,34,1,1,8,2,2,0,2,0.555388236821051,0.571251473628237
"1209",11,34,1,1,9,2,1,1,3,0.685306314583162,0.550157649025529
"1210",11,38,1,2,10,2,1,0,2,0.731342206185774,0.695220923456385
"1211",11,27,1,2,11,3,2,1,3,0.702996104274952,0.726059057279474
"1212",11,40,1,1,12,1,1,1,4,0.423219800228444,0.348083778891074
"1213",11,30,1,2,13,2,2,1,3,0.334445547298145,0.328834686876327
"1214",11,33,1,1,14,1,2,0,4,0.577994498166345,0.621909025722077
"1215",11,19,1,2,15,1,1,0,4,0.491545336968968,0.501703473138532
"1216",11,30,1,2,16,2,2,1,4,0.461474706024796,0.433745995141831
"1217",11,31,1,2,17,2,1,0,2,0.678844737214879,0.747125694801399
"1218",11,34,1,1,18,3,2,0,1,1.30733181323171,1.25077680327267
"1219",11,34,1,2,19,2,2,1,4,0.48917086033443,0.473028205284014
"1220",11,38,1,1,20,1,1,1,4,0.458250028835056,0.555413336928298
"1221",11,27,1,1,21,2,2,0,3,0.555677718941379,0.493725227147899
"1222",11,40,1,1,22,2,1,1,4,0.496971080203463,0.552562208392323
"1223",11,30,1,1,23,1,1,1,4,0.31043010802718,0.291615242177294
"1224",11,33,1,1,24,3,2,0,1,1.45900077861342,1.41159642699377
"1225",11,19,1,2,25,1,2,1,4,0.413894733382141,0.468788197948307
"1226",11,30,1,2,26,3,2,1,3,0.50764260174355,0.421697744562602
"1227",11,31,1,1,27,1,1,1,4,0.40001243587207,0.450782646295243
"1228",11,34,1,2,28,1,2,1,4,0.37181561342164,0.386860902385491
"1229",11,34,1,2,29,3,2,1,2,0.733841065711314,0.816208320983377
"1230",11,38,1,1,30,1,1,1,5,0.366765023827756,0.332512139859966
"1231",11,27,1,1,31,3,2,0,2,0.767996515982732,0.72925537481923
"1232",11,40,1,1,32,1,1,1,4,0.299413330066563,0.25442772019842
"1233",11,30,1,1,33,1,1,1,4,0.30521892997413,0.266813461962863
"1234",11,33,1,2,34,2,1,0,2,0.589128827451243,0.632079016062332
"1235",11,19,1,1,35,3,1,1,3,0.649353119401658,0.665640088242498
"1236",11,30,1,1,36,3,1,1,2,0.466178698365223,0.549631726616561
"1237",11,31,1,2,37,3,2,1,3,0.925215671980133,0.925522812829923
"1238",11,34,1,2,38,2,2,1,3,0.656862679504538,0.64480465399599
"1239",11,34,1,2,39,1,1,0,4,0.585502761979915,0.552978958722745
"1240",11,38,1,2,40,2,1,0,3,0.683159131571327,0.655862776590819
"1241",11,27,1,1,41,3,1,1,2,1.0697003416531,1.0352399262845
"1242",11,40,1,1,42,2,1,1,3,0.687890002010034,0.683659086203055
"1243",11,30,1,2,43,2,1,0,3,0.792512089082554,0.764530752132629
"1244",11,33,1,2,44,2,2,1,3,0.670630443885525,0.575285961590507
"1245",11,19,1,1,45,3,2,0,2,1.06159334579854,1.03529542734491
"1246",11,30,1,2,46,3,2,1,2,0.974943038544099,1.00286488680548
"1247",11,31,1,2,47,3,1,0,2,0.622124115801865,0.582936406896362
"1248",11,34,1,1,48,2,1,1,4,0.621889153635802,0.547582974463085
"1249",11,34,1,2,49,1,2,1,4,0.35538565880542,0.384240120615246
"1250",11,38,1,1,50,2,1,1,4,0.811398802908635,0.816607610873154
"1251",11,27,1,2,51,3,1,0,2,1.02986345874128,1.01657054485643
"1252",11,40,1,1,52,3,1,1,2,0.961649486023155,1.01145785180573
"1253",11,30,1,1,53,1,2,0,4,0.527569748794182,0.494245865172972
"1254",11,33,1,1,54,1,2,0,3,0.662251092488665,0.562645804067861
"1255",11,19,1,2,55,2,2,1,4,0.488381837873295,0.510740101924109
"1256",11,30,1,1,56,1,1,1,4,0.351746203916053,0.434030074159332
"1257",11,31,1,1,57,1,1,1,5,0.404593153785647,0.344042710736323
"1258",11,34,1,2,58,2,2,1,3,0.937147258305287,0.926916092532854
"1259",11,34,1,2,59,2,2,1,4,0.433673825195729,0.553798649094655
"1260",11,38,1,1,60,3,1,1,3,0.587217182115227,0.574590731644928
"1261",11,27,1,1,61,1,2,0,3,0.640059113253755,0.652453768493252
"1262",11,40,1,1,62,3,2,0,2,0.97893640899178,0.90755066554623
"1263",11,30,1,2,63,3,2,1,3,0.573252936752198,0.553868227358373
"1264",11,33,1,1,64,2,1,1,4,0.659747358884882,0.74242037520414
"1265",11,19,1,2,65,2,2,1,3,0.697182741881011,0.676068182724961
"1266",11,30,1,2,66,3,1,0,2,0.49930788710716,0.46107329336004
"1267",11,31,1,2,67,3,1,0,1,0.889457455348204,0.918457473656549
"1268",11,34,1,1,68,1,1,1,4,0.592673484830453,0.636688467455078
"1269",11,34,1,2,69,3,2,1,3,0.641121880079746,0.72515348159881
"1270",11,38,1,1,70,1,1,1,4,0.496937609809824,0.474109868505408
"1271",11,27,1,1,71,3,2,0,1,1.45894475521971,1.50832250075968
"1272",11,40,1,1,72,2,1,1,4,0.538473336723072,0.619000083006469
"1273",11,30,1,1,73,3,1,1,2,0.774136833825794,0.742928234204319
"1274",11,33,1,1,74,1,1,1,5,0.281528821701472,0.291124350064171
"1275",11,19,1,2,75,3,2,1,2,0.614636854735101,0.541626519139982
"1276",11,30,1,1,76,1,1,1,5,0.369817811668216,0.365454492589874
"1277",11,31,1,1,77,3,2,0,2,0.74002424936068,0.769761300301193
"1278",11,34,1,1,78,1,1,1,4,0.343777536852758,0.371187499755009
"1279",11,34,1,2,79,1,1,0,4,0.741756658769871,0.650071347205427
"1280",11,38,1,2,80,1,2,1,5,0.443483762558373,0.400835965642024
"1281",11,27,1,2,81,1,1,0,4,0.483698007157442,0.427309548539988
"1282",11,40,1,1,82,1,2,0,3,0.596385868139352,0.556453273673888
"1283",11,30,1,1,83,3,1,1,2,0.93797616880613,0.972048249794465
"1284",11,33,1,2,84,3,1,0,2,0.723039940663287,0.705680296223143
"1285",11,19,1,1,85,1,2,0,4,0.426768931432987,0.310629181366328
"1286",11,30,1,2,86,2,2,1,4,0.673423704346908,0.696087644533687
"1287",11,31,1,1,87,2,1,1,3,0.632047010496749,0.642499234971372
"1288",11,34,1,2,88,3,2,1,2,0.95031021306582,0.940051242843461
"1289",11,34,1,1,89,1,2,0,3,0.593165802060274,0.582514043702412
"1290",11,38,1,1,90,1,1,1,4,0.318766516933251,0.294335410854753
"1291",11,27,1,2,91,2,2,1,4,0.546907955499368,0.57635417326166
"1292",11,40,1,1,92,2,2,0,2,0.520584134424717,0.506751951613677
"1293",11,30,1,1,93,2,1,1,4,0.439096835636217,0.478839861060213
"1294",11,33,1,1,94,1,1,1,4,0.451057567640368,0.434897209759666
"1295",11,19,1,1,95,3,2,0,2,1.10419599680932,1.1178888354201
"1296",11,30,1,2,96,1,2,1,5,0.384119064674293,0.440226586218876
"1297",11,31,1,2,97,2,1,0,2,0.391573012461769,0.315505894319723
"1298",11,34,1,2,98,2,2,1,4,0.71110278262126,0.728255319181353
"1299",11,34,1,2,99,1,2,1,4,0.524838055097921,0.588012870050584
"1300",11,38,1,1,100,1,1,1,4,0.502951753216825,0.518222886020171
"1301",11,27,1,2,101,3,1,0,2,1.35911518303495,1.3649919961772
"1302",11,40,1,2,102,3,2,1,2,0.92553002883322,0.935636028701659
"1303",11,30,1,1,103,2,1,1,3,0.34366596704687,0.375596394920047
"1304",11,33,1,2,104,2,1,0,3,0.844357316968708,0.914484875276855
"1305",11,19,1,2,105,2,2,1,3,0.452355114259333,0.405232233059536
"1306",11,30,1,2,106,3,2,1,2,0.581820587840509,0.49836577463095
"1307",11,31,1,1,107,2,2,0,2,0.351006297329833,0.387834334255847
"1308",11,34,1,2,108,1,1,0,3,0.599672146844159,0.657120637504326
"1309",11,34,1,1,109,2,1,1,4,0.786037064902551,0.818976067772999
"1310",11,38,1,2,110,2,2,1,4,0.501221911979048,0.475139182265709
"1311",11,27,1,1,111,1,1,1,5,0.364480277917445,0.3992971891932
"1312",11,40,1,1,112,1,2,0,4,0.613543773110081,0.594923779176389
"1313",11,30,1,2,113,2,2,1,4,0.605357408742639,0.615601705400316
"1314",11,33,1,2,114,2,2,1,4,0.499312964867514,0.501088166683566
"1315",11,19,1,2,115,2,2,1,3,0.522491128076003,0.493232943250397
"1316",11,30,1,1,116,3,1,1,2,0.608843468375511,0.62022071517703
"1317",11,31,1,2,117,3,2,1,3,0.808362170840133,0.762034622802322
"1318",11,34,1,1,118,3,1,1,3,0.675450295843246,0.680676430884094
"1319",11,34,1,2,119,2,1,0,2,0.641363459134499,0.656569849738052
"1320",11,38,1,2,120,3,2,1,3,0.603684332925525,0.618369666234247
"1321",11,27,1,2,121,2,2,1,4,0.57806987836341,0.526439914598173
"1322",11,40,1,2,122,1,2,1,4,0.478021851941845,0.453241010227182
"1323",11,30,1,1,123,2,1,1,4,0.740820659226402,0.755534009537398
"1324",11,33,1,1,124,1,1,1,4,0.485490680745879,0.410330149186925
"1325",11,19,1,2,125,1,2,1,4,0.41256956099499,0.438216708063424
"1326",11,30,1,2,126,1,2,1,5,0.292595913955236,0.332377541250164
"1327",11,31,1,2,127,1,2,1,4,0.4423848272675,0.524860766709407
"1328",11,34,1,1,128,1,2,0,3,0.58546915491892,0.594906637632
"1329",11,34,1,2,129,3,1,0,1,1.01565707763592,1.00435399823835
"1330",11,38,1,2,130,2,2,1,3,0.675414269666807,0.595074652784666
"1331",11,27,1,1,131,1,2,0,3,0.487683439759913,0.509786528761306
"1332",11,40,1,2,132,1,2,1,4,0.358109942504826,0.452479337034753
"1333",11,30,1,1,133,3,1,1,2,0.768188629544755,0.747744712216315
"1334",11,33,1,1,134,1,1,1,4,0.31743675741028,0.291839488497729
"1335",11,19,1,1,135,1,1,1,4,0.384699499319074,0.295392902720535
"1336",11,30,1,1,136,3,1,1,3,0.738143485493093,0.716236865515716
"1337",11,31,1,2,137,2,2,1,4,0.725514966577433,0.749473260034127
"1338",11,34,1,1,138,1,1,1,4,0.520735686179273,0.470660579888894
"1339",11,34,1,1,139,3,1,1,3,0.672355818726346,0.551293290341557
"1340",11,38,1,2,140,1,2,1,5,0.417407145512495,0.373440362750152
"1341",11,27,1,2,141,3,2,1,2,0.915872729950791,0.850698523583493
"1342",11,40,1,2,142,1,2,1,5,0.305371297343996,0.261570408365617
"1343",11,30,1,1,143,1,1,1,5,0.512436705993912,0.422761422805242
"1344",11,33,1,2,144,3,1,0,1,0.764545731605727,0.723699720452271
"1345",11,19,1,1,145,2,2,0,2,0.567652151686755,0.561101096333894
"1346",11,30,1,1,146,1,1,1,5,0.542188277843641,0.447940825186286
"1347",11,31,1,2,147,1,2,1,5,0.428409711464383,0.441464737038932
"1348",11,34,1,2,148,2,1,0,2,0.741655508911272,0.736583756444217
"1349",11,34,1,1,149,1,1,1,4,0.247983649466181,0.351781234504489
"1350",11,38,1,2,150,3,2,1,3,0.706132405576594,0.691068253039927
"1351",11,27,1,1,151,3,2,0,1,0.263480791962015,0.2448708843767
"1352",11,40,1,2,152,2,1,0,3,0.569607909047377,0.598826241332917
"1353",11,30,1,2,153,3,1,0,1,0.842468945781717,0.859899264687681
"1354",11,33,1,1,154,1,2,0,3,0.589051945235252,0.587421955847899
"1355",11,19,1,1,155,3,2,0,2,0.678027952101579,0.75598397098017
"1356",11,30,1,1,156,2,1,1,4,0.575117902648905,0.535482384457867
"1357",11,31,1,2,157,2,2,1,4,0.420422412948528,0.422549882378451
"1358",11,34,1,2,158,3,2,1,2,0.794558149285233,0.733260132683912
"1359",11,34,1,2,159,1,2,1,5,0.344460689229807,0.375893925172827
"1360",11,38,1,2,160,2,1,0,3,0.823889303916889,0.830738009948147
"1361",11,27,1,2,161,2,2,1,3,0.769224934783457,0.816696542658184
"1362",11,40,1,2,162,2,1,0,2,0.68820474245857,0.677625119951163
"1363",11,30,1,2,163,3,2,1,3,0.550352672058357,0.543792821201438
"1364",11,33,1,2,164,3,2,1,3,0.535694258896204,0.49935696073364
"1365",11,19,1,2,165,3,1,0,2,0.875890842342169,0.872872281158335
"1366",11,30,1,1,166,3,2,0,2,1.40387418863445,1.3914937660529
"1367",11,31,1,2,167,1,2,1,4,0.436911852519118,0.469822881146135
"1368",11,34,1,1,168,3,1,1,2,0.922465496529246,0.848096558653893
"1369",11,34,1,1,169,1,2,0,4,0.581732906742031,0.454858148008608
"1370",11,38,1,2,170,3,2,1,3,1.09578664526861,1.08137929366149
"1371",11,27,1,2,171,3,1,0,1,0.893873825394145,0.899872712634827
"1372",11,40,1,2,172,2,2,1,3,0.703556254555825,0.732049673959415
"1373",11,30,1,1,173,3,1,1,2,0.566019110667544,0.540954148494776
"1374",11,33,1,2,174,2,2,1,4,0.780095744453007,0.861150410861909
"1375",11,19,1,1,175,2,1,1,3,0.802958250516549,0.799561512633988
"1376",11,30,1,1,176,3,1,1,2,0.688200733024622,0.744870878640012
"1377",11,31,1,1,177,3,2,0,2,1.00399927972504,0.928281208705598
"1378",11,34,1,2,178,3,2,1,3,0.908850441147659,0.832706494170911
"1379",11,34,1,1,179,2,1,1,4,0.572340433496391,0.656831461703326
"1380",11,38,1,1,180,2,1,1,4,0.56783129393605,0.472137678806386
"1381",11,27,1,1,181,3,1,1,3,1.00226534280754,0.920003611952413
"1382",11,40,1,1,182,2,2,0,3,0.456416154475814,0.48533586844192
"1383",11,30,1,2,183,1,2,1,4,0.453621548700421,0.387691054454692
"1384",11,33,1,1,184,2,1,1,3,0.563218502847736,0.604233441906542
"1385",11,19,1,1,185,3,1,1,3,0.803784860401707,0.723449525769885
"1386",11,30,1,2,186,2,1,0,3,0.65492753062672,0.777618422484092
"1387",11,31,1,1,187,1,1,1,4,0.417454725396141,0.424038722959946
"1388",11,34,1,2,188,2,2,1,4,0.657763452810828,0.695905619627294
"1389",11,34,1,2,189,2,2,1,3,0.64536696033555,0.722230436608083
"1390",11,38,1,2,190,2,2,1,4,0.668949677156283,0.665841519850046
"1391",11,27,1,2,191,2,2,1,3,0.597199499606785,0.550477653865273
"1392",11,40,1,1,192,3,2,0,2,1.39569431059383,1.44074567287839
"1393",11,30,1,2,193,2,2,1,3,0.514342319009969,0.534400758876797
"1394",11,33,1,2,194,3,1,0,2,1.34631690914778,1.37421279144056
"1395",11,19,1,2,195,1,1,0,3,0.665199114171845,0.636991051164638
"1396",11,30,1,1,196,1,1,1,5,0.271530059253077,0.306360649014731
"1397",11,31,1,1,197,2,1,1,3,0.481374853192102,0.510651918896855
"1398",11,34,1,2,198,1,2,1,5,0.531326159645938,0.544003246215908
"1399",11,34,1,1,199,1,1,1,4,0.393500695770679,0.480303383870667
"1400",11,38,1,1,200,2,2,0,3,0.761620734191289,0.748972611057749
"1401",11,27,1,2,201,3,2,1,2,1.02471813687434,1.03288105212921
"1402",11,40,1,2,202,1,2,1,5,0.599984986994288,0.576139281039932
"1403",11,30,1,1,203,3,2,0,2,0.61113216956082,0.641651755579788
"1404",11,33,1,1,204,1,1,1,4,0.244330029346081,0.250281331854325
"1405",11,19,1,2,205,3,1,0,1,1.7983558153817,1.82479748202824
"1406",11,30,1,2,206,3,2,1,2,0.854915088662999,0.908611142698112
"1407",11,31,1,2,207,1,2,1,5,0.426806497393881,0.426726178479911
"1408",11,34,1,2,208,2,1,0,3,0.525132773377628,0.537973427953785
"1409",11,34,1,2,209,2,2,1,3,0.542014357008649,0.563768485980757
"1410",11,38,1,2,210,2,2,1,3,0.803549431691316,0.763818500061881
"1411",11,27,1,2,211,1,2,1,4,0.453946320308248,0.469111576419388
"1412",11,40,1,2,212,3,2,1,2,0.579517558096073,0.533979390924861
"1413",11,30,1,1,213,3,2,0,1,1.17324126578337,1.17293739517403
"1414",11,33,1,1,214,2,2,0,2,0.737256263473953,0.692959235471154
"1415",11,19,1,1,215,2,2,0,2,0.857865391547467,0.90310495590963
"1416",11,30,1,1,216,1,2,0,4,0.480004418780335,0.506576985293751
"1417",11,31,1,1,217,1,1,1,4,0.345704570590291,0.383762249650619
"1418",11,34,1,1,218,2,2,0,2,0.890128013568116,0.867358923169009
"1419",11,34,1,1,219,3,1,1,3,0.414699125712052,0.383705627180257
"1420",11,38,1,1,220,2,1,1,4,0.554869225570141,0.562317784448968
"1421",11,27,1,1,221,2,2,0,2,0.74476158723775,0.721472259704579
"1422",11,40,1,1,222,3,2,0,2,0.548815450266185,0.514747244791937
"1423",11,30,1,1,223,1,1,1,4,0.452449734459319,0.40782750994731
"1424",11,33,1,1,224,3,2,0,1,1.21069576814369,1.2704244199237
"1425",11,19,1,2,225,3,1,0,1,1.69647922046667,1.6642458375457
"1426",11,30,1,2,226,1,2,1,4,0.517993329216739,0.534410658493856
"1427",11,31,1,1,227,3,1,1,2,1.06123699092195,1.10753887541595
"1428",11,34,1,2,228,1,2,1,4,0.331358940511521,0.41850397511833
"1429",11,34,1,1,229,1,1,1,4,0.292557227573935,0.37713255846297
"1430",11,38,1,2,230,3,2,1,2,0.89541745768258,0.923412851219852
"1431",11,27,1,1,231,3,1,1,3,0.885637753042561,0.892512167365226
"1432",11,40,1,2,232,3,2,1,2,0.622546798329405,0.56092945008245
"1433",11,30,1,1,233,1,1,1,5,0.30309983765364,0.269896673694225
"1434",11,33,1,1,234,3,1,1,3,0.396724685400103,0.356911253255079
"1435",11,19,1,2,235,1,2,1,5,0.325057858846351,0.44867505110594
"1436",11,30,1,2,236,1,2,1,4,0.436586706347761,0.416991798694265
"1437",11,31,1,1,237,2,1,1,3,0.583725218461444,0.657079966487754
"1438",11,34,1,2,238,1,2,1,5,0.310681768233368,0.319234129101678
"1439",11,34,1,1,239,1,1,1,4,0.452516339757073,0.378906935381109
"1440",11,38,1,1,240,3,1,1,2,0.622463246241977,0.61165418682325
"1441",10,23,2,2,1,2,1,0,2,0.607614943256334,0.644375420617055
"1442",10,36,2,1,2,3,2,0,1,0.709003690648685,0.709635834402646
"1443",10,38,2,2,3,2,2,1,4,0.623201343356036,0.659813796203654
"1444",10,25,2,2,4,1,1,0,3,0.688075932617567,0.65884212399094
"1445",10,20,2,1,5,2,1,1,4,0.729647977614218,0.690004498951564
"1446",10,40,2,1,6,1,1,1,5,0.409868386653865,0.42840863431723
"1447",10,23,2,2,7,3,1,0,2,0.731638088206367,0.842601544972388
"1448",10,20,2,2,8,1,1,0,4,0.443952475990547,0.492088502676117
"1449",10,40,2,2,9,3,1,0,1,1.34663842111463,1.30998525476369
"1450",10,23,2,2,10,1,1,0,4,0.569362745180381,0.62759366203244
"1451",10,23,2,1,11,1,1,1,5,0.346703072254113,0.315573030249009
"1452",10,36,2,1,12,2,2,0,2,0.742877026058049,0.770711772831353
"1453",10,38,2,2,13,3,1,0,1,0.99696099209907,1.03169175693058
"1454",10,25,2,2,14,2,2,1,3,0.6421189212578,0.747216445777587
"1455",10,20,2,1,15,2,2,0,3,0.840221102554756,0.841043305794056
"1456",10,40,2,1,16,2,1,1,4,0.591093908532666,0.657109384108507
"1457",10,23,2,1,17,1,1,1,4,0.611222703128785,0.647788602028269
"1458",10,20,2,2,18,1,2,1,5,0.481894354998255,0.496174255862047
"1459",10,40,2,1,19,1,1,1,4,0.387171006440054,0.344103568957187
"1460",10,23,2,1,20,1,2,0,4,0.626453324415254,0.58210778951464
"1461",10,23,2,2,21,3,2,1,3,0.327720792917462,0.357158098826698
"1462",10,36,2,1,22,1,1,1,5,0.455750739300231,0.464471521984688
"1463",10,38,2,2,23,1,2,1,4,0.40837268237081,0.449921589099822
"1464",10,25,2,2,24,3,2,1,2,0.574115282410826,0.556022920851687
"1465",10,20,2,1,25,2,2,0,3,1.01032221861057,1.03176969487761
"1466",10,40,2,1,26,2,1,1,4,0.664281647685352,0.539796876446213
"1467",10,23,2,1,27,3,2,0,2,0.363580392302839,0.270201450971137
"1468",10,20,2,1,28,1,1,1,5,0.5618533313372,0.423211857021066
"1469",10,40,2,1,29,2,2,0,2,0.738129859752472,0.657586676142396
"1470",10,23,2,1,30,2,1,1,3,0.764468335022627,0.777838736497393
"1471",10,23,2,1,31,1,1,1,5,0.357697176473411,0.372386335732105
"1472",10,36,2,2,32,1,1,0,4,0.610569746428827,0.686348969772736
"1473",10,38,2,1,33,1,1,1,4,0.325982420781719,0.33984348203935
"1474",10,25,2,1,34,1,1,1,5,0.404291361346831,0.427859103047825
"1475",10,20,2,2,35,1,2,1,5,0.400538388932855,0.456826677966525
"1476",10,40,2,2,36,2,2,1,4,0.345243242612696,0.413131330475029
"1477",10,23,2,1,37,1,1,1,4,0.400560349209375,0.409012960906922
"1478",10,20,2,2,38,3,1,0,1,1.14269255315762,1.08251767446616
"1479",10,40,2,1,39,1,1,1,4,0.349436275585413,0.322323975377082
"1480",10,23,2,1,40,1,1,1,5,0.323634222219537,0.313288372251119
"1481",10,23,2,1,41,1,2,0,4,0.476460698878079,0.459177060882036
"1482",10,36,2,2,42,3,2,1,3,0.500213940072176,0.520388961493181
"1483",10,38,2,1,43,2,2,0,2,0.685351504397382,0.621800431761258
"1484",10,25,2,2,44,1,1,0,4,0.59257261646032,0.655364188796022
"1485",10,20,2,2,45,3,1,0,1,0.597877238812866,0.627110922774536
"1486",10,40,2,2,46,3,2,1,2,0.908052728715827,0.952619309709671
"1487",10,23,2,1,47,3,2,0,1,0.644122677805534,0.608514708235757
"1488",10,20,2,2,48,3,1,0,1,0.334055672302499,0.38838830705153
"1489",10,40,2,1,49,3,1,1,2,0.624890659883099,0.645025065338988
"1490",10,23,2,2,50,2,1,0,2,0.5569056333427,0.564253922055831
"1491",10,23,2,2,51,3,2,1,2,0.911362285473987,0.931403252712165
"1492",10,36,2,1,52,2,1,1,4,0.596018526828819,0.510733626176995
"1493",10,38,2,2,53,2,1,0,2,0.883815310224645,0.892360743327089
"1494",10,25,2,2,54,1,2,1,5,0.335169347723035,0.361428291904552
"1495",10,20,2,2,55,2,2,1,4,0.704454726677762,0.702559141166974
"1496",10,40,2,1,56,2,2,0,3,0.69476067347048,0.793781311825982
"1497",10,23,2,1,57,1,1,1,5,0.445639596815912,0.453179564534058
"1498",10,20,2,1,58,2,1,1,4,0.749589630923082,0.79779911840147
"1499",10,40,2,1,59,3,2,0,1,0.568534597792706,0.586682876088424
"1500",10,23,2,1,60,3,2,0,2,0.641264271818936,0.671123868818484
"1501",10,23,2,1,61,1,1,1,4,0.312065459971303,0.32894963394767
"1502",10,36,2,2,62,3,1,0,2,1.60844131414771,1.63201771027594
"1503",10,38,2,1,63,2,2,0,3,0.805195829746215,0.803291825510788
"1504",10,25,2,2,64,2,1,0,3,0.612223246565237,0.605593431087221
"1505",10,20,2,2,65,3,2,1,2,0.678516496449543,0.623197134932529
"1506",10,40,2,2,66,2,2,1,3,0.63499179334671,0.715821291636375
"1507",10,23,2,2,67,2,2,1,4,0.555285806719682,0.568554839469464
"1508",10,20,2,1,68,3,2,0,1,1.27402864305213,1.19883693228489
"1509",10,40,2,1,69,3,1,1,2,0.219311959765489,0.116359458543236
"1510",10,23,2,1,70,1,1,1,4,0.33580444498102,0.383299922017017
"1511",10,23,2,2,71,1,2,1,5,0.471202742586779,0.45225452342946
"1512",10,36,2,1,72,3,1,1,3,1.03017111371023,1.01562702033324
"1513",10,38,2,2,73,2,1,0,3,0.703835674275394,0.695275854690947
"1514",10,25,2,2,74,2,2,1,3,0.516324508713217,0.522421204740443
"1515",10,20,2,1,75,1,1,1,4,0.447349020433378,0.429246448035979
"1516",10,40,2,1,76,2,2,0,3,0.492185067467804,0.48364761822765
"1517",10,23,2,2,77,1,2,1,5,0.383958644207931,0.330026782292318
"1518",10,20,2,2,78,1,1,0,3,0.587853922597692,0.592629501816962
"1519",10,40,2,1,79,3,2,0,2,0.946251901562454,0.990827687760673
"1520",10,23,2,1,80,2,2,0,2,0.749904644150338,0.745266810733329
"1521",10,23,2,1,81,2,2,0,3,0.485144360170986,0.433188776277427
"1522",10,36,2,2,82,2,2,1,4,0.484459508000181,0.544343016548334
"1523",10,38,2,2,83,3,2,1,3,0.781701098376676,0.730229915093164
"1524",10,25,2,2,84,2,2,1,4,0.740147085658572,0.799642476910665
"1525",10,20,2,1,85,3,2,0,2,1.91458042542412,1.88383752939241
"1526",10,40,2,2,86,2,1,0,2,0.553737935501264,0.584202883383792
"1527",10,23,2,2,87,2,1,0,3,0.547247347281847,0.586262046950519
"1528",10,20,2,1,88,1,1,1,4,0.317610208864168,0.261788269932247
"1529",10,40,2,1,89,2,1,1,3,0.540301588936584,0.482670425209992
"1530",10,23,2,1,90,1,1,1,4,0.390166084604744,0.423199014623739
"1531",10,23,2,1,91,1,1,1,4,0.466199135535203,0.419893301595428
"1532",10,36,2,2,92,1,2,1,5,0.409720009364351,0.327022359191241
"1533",10,38,2,1,93,1,1,1,5,0.336501536787141,0.345849709971051
"1534",10,25,2,1,94,3,2,0,2,0.457969688319137,0.385125138403805
"1535",10,20,2,1,95,1,1,1,4,0.412032398502611,0.409943616797558
"1536",10,40,2,1,96,1,2,0,3,0.666323491077492,0.692660039898015
"1537",10,23,2,2,97,2,1,0,3,0.795658023202606,0.818287982570988
"1538",10,20,2,1,98,3,1,1,3,0.608571705140329,0.686026584830149
"1539",10,40,2,1,99,1,1,1,4,0.473768287161419,0.466086563892372
"1540",10,23,2,2,100,1,2,1,5,0.479980401471415,0.505041129580571
"1541",10,23,2,2,101,1,2,1,5,0.439443077138936,0.416286306917378
"1542",10,36,2,2,102,1,2,1,4,0.424194149764179,0.498701457671717
"1543",10,38,2,2,103,1,1,0,4,0.436428708391534,0.360546020734426
"1544",10,25,2,1,104,1,1,1,5,0.418444746114172,0.372403199056792
"1545",10,20,2,1,105,1,1,1,5,0.293013754525174,0.30339745450116
"1546",10,40,2,1,106,1,1,1,5,0.582502902193565,0.657357256197998
"1547",10,23,2,1,107,2,1,1,4,0.534374711870443,0.557470441352825
"1548",10,20,2,2,108,1,2,1,5,0.336064367008089,0.359906835597783
"1549",10,40,2,1,109,3,2,0,1,1.29100895091868,1.23321891750019
"1550",10,23,2,1,110,2,1,1,3,0.725975080822472,0.753190400665631
"1551",10,23,2,2,111,2,1,0,3,0.576441647706063,0.603919585998974
"1552",10,36,2,1,112,3,1,1,3,1.2973702667461,1.24971896402346
"1553",10,38,2,2,113,3,2,1,2,0.832990021941063,0.91028851046002
"1554",10,25,2,1,114,2,2,0,2,0.542661475890517,0.535634878942645
"1555",10,20,2,1,115,3,2,0,1,1.35553840206915,1.36191455114773
"1556",10,40,2,2,116,3,1,0,1,1.29315232255548,1.328906348537
"1557",10,23,2,2,117,2,1,0,2,0.193095073540954,0.191327680134729
"1558",10,20,2,1,118,3,1,1,3,0.602234453232209,0.624800206210683
"1559",10,40,2,2,119,3,2,1,3,0.222090870059849,0.175869763500009
"1560",10,23,2,2,120,1,2,1,4,0.362065425061623,0.314093094559383
"1561",10,23,2,1,121,1,1,1,5,0.338201041764599,0.394323153445564
"1562",10,36,2,2,122,2,2,1,4,0.670427646172276,0.725042157831882
"1563",10,38,2,2,123,2,1,0,3,1.02164257708029,0.968585509052707
"1564",10,25,2,2,124,2,2,1,3,0.527589524118988,0.532116941515563
"1565",10,20,2,2,125,3,2,1,2,0.690219811365698,0.806042705197932
"1566",10,40,2,1,126,1,1,1,5,0.489730403781178,0.536068674113533
"1567",10,23,2,1,127,3,1,1,3,0.742156817525633,0.724192184367136
"1568",10,20,2,1,128,3,2,0,2,1.11807141092035,1.01007532541807
"1569",10,40,2,1,129,2,2,0,3,0.635707108165646,0.501851898369953
"1570",10,23,2,2,130,1,2,1,5,0.380205430497236,0.369836880311648
"1571",10,23,2,1,131,1,1,1,4,0.331750810185399,0.368717560878806
"1572",10,36,2,1,132,2,1,1,3,0.568641322080733,0.521722102240533
"1573",10,38,2,2,133,3,1,0,1,0.834445640282511,0.793514949735925
"1574",10,25,2,2,134,2,1,0,3,0.517211452139499,0.607853116543782
"1575",10,20,2,2,135,1,2,1,5,0.472808880258042,0.454603092903595
"1576",10,40,2,2,136,3,2,1,2,0.722992831602636,0.781235429565298
