"","subj_no","age","group","stim","trial","difficulty","resp","corr","conf","RT_day1","RT_day2"
"1",17,37,1,1,1,2,1,1,4,0.886095270702589,0.882411317473846
"2",17,30,1,1,2,2,1,1,4,0.465129016106487,0.417891187062543
"3",17,39,1,1,3,2,2,0,2,0.726624565665347,0.762866306568498
"4",17,21,1,1,4,3,2,0,2,0.631617954937451,0.694367427984579
"5",17,33,1,2,5,1,2,1,4,0.451487438325242,0.431168479006737
"6",17,20,1,1,6,1,1,1,5,0.380127304950464,0.382479948440928
"7",17,22,1,1,7,2,1,1,3,0.620464392508267,0.552225576670987
"8",17,20,1,2,8,2,1,0,2,0.773118519370476,0.787596684896618
"9",17,25,1,2,9,2,2,1,3,0.563519400317249,0.596057803311838
"10",17,31,1,2,10,1,1,0,4,0.457482587826066,0.51621980994654
"11",17,37,1,2,11,1,2,1,4,0.386693448928123,0.444299119389028
"12",17,30,1,2,12,3,1,0,2,1.15952919503828,1.26537750885902
"13",17,39,1,2,13,3,2,1,2,0.746567942145692,0.736633712514956
"14",17,21,1,2,14,2,1,0,3,0.777151895136143,0.845550322723462
"15",17,33,1,2,15,3,1,0,1,0.628586718915319,0.621014006583248
"16",17,20,1,1,16,1,1,1,5,0.393470020273109,0.401674993625056
"17",17,22,1,1,17,3,1,1,2,0.356810017087633,0.462018081133906
"18",17,20,1,2,18,3,1,0,2,0.483327830639245,0.298270658664283
"19",17,25,1,1,19,3,1,1,3,0.986396126473356,0.93539698307853
"20",17,31,1,1,20,3,1,1,3,0.594807363956789,0.571639773176197
"21",17,37,1,1,21,2,1,1,4,0.689736754692579,0.662411977198862
"22",17,30,1,2,22,2,2,1,4,0.498931304184352,0.401919863623363
"23",17,39,1,1,23,3,1,1,2,1.06632022651903,1.05407960341126
"24",17,21,1,2,24,3,2,1,3,0.871758160352543,0.882051302941197
"25",17,33,1,2,25,3,1,0,1,1.08838135782835,1.12835422509841
"26",17,20,1,1,26,2,2,0,2,0.618205254448094,0.562916078980476
"27",17,22,1,2,27,2,2,1,3,0.579838857458442,0.618201447831218
"28",17,20,1,2,28,1,1,0,3,0.345609059249305,0.332364777154085
"29",17,25,1,2,29,3,1,0,2,0.883767658603514,0.833395905021437
"30",17,31,1,2,30,1,2,1,5,0.46504308836244,0.470553636130393
"31",17,37,1,2,31,1,2,1,5,0.320029810114188,0.310908022111009
"32",17,30,1,2,32,1,2,1,4,0.338092716401789,0.278076791487253
"33",17,39,1,1,33,2,1,1,4,0.706580015696609,0.677986073688656
"34",17,21,1,1,34,2,1,1,3,0.545218306290007,0.513575269539927
"35",17,33,1,2,35,2,2,1,4,0.544397251367513,0.453935397846642
"36",17,20,1,1,36,2,2,0,2,0.582214144533377,0.530847545287057
"37",17,22,1,2,37,1,2,1,5,0.295729229316978,0.311857844934358
"38",17,20,1,2,38,1,2,1,4,0.41568025394808,0.439225117041296
"39",17,25,1,1,39,2,2,0,3,0.603761532337038,0.600890813988725
"40",17,31,1,2,40,2,1,0,2,0.457740827172808,0.481016461563137
"41",17,37,1,2,41,3,2,1,2,1.23229619638866,1.21635455313297
"42",17,30,1,2,42,1,2,1,5,0.335721448170347,0.325307750319951
"43",17,39,1,1,43,3,1,1,2,0.825680253585004,0.790704965849124
"44",17,21,1,1,44,1,1,1,5,0.244172509346108,0.188530335704003
"45",17,33,1,2,45,3,2,1,3,0.67901793218221,0.60619244589722
"46",17,20,1,2,46,3,2,1,3,0.838136243620384,0.856290028703158
"47",17,22,1,1,47,1,2,0,4,0.372490443662397,0.371461186954349
"48",17,20,1,2,48,2,1,0,3,0.777421365935441,0.769526507401488
"49",17,25,1,1,49,3,1,1,3,0.470763713506456,0.458498551472065
"50",17,31,1,2,50,3,1,0,2,0.78243032590679,0.70939815328977
"51",17,37,1,2,51,1,2,1,4,0.35794435088179,0.271971564896745
"52",17,30,1,2,52,2,2,1,3,0.575977147878135,0.525486854566222
"53",17,39,1,2,53,3,2,1,3,0.967978763588,0.977285630179076
"54",17,21,1,1,54,3,2,0,1,0.868021275560344,0.865797698697962
"55",17,33,1,1,55,3,1,1,3,0.676066818534179,0.657020555566682
"56",17,20,1,2,56,1,2,1,5,0.178446062841931,0.127746437482021
"57",17,22,1,1,57,1,1,1,5,0.4039250896163,0.399412974291288
"58",17,20,1,2,58,2,1,0,2,0.874029081896628,0.860958296753172
"59",17,25,1,1,59,2,2,0,2,0.557232618988148,0.563449258803276
"60",17,31,1,1,60,1,2,0,3,0.560681981391746,0.657224567731051
"61",17,37,1,1,61,3,1,1,2,1.0150367979747,1.01419852452423
"62",17,30,1,2,62,1,2,1,5,0.329719517057887,0.357320377024244
"63",17,39,1,2,63,2,2,1,3,0.679466139626006,0.70650854140436
"64",17,21,1,2,64,2,2,1,3,0.75501479191848,0.6742452807995
"65",17,33,1,1,65,1,1,1,5,0.449976845022069,0.40745662756508
"66",17,20,1,1,66,1,2,0,3,0.39796176177661,0.405932198319502
"67",17,22,1,1,67,2,2,0,2,0.679220426910925,0.71853025727487
"68",17,20,1,1,68,2,1,1,3,0.776357172942892,0.687184449967858
"69",17,25,1,2,69,2,1,0,3,0.637932955067777,0.598333919382249
"70",17,31,1,2,70,3,1,0,2,0.305593194312483,0.26593246933592
"71",17,37,1,2,71,2,1,0,3,0.806706787907415,0.831281716245315
"72",17,30,1,1,72,1,1,1,4,0.499076229058365,0.559007240907958
"73",17,39,1,1,73,1,1,1,4,0.280378357528483,0.279122343862283
"74",17,21,1,2,74,2,1,0,2,0.628865483636208,0.696419854140837
"75",17,33,1,1,75,3,1,1,2,0.939363241175775,0.875218994748892
"76",17,20,1,1,76,3,1,1,3,0.961179596609684,0.959341919987226
"77",17,22,1,1,77,2,1,1,3,0.544481458983994,0.506929072421167
"78",17,20,1,2,78,2,1,0,2,0.662670811757518,0.709363245290687
"79",17,25,1,2,79,3,2,1,2,0.614109365573837,0.552954490341715
"80",17,31,1,1,80,1,2,0,4,0.602812893366479,0.586048246088414
"81",17,37,1,2,81,3,2,1,2,1.03565660887807,1.01931464359527
"82",17,30,1,2,82,2,1,0,3,1.00174048516389,0.952543723388404
"83",17,39,1,2,83,1,1,0,4,0.606443951951165,0.646169695029497
"84",17,21,1,1,84,1,1,1,4,0.319646958565444,0.320003883381725
"85",17,33,1,2,85,1,2,1,5,0.441011132137483,0.426889889931395
"86",17,20,1,2,86,3,2,1,2,1.20404263899614,1.23400285260052
"87",17,22,1,2,87,3,2,1,2,0.665618370199776,0.62401473063229
"88",17,20,1,2,88,3,1,0,1,0.822243384643862,0.798976612096975
"89",17,25,1,1,89,2,2,0,2,0.650509472604797,0.586290116804257
"90",17,31,1,2,90,2,2,1,3,0.536088676454014,0.521335710922067
"91",17,37,1,1,91,1,1,1,4,0.44105564620883,0.403042719351207
"92",17,30,1,2,92,1,1,0,4,0.631178990130572,0.567499146454986
"93",17,39,1,1,93,2,1,1,4,0.452668086574024,0.553575828496396
"94",17,21,1,1,94,1,1,1,4,0.455432757709037,0.429382323392953
"95",17,33,1,2,95,3,1,0,2,1.45340408151634,1.50575033150355
"96",17,20,1,2,96,2,1,0,3,0.729636771515807,0.779031523636798
"97",17,22,1,2,97,2,2,1,3,0.680341656758213,0.721493594382648
"98",17,20,1,1,98,3,1,1,2,0.652646863332561,0.730565529196235
"99",17,25,1,1,99,1,1,1,5,0.437630992696934,0.397059421462665
"100",17,31,1,1,100,2,2,0,2,0.662135729339072,0.620694662075001
"101",17,37,1,2,101,1,2,1,5,0.289847485093959,0.315013679042392
"102",17,30,1,2,102,1,1,0,4,0.615159160487593,0.588377507744722
"103",17,39,1,1,103,1,1,1,4,0.36258248405853,0.312261292960628
"104",17,21,1,2,104,2,1,0,3,0.733138409913243,0.69190685920051
"105",17,33,1,2,105,1,2,1,4,0.448974352368828,0.374646771772068
"106",17,20,1,1,106,3,2,0,2,1.3031235281121,1.32534715937305
"107",17,22,1,2,107,1,2,1,5,0.418639260555681,0.432436086249885
"108",17,20,1,1,108,3,1,1,2,0.654516856476989,0.587418612336212
"109",17,25,1,1,109,3,2,0,2,0.758377467688176,0.772376719469337
"110",17,31,1,1,110,2,2,0,2,0.882228568590927,0.854377375706835
"111",17,37,1,1,111,2,2,0,3,0.771402641562407,0.806942735768965
"112",17,30,1,1,112,3,2,0,1,0.601800910185075,0.525995703522496
"113",17,39,1,1,113,2,2,0,3,0.777640194374839,0.754118362795386
"114",17,21,1,1,114,1,1,1,4,0.448946022530504,0.452134409333373
"115",17,33,1,2,115,3,1,0,1,0.680229344870412,0.633628446334267
"116",17,20,1,1,116,2,1,1,4,0.684604291630598,0.571739186029922
"117",17,22,1,2,117,3,1,0,2,1.14559481687898,1.26371496172148
"118",17,20,1,1,118,1,1,1,5,0.388624964632776,0.445804019084257
"119",17,25,1,2,119,2,1,0,2,0.849776672241963,0.813636837654217
"120",17,31,1,1,120,2,1,1,4,0.362046952459778,0.485680297925949
"121",17,37,1,1,121,2,1,1,4,0.682606015389001,0.639485194139363
"122",17,30,1,2,122,3,1,0,1,1.34622375473836,1.38172611202875
"123",17,39,1,2,123,1,2,1,5,0.465209387417304,0.386290571055379
"124",17,21,1,2,124,2,2,1,4,0.461994650117339,0.34593982028939
"125",17,33,1,1,125,2,1,1,3,0.371515263962131,0.364522889511545
"126",17,20,1,1,126,3,1,1,2,0.790441996719225,0.782711605768847
"127",17,22,1,1,127,3,2,0,2,0.67271263686025,0.595654217108505
"128",17,20,1,2,128,2,1,0,3,1.0367226313292,1.05201488683191
"129",17,25,1,1,129,1,1,1,5,0.556839240389413,0.58168114810953
"130",17,31,1,2,130,2,2,1,3,0.600944557328888,0.674467713768691
"131",17,37,1,1,131,2,1,1,3,0.699547259285781,0.75978182571526
"132",17,30,1,2,132,3,2,1,3,1.02663618376143,1.00187215288458
"133",17,39,1,2,133,1,2,1,4,0.265080824701403,0.272011666706483
"134",17,21,1,2,134,1,2,1,5,0.343434930243373,0.345192784414948
"135",17,33,1,1,135,3,2,0,2,1.02816554026009,1.04601858174888
"136",17,20,1,1,136,3,2,0,1,1.78455159769027,1.76327541759793
"137",17,22,1,1,137,3,2,0,1,0.310221481954864,0.274556945202673
"138",17,20,1,1,138,1,2,0,3,0.442956512933906,0.323371512408454
"139",17,25,1,1,139,3,1,1,2,0.629081653225939,0.593057147702691
"140",17,31,1,1,140,3,2,0,2,0.630001310874953,0.63876120093802
"141",17,37,1,2,141,1,2,1,4,0.333704459614199,0.438381148081849
"142",17,30,1,2,142,3,2,1,2,0.761970834621062,0.760468719851527
"143",17,39,1,2,143,2,2,1,3,0.584323672644154,0.593952247203061
"144",17,21,1,2,144,3,2,1,3,0.805440119411071,0.805599381707272
"145",17,33,1,2,145,3,1,0,2,1.16505388913099,1.08901580037005
"146",17,20,1,1,146,2,2,0,2,0.57799092812052,0.563122554652512
"147",17,22,1,1,147,2,2,0,3,0.838633146644324,0.768951912508544
"148",17,20,1,2,148,3,1,0,1,0.547833554415622,0.528719512726714
"149",17,25,1,2,149,1,1,0,4,0.605688643533365,0.519542804061751
"150",17,31,1,2,150,3,1,0,1,0.718889615387956,0.714439966271421
"151",17,37,1,2,151,3,1,0,2,1.2598101242676,1.21409544887043
"152",17,30,1,1,152,3,2,0,2,0.285898493347324,0.310293031331984
"153",17,39,1,1,153,1,1,1,4,0.508290450614936,0.491738145576284
"154",17,21,1,1,154,2,1,1,4,0.542061402907872,0.487810756256844
"155",17,33,1,2,155,2,2,1,4,0.532542417090339,0.532006297755777
"156",17,20,1,1,156,1,1,1,4,0.363586256470991,0.393878551191754
"157",17,22,1,2,157,2,1,0,3,0.563353052803874,0.531310121352873
"158",17,20,1,1,158,3,1,1,3,0.791848609770276,0.694486938814954
"159",17,25,1,1,159,2,2,0,2,0.611443740718078,0.612873096254255
"160",17,31,1,2,160,3,1,0,2,0.48914734918504,0.550586749390193
"161",17,37,1,2,161,2,2,1,3,0.745842009868564,0.780252266686959
"162",17,30,1,1,162,3,1,1,3,1.25222718256066,1.22991424870775
"163",17,39,1,2,163,1,2,1,5,0.46425910319742,0.545198109258726
"164",17,21,1,1,164,1,1,1,4,0.631166726234641,0.705302387545012
"165",17,33,1,1,165,1,1,1,5,0.373548391834532,0.438916639245071
"166",17,20,1,2,166,1,2,1,5,0.447993849415968,0.488886195185567
"167",17,22,1,1,167,1,1,1,4,0.341404701865453,0.345163806449744
"168",17,20,1,1,168,1,1,1,5,0.474770063313332,0.503065907308755
"169",17,25,1,2,169,3,1,0,1,0.903608059299807,0.957274185714662
"170",17,31,1,1,170,1,1,1,5,0.4609131452937,0.385756570951752
"171",17,37,1,1,171,3,2,0,1,0.892222512384508,0.974196059543439
"172",17,30,1,2,172,2,2,1,4,0.509442169090814,0.577821181627868
"173",17,39,1,2,173,3,2,1,2,0.920847223015964,0.954012712947081
"174",17,21,1,2,174,1,1,0,4,0.477543642939878,0.462484264702419
"175",17,33,1,2,175,1,2,1,4,0.388880392105253,0.402426517462934
"176",17,20,1,2,176,3,1,0,1,1.49086810491924,1.55498205275246
"177",17,22,1,1,177,2,2,0,2,0.658191905345815,0.728407426763675
"178",17,20,1,2,178,2,2,1,3,0.78618927134936,0.832853903953817
"179",17,25,1,1,179,3,2,0,1,0.713530964128466,0.792004362111929
"180",17,31,1,1,180,2,1,1,4,0.564920955087982,0.56136344231077
"181",17,37,1,2,181,3,1,0,1,1.14585400622008,1.22832013269127
"182",17,30,1,1,182,1,2,0,3,0.485671381138098,0.501494377086639
"183",17,39,1,1,183,3,2,0,2,0.712629227196372,0.671356813568495
"184",17,21,1,1,184,3,1,1,3,0.977578613821567,0.950011235149858
"185",17,33,1,2,185,2,2,1,3,0.475604570604455,0.445334054919837
"186",17,20,1,2,186,1,1,0,4,0.624477483787638,0.61172811889103
"187",17,22,1,1,187,2,1,1,3,0.255847609295889,0.215517342508094
"188",17,20,1,2,188,1,1,0,3,0.488875953899023,0.421741185872924
"189",17,25,1,2,189,1,2,1,4,0.380166353806923,0.393937728750575
"190",17,31,1,1,190,1,1,1,4,0.442060824265381,0.416977547497187
"191",17,37,1,2,191,3,2,1,2,0.888118563617223,0.906737305438683
"192",17,30,1,1,192,3,2,0,1,1.46245412364671,1.47784938629037
"193",17,39,1,2,193,2,1,0,2,0.76973689023438,0.817993614747721
"194",17,21,1,2,194,3,1,0,1,0.73276754894037,0.755752305012746
"195",17,33,1,1,195,3,1,1,2,0.589123412587202,0.613020093287448
"196",17,20,1,2,196,3,1,0,1,0.490466337734729,0.478576134901515
"197",17,22,1,1,197,2,1,1,3,0.605841699389878,0.630185465577568
"198",17,20,1,1,198,3,1,1,3,0.970348526873618,0.959061682811226
"199",17,25,1,2,199,1,2,1,4,0.370789663885201,0.359443281511976
"200",17,31,1,2,200,2,2,1,4,0.65216811767046,0.675550160449987
"201",17,37,1,1,201,1,1,1,5,0.345591109182826,0.354774223412465
"202",17,30,1,1,202,1,2,0,3,0.59028716371771,0.647596921920042
"203",17,39,1,1,203,2,2,0,2,0.832177663121298,0.877837491866057
"204",17,21,1,2,204,2,2,1,4,0.608205792549989,0.583993082764521
"205",17,33,1,1,205,3,1,1,3,0.737768569911005,0.670597311116065
"206",17,20,1,2,206,3,2,1,3,0.895580122355381,0.84051187526498
"207",17,22,1,2,207,1,2,1,4,0.557776693543329,0.589240735094289
"208",17,20,1,1,208,1,1,1,4,0.395064456948477,0.416916843078428
"209",17,25,1,1,209,2,2,0,2,0.796370493318457,0.763636782698948
"210",17,31,1,1,210,2,2,0,3,0.955819857583194,0.994514105047495
"211",17,37,1,2,211,3,1,0,1,0.505194394955901,0.484066253790181
"212",17,30,1,2,212,3,1,0,1,1.285507139486,1.30631600193481
"213",17,39,1,2,213,1,1,0,3,0.446679605202584,0.569679466562621
"214",17,21,1,1,214,3,1,1,3,0.977715282482795,0.983435213728032
"215",17,33,1,1,215,3,1,1,3,0.618202259872045,0.612427129112562
"216",17,20,1,1,216,2,1,1,4,0.577645157654629,0.571954780917617
"217",17,22,1,2,217,1,2,1,5,0.400861059972731,0.425021490908638
"218",17,20,1,1,218,3,1,1,2,0.760602328025268,0.734253068002212
"219",17,25,1,1,219,1,2,0,4,0.522440468927163,0.596157959686652
"220",17,31,1,2,220,2,2,1,3,0.569026898448164,0.579169658593835
"221",17,37,1,1,221,1,2,0,3,0.390064047237647,0.417801012189679
"222",17,30,1,2,222,1,2,1,5,0.373866841252917,0.324731892068815
"223",17,39,1,2,223,1,2,1,4,0.358106720743706,0.39264436283428
"224",17,21,1,2,224,2,2,1,4,0.535653838724489,0.560659812379662
"225",17,33,1,2,225,2,1,0,3,0.651918134525889,0.77395446586023
"226",17,20,1,2,226,1,2,1,5,0.458240749819599,0.50285861063162
"227",17,22,1,2,227,3,1,0,1,1.61195287249176,1.68720551746044
"228",17,20,1,1,228,2,1,1,4,0.672448582723093,0.648935579794422
"229",17,25,1,2,229,2,1,0,3,0.169467194151346,0.146753334536654
"230",17,31,1,2,230,1,2,1,5,0.411554877535441,0.480554645095453
"231",17,37,1,1,231,1,1,1,4,0.451309087739514,0.367841758248502
"232",17,30,1,1,232,3,1,1,2,0.709824237996904,0.744677108039115
"233",17,39,1,1,233,1,1,1,5,0.295002098705115,0.363115870934407
"234",17,21,1,1,234,1,1,1,5,0.434029839952006,0.369061002710501
"235",17,33,1,1,235,2,2,0,2,0.501897728445414,0.466195944739053
"236",17,20,1,1,236,1,1,1,4,0.429832112033326,0.376879033106128
"237",17,22,1,1,237,1,1,1,5,0.327206253886356,0.25963784308298
"238",17,20,1,1,238,2,2,0,2,0.685037828591094,0.723079489869031
"239",17,25,1,1,239,2,1,1,3,0.585498821126212,0.536413611382026
"240",17,31,1,1,240,1,1,1,4,0.364914874573991,0.355705053034917
"241",16,23,2,2,1,3,2,1,3,0.571775487489231,0.615912918223546
"242",16,31,2,1,2,3,2,0,2,1.42551744678311,1.34457793058396
"243",16,34,2,2,3,3,1,0,1,1.226817579567,1.20900647047412
"244",16,37,2,2,4,3,1,0,2,1.0997667471299,1.12052535921278
"245",16,26,2,1,5,3,2,0,2,1.0613945223487,1.1702977979995
"246",16,24,2,1,6,2,1,1,3,0.596385055455093,0.575579156625424
"247",16,22,2,2,7,2,1,0,2,0.445823833608925,0.44701484198564
"248",16,40,2,1,8,2,1,1,4,0.505210197307005,0.517090724774143
"249",16,25,2,1,9,2,1,1,3,0.654160794174586,0.581125730053701
"250",16,34,2,2,10,3,1,0,1,1.30540950788014,1.35546255974162
"251",16,23,2,2,11,1,2,1,5,0.383213585280867,0.414029884643334
"252",16,31,2,2,12,3,1,0,2,0.733046366413291,0.735905753891831
"253",16,34,2,2,13,2,2,1,3,0.767090025522118,0.749951445342085
"254",16,37,2,2,14,3,2,1,2,0.96105282186542,0.965835877858286
"255",16,26,2,2,15,1,2,1,5,0.435683343487977,0.392037497326164
"256",16,24,2,2,16,1,2,1,4,0.437192808815089,0.418465845104083
"257",16,22,2,2,17,1,2,1,4,0.404827491521439,0.375427613718292
"258",16,40,2,1,18,2,1,1,4,0.556972824693092,0.551448219773993
"259",16,25,2,1,19,2,2,0,2,0.623379074969989,0.579640155530531
"260",16,34,2,2,20,3,2,1,2,0.721655246370749,0.59081256780566
"261",16,23,2,1,21,3,1,1,2,0.542309795684505,0.607167838132435
"262",16,31,2,1,22,3,1,1,3,0.810435734446952,0.871085734291154
"263",16,34,2,2,23,1,1,0,3,0.503852491332699,0.513729176417373
"264",16,37,2,2,24,2,1,0,2,0.699330517773224,0.714739779912289
"265",16,26,2,1,25,2,2,0,3,0.805459862296424,0.88516433342639
"266",16,24,2,1,26,1,1,1,4,0.459284934878356,0.473107106391437
"267",16,22,2,1,27,1,2,0,3,0.640130323336675,0.684142211678441
"268",16,40,2,1,28,3,1,1,3,0.427638124057225,0.508183315604797
"269",16,25,2,2,29,1,2,1,4,0.444883042875464,0.449112445509177
"270",16,34,2,2,30,2,1,0,2,0.737593094551342,0.701554801939074
"271",16,23,2,2,31,2,2,1,3,0.652343530302887,0.692528176117188
"272",16,31,2,1,32,1,1,1,5,0.334645851711645,0.338950515448546
"273",16,34,2,1,33,1,1,1,4,0.354120530960244,0.424952266336295
"274",16,37,2,2,34,1,1,0,3,0.49903904127409,0.495101683714517
"275",16,26,2,2,35,1,2,1,5,0.450121797361222,0.35479202284055
"276",16,24,2,2,36,3,1,0,2,0.814484217777623,0.820702374828764
"277",16,22,2,1,37,2,2,0,2,0.66739945999663,0.750018244668806
"278",16,40,2,1,38,1,1,1,5,0.498546420444739,0.464239636455483
"279",16,25,2,2,39,3,1,0,2,0.451364369992772,0.473326844018446
"280",16,34,2,2,40,1,2,1,5,0.60817718219166,0.44571454505501
"281",16,23,2,2,41,1,1,0,4,0.49404296768692,0.442176008493802
"282",16,31,2,1,42,3,1,1,3,0.983227653977609,1.02127342205208
"283",16,34,2,1,43,2,1,1,4,0.433094498791652,0.440921837774012
"284",16,37,2,2,44,1,2,1,5,0.358680661143806,0.301554452544688
"285",16,26,2,2,45,3,2,1,2,0.632271152101262,0.632530057884764
"286",16,24,2,1,46,3,2,0,1,1.42075953110119,1.4023318141312
"287",16,22,2,1,47,1,1,1,4,0.390173579081167,0.443250193741917
"288",16,40,2,1,48,2,1,1,4,0.47467114418032,0.554361402074025
"289",16,25,2,1,49,3,2,0,2,1.10942225496127,1.12809170936556
"290",16,34,2,2,50,2,2,1,4,0.462945381293339,0.526831478178831
"291",16,23,2,1,51,1,1,1,4,0.475206276958157,0.516159023839174
"292",16,31,2,2,52,3,2,1,2,1.04619833547253,1.03359773293403
"293",16,34,2,2,53,1,2,1,4,0.433460735128723,0.408506002629023
"294",16,37,2,1,54,3,1,1,3,0.791445101230773,0.705343360822699
"295",16,26,2,2,55,1,1,0,3,0.776119863406876,0.783432547201985
"296",16,24,2,2,56,1,2,1,4,0.32447685164256,0.374408716959648
"297",16,22,2,1,57,1,1,1,4,0.375092163504112,0.410163048728564
"298",16,40,2,2,58,2,2,1,3,0.692273778526611,0.731219639053608
"299",16,25,2,2,59,3,2,1,3,0.791872302223317,0.822981305240645
"300",16,34,2,1,60,1,1,1,4,0.385070524492737,0.425984573924616
"301",16,23,2,2,61,2,2,1,3,0.598006613813432,0.597437894842127
"302",16,31,2,1,62,3,1,1,2,0.871475797232685,0.819806374476199
"303",16,34,2,2,63,3,1,0,2,1.1749021841987,1.1419880929452
"304",16,37,2,1,64,2,1,1,3,0.699190993070674,0.683494367250617
"305",16,26,2,1,65,1,1,1,5,0.432343255672905,0.420532341707221
"306",16,24,2,1,66,3,1,1,2,0.764305098933713,0.855532051146615
"307",16,22,2,2,67,2,1,0,2,0.905049864359047,0.913267803409465
"308",16,40,2,1,68,3,1,1,2,0.766207150484264,0.746274100839746
"309",16,25,2,1,69,2,1,1,4,0.611774643543071,0.565644334811961
"310",16,34,2,2,70,2,1,0,2,0.8529697104136,0.908411238606175
"311",16,23,2,2,71,2,2,1,4,0.678615842369157,0.724664852766667
"312",16,31,2,2,72,3,2,1,3,1.34145926860453,1.32505457803808
"313",16,34,2,1,73,2,2,0,2,0.754081756564491,0.746382725237002
"314",16,37,2,2,74,3,2,1,2,0.728139954610851,0.664773527807958
"315",16,26,2,2,75,1,2,1,5,0.370600938272102,0.313091518279144
"316",16,24,2,1,76,2,2,0,2,0.484531299103236,0.448622815070155
"317",16,22,2,1,77,1,1,1,5,0.429851647389031,0.444708617480328
"318",16,40,2,1,78,2,2,0,2,0.809142069030247,0.885741604746355
"319",16,25,2,2,79,1,2,1,4,0.483958563301356,0.527413613243549
"320",16,34,2,2,80,3,1,0,2,0.740276778415283,0.738477880547362
"321",16,23,2,2,81,1,2,1,5,0.430998870585116,0.463229053587992
"322",16,31,2,2,82,1,2,1,4,0.484403469173573,0.506936963040835
"323",16,34,2,1,83,2,2,0,3,0.544511097713625,0.50308666243227
"324",16,37,2,2,84,2,2,1,4,0.758262062642267,0.732188896185467
"325",16,26,2,1,85,1,1,1,4,0.404528017327112,0.400228557536145
"326",16,24,2,1,86,3,1,1,2,0.758767941965602,0.777456935756211
"327",16,22,2,1,87,1,2,0,4,0.727815023367514,0.770699201691189
"328",16,40,2,1,88,3,1,1,2,0.914812672664397,0.886616581516938
"329",16,25,2,1,89,1,1,1,4,0.468292684188046,0.524417734283958
"330",16,34,2,2,90,1,2,1,4,0.444716649816192,0.521965118912275
"331",16,23,2,1,91,1,1,1,4,0.459483595079655,0.506047728123058
"332",16,31,2,1,92,2,1,1,4,0.698325308241163,0.609379189299574
"333",16,34,2,2,93,2,1,0,3,0.846855318658979,0.883783067336613
"334",16,37,2,2,94,3,2,1,2,0.918925996290041,0.839717900460147
"335",16,26,2,2,95,3,1,0,2,0.88558498710002,0.844080593838908
"336",16,24,2,1,96,2,1,1,3,0.498645340187118,0.42742698834487
"337",16,22,2,2,97,2,2,1,4,0.60754812999192,0.605446708396467
"338",16,40,2,1,98,3,2,0,1,1.20648514609414,1.24865215541915
"339",16,25,2,1,99,3,1,1,3,1.2260902371177,1.20562482751322
"340",16,34,2,1,100,2,1,1,3,0.457826127349963,0.420720549878046
"341",16,23,2,2,101,2,2,1,4,0.425150300148583,0.421955048645644
"342",16,31,2,2,102,3,2,1,3,0.753500606557177,0.658499223152383
"343",16,34,2,1,103,2,2,0,3,0.702256627856924,0.745605917954456
"344",16,37,2,1,104,1,2,0,4,0.647893993510909,0.608803751346239
"345",16,26,2,1,105,1,2,0,4,0.607482462562781,0.573467162417526
"346",16,24,2,2,106,3,1,0,1,1.267798767757,1.34680939847881
"347",16,22,2,1,107,3,1,1,3,0.717402947415567,0.703619154982604
"348",16,40,2,1,108,1,1,1,4,0.358138427956275,0.398463486295048
"349",16,25,2,2,109,3,1,0,1,0.803078609821418,0.884367657088314
"350",16,34,2,1,110,1,1,1,4,0.360697090847192,0.370427815172573
"351",16,23,2,2,111,2,2,1,3,0.660204717834242,0.663878368114772
"352",16,31,2,2,112,2,2,1,4,0.377574884931798,0.31228536002371
"353",16,34,2,2,113,2,1,0,3,0.616426670319106,0.596666565442457
"354",16,37,2,1,114,1,1,1,5,0.489187054500539,0.498574743643422
"355",16,26,2,1,115,3,2,0,2,0.831349550830137,0.934359024029753
"356",16,24,2,1,116,1,1,1,4,0.453649502894803,0.461481901399971
"357",16,22,2,2,117,3,2,1,3,0.575286654485389,0.565696441559764
"358",16,40,2,1,118,2,1,1,3,0.693379346790313,0.679566800728501
"359",16,25,2,2,119,2,2,1,4,0.637012050182595,0.565359144261441
"360",16,34,2,1,120,2,1,1,3,0.618114517696247,0.591081958537769
"361",16,23,2,2,121,1,2,1,5,0.501809492242868,0.447278877708179
"362",16,31,2,2,122,3,1,0,2,1.00851101522057,1.06780310132108
"363",16,34,2,1,123,2,1,1,4,0.521674091589682,0.608541697102508
"364",16,37,2,1,124,3,2,0,1,1.13430480160144,1.11823767293929
"365",16,26,2,2,125,2,2,1,4,0.489233113927372,0.509525176975459
"366",16,24,2,1,126,2,2,0,2,0.53178585772523,0.444622027413929
"367",16,22,2,1,127,1,1,1,5,0.380057403483739,0.275479589686507
"368",16,40,2,1,128,2,2,0,3,0.518770215323218,0.468113377194598
"369",16,25,2,1,129,1,1,1,5,0.223753268051493,0.248494022693402
"370",16,34,2,2,130,3,1,0,2,0.603567441148656,0.577776958631412
"371",16,23,2,1,131,2,1,1,4,0.46598690982852,0.570959202126874
"372",16,31,2,1,132,3,2,0,2,1.15036327377177,1.16219861828972
"373",16,34,2,1,133,3,1,1,2,1.03925229796704,1.08238919969495
"374",16,37,2,1,134,1,2,0,4,0.594501069129587,0.559693654562928
"375",16,26,2,2,135,3,2,1,2,0.614163642673432,0.641507873577918
"376",16,24,2,2,136,2,2,1,4,0.630954779993955,0.684264068306778
"377",16,22,2,2,137,3,1,0,1,1.70967033845855,1.71819733300398
"378",16,40,2,2,138,1,2,1,5,0.28349278899389,0.139100419130156
"379",16,25,2,2,139,1,1,0,3,0.521877923863943,0.539929929763484
"380",16,34,2,2,140,1,2,1,4,0.42830329595067,0.481504149817609
"381",16,23,2,2,141,2,1,0,3,1.00810419951772,1.06503522427357
"382",16,31,2,2,142,3,1,0,1,1.05683122844833,1.08033860756042
"383",16,34,2,2,143,3,1,0,2,1.03276739565707,1.05508524010393
"384",16,37,2,2,144,1,1,0,3,0.565193207719509,0.627568200964884
"385",16,26,2,2,145,3,2,1,3,0.820103762476838,0.793070512692959
"386",16,24,2,2,146,1,2,1,5,0.389763305771167,0.395599128703477
"387",16,22,2,2,147,1,2,1,4,0.319458851746511,0.346361837857608
"388",16,40,2,2,148,2,2,1,3,0.679612396596027,0.698848944266735
"389",16,25,2,2,149,1,2,1,4,0.503289871613373,0.490785742884065
"390",16,34,2,2,150,3,2,1,2,0.816280009195836,0.83904830637983
"391",16,23,2,1,151,2,1,1,4,0.687792037653346,0.676373111573857
"392",16,31,2,1,152,1,2,0,3,0.539561487640943,0.572614341768963
"393",16,34,2,2,153,2,2,1,4,0.63934279803486,0.58315335529607
"394",16,37,2,1,154,3,1,1,3,0.824751597411209,0.838190444673893
"395",16,26,2,2,155,2,1,0,3,0.719570454178777,0.719458614378814
"396",16,24,2,1,156,2,2,0,3,0.773942878500302,0.758865192855887
"397",16,22,2,1,157,1,1,1,5,0.406920186209536,0.466393996895594
"398",16,40,2,2,158,3,1,0,1,1.90922546389849,1.87977563909891
"399",16,25,2,1,159,1,1,1,5,0.421782769054211,0.371945687761522
"400",16,34,2,2,160,2,1,0,3,1.03889704962425,1.01903160128836
"401",16,23,2,1,161,2,1,1,4,0.479045525953806,0.559356750539131
"402",16,31,2,1,162,3,1,1,3,0.851684865625793,0.758464905263095
"403",16,34,2,1,163,1,2,0,4,0.39754383062063,0.351859807485545
"404",16,37,2,1,164,1,1,1,5,0.350134043977637,0.37005054056885
"405",16,26,2,2,165,3,1,0,2,1.01282702732851,0.989073046182582
"406",16,24,2,1,166,3,1,1,3,0.73386462848792,0.765511055692275
"407",16,22,2,1,167,2,2,0,3,0.684742562523779,0.662927489532407
"408",16,40,2,1,168,2,1,1,4,0.652399727462434,0.645354025812734
"409",16,25,2,2,169,3,1,0,1,1.41836545055196,1.45941031035035
"410",16,34,2,1,170,3,2,0,2,1.07122330704148,0.992159688507503
"411",16,23,2,2,171,2,2,1,3,0.654257282137122,0.640384258383203
"412",16,31,2,1,172,1,1,1,5,0.367394361750469,0.358956734489302
"413",16,34,2,2,173,3,1,0,2,0.951255915188255,0.9380588510334
"414",16,37,2,2,174,1,2,1,4,0.498277849313378,0.411633286754662
"415",16,26,2,2,175,2,2,1,4,0.485106465743329,0.449346514019362
"416",16,24,2,2,176,2,2,1,4,0.670731977504047,0.683916452913648
"417",16,22,2,2,177,3,1,0,2,0.527358724936395,0.520080996760853
"418",16,40,2,2,178,1,2,1,5,0.338526015787775,0.406455286991004
"419",16,25,2,1,179,3,1,1,3,0.582485223095156,0.6222141055318
"420",16,34,2,2,180,1,2,1,5,0.397629073876368,0.354385432704601
"421",16,23,2,2,181,1,2,1,4,0.534402306244723,0.451922615592966
"422",16,31,2,1,182,1,2,0,4,0.485009985491732,0.441507969257265
"423",16,34,2,1,183,1,1,1,4,0.395063328948029,0.446679168766984
"424",16,37,2,1,184,2,1,1,4,0.782719192923513,0.776198875182972
"425",16,26,2,1,185,1,1,1,4,0.255947585285277,0.260391811961516
"426",16,24,2,1,186,2,2,0,2,0.763827905852926,0.698209587335705
"427",16,22,2,1,187,2,2,0,3,0.96177766456694,0.994402238220909
"428",16,40,2,2,188,1,1,0,4,0.63206287123504,0.539817231754676
"429",16,25,2,1,189,1,1,1,4,0.395122362848691,0.37493430512591
"430",16,34,2,1,190,1,1,1,5,0.482810719150406,0.548554889722389
"431",16,23,2,1,191,2,2,0,3,0.444294849708819,0.336593518198555
"432",16,31,2,2,192,1,2,1,4,0.591211295481819,0.64721804740502
"433",16,34,2,2,193,2,1,0,3,0.655346252992032,0.698104624436243
"434",16,37,2,1,194,3,2,0,1,0.849995209231931,0.868780516516034
"435",16,26,2,2,195,3,2,1,3,0.710231308720537,0.793122236793556
"436",16,24,2,2,196,3,1,0,1,0.955105158212377,0.877970025397345
"437",16,22,2,1,197,3,2,0,2,0.806098653475367,0.766536125100327
"438",16,40,2,1,198,2,2,0,2,0.764747180774752,0.749699176867389
"439",16,25,2,1,199,2,2,0,2,0.620514241198722,0.662786121474812
"440",16,34,2,2,200,2,1,0,2,0.660941970191526,0.654193427176276
"441",16,23,2,2,201,2,2,1,3,0.516555215941867,0.515849982420287
"442",16,31,2,2,202,3,1,0,2,0.868162245309484,0.832600339427623
"443",16,34,2,1,203,2,1,1,3,0.807316283596983,0.786249626609089
"444",16,37,2,2,204,2,1,0,3,0.822508650618521,0.864056156887058
"445",16,26,2,2,205,3,1,0,2,1.25085204269776,1.23480994107913
"446",16,24,2,2,206,2,1,0,2,0.638773539851572,0.621728216873489
"447",16,22,2,1,207,1,1,1,4,0.463544102119545,0.437718233036981
"448",16,40,2,1,208,1,1,1,5,0.298837693664294,0.368886461688457
"449",16,25,2,1,209,3,1,1,3,1.0265190846744,1.07472473662713
"450",16,34,2,1,210,1,1,1,4,0.383466455099768,0.328319183962725
"451",16,23,2,2,211,1,2,1,4,0.600979707318716,0.644419666358982
"452",16,31,2,1,212,3,2,0,2,0.553787515084616,0.497465641746261
"453",16,34,2,2,213,3,2,1,3,0.968379711540569,0.970777831838731
"454",16,37,2,1,214,1,2,0,4,0.557241907459931,0.63048006053089
"455",16,26,2,1,215,2,1,1,3,0.670346571849597,0.589220878391475
"456",16,24,2,1,216,3,1,1,2,0.642701970791989,0.727102220906216
"457",16,22,2,1,217,2,1,1,3,0.757682044906611,0.805026389006096
"458",16,40,2,2,218,1,2,1,5,0.389684130317722,0.35393207783914
"459",16,25,2,1,219,2,1,1,4,0.639703174778673,0.611810640984404
"460",16,34,2,2,220,2,2,1,4,0.72047224517856,0.691215193236085
"461",16,23,2,1,221,1,1,1,5,0.397902381518028,0.449653790055929
"462",16,31,2,1,222,1,1,1,5,0.356140849426501,0.342967018141355
"463",16,34,2,2,223,2,2,1,3,0.582172107723675,0.5507122361156
"464",16,37,2,1,224,3,1,1,3,0.535591833697537,0.563850149879569
"465",16,26,2,2,225,3,2,1,2,0.62459113319908,0.642043454258657
"466",16,24,2,2,226,3,1,0,2,1.71813967399327,1.64117277654529
"467",16,22,2,1,227,3,2,0,2,1.50642119272891,1.51131305278432
"468",16,40,2,1,228,3,1,1,2,0.647651052047744,0.659895630700563
"469",16,25,2,2,229,2,2,1,3,0.657641068760213,0.665660762647678
"470",16,34,2,2,230,2,2,1,4,0.632771455101681,0.595775961907752
"471",16,23,2,2,231,3,1,0,2,1.38358117370608,1.36513858028809
"472",16,31,2,1,232,1,1,1,5,0.453478436527745,0.561041542701106
"473",16,34,2,2,233,1,2,1,4,0.518797659600891,0.584701438384642
"474",16,37,2,2,234,3,1,0,2,1.01326409911117,0.957218130305576
"475",16,26,2,1,235,3,2,0,2,1.1937407182356,1.24162571422276
"476",16,24,2,1,236,3,2,0,1,1.05670337795575,1.05649230570812
"477",16,22,2,2,237,1,1,0,3,0.419866336722125,0.397704693616136
"478",16,40,2,1,238,1,1,1,5,0.471930544199626,0.456128538788396
"479",16,25,2,2,239,2,1,0,3,0.72342529860203,0.733404183083267
"480",16,34,2,1,240,2,1,1,4,0.641900958000729,0.6364349778015
"481",15,34,1,2,1,2,1,0,2,0.624847029734484,0.59268992863748
"482",15,31,1,1,2,2,1,1,3,0.384542970092436,0.308839469829842
"483",15,25,1,1,3,3,2,0,2,0.955308240036842,0.962654047455321
"484",15,28,1,2,4,1,2,1,4,0.38470014061519,0.413581937269268
"485",15,39,1,2,5,2,1,0,3,0.906828043752625,0.805953979614155
"486",15,32,1,2,6,1,2,1,4,0.461397586712439,0.447971682353053
"487",15,25,1,1,7,1,1,1,4,0.511813233016276,0.576838327506783
"488",15,26,1,1,8,3,2,0,1,0.891683678065202,0.84947195984577
"489",15,18,1,2,9,2,2,1,3,0.556983253130506,0.473117531907904
"490",15,23,1,2,10,2,2,1,4,0.693697714634829,0.697933977432065
"491",15,34,1,1,11,2,1,1,4,0.909239105959382,0.894993306144298
"492",15,31,1,2,12,1,1,0,4,0.571461676897537,0.658381661383728
"493",15,25,1,2,13,1,1,0,4,0.533568835206532,0.508108269690842
"494",15,28,1,2,14,3,1,0,1,1.2299390087579,1.18282159601063
"495",15,39,1,2,15,3,1,0,2,0.615154320095988,0.678193975733758
"496",15,32,1,2,16,1,2,1,4,0.462189173178206,0.422824798920551
"497",15,25,1,1,17,2,2,0,3,0.458915873318793,0.48824226709843
"498",15,26,1,1,18,3,1,1,3,0.451987179496541,0.448690683565762
"499",15,18,1,2,19,1,2,1,5,0.324009921753908,0.34120616650123
"500",15,23,1,2,20,2,1,0,2,0.495868020571645,0.598783097372363
"501",15,34,1,1,21,1,2,0,3,0.534499151287718,0.552148340312707
"502",15,31,1,1,22,1,1,1,5,0.422235025815462,0.486034017374946
"503",15,25,1,2,23,3,1,0,1,0.728756101885601,0.720279096987106
"504",15,28,1,1,24,1,1,1,4,0.502132194248776,0.529860678635943
"505",15,39,1,1,25,3,2,0,2,0.818397513441663,0.865829543929378
"506",15,32,1,2,26,2,2,1,4,0.575986371863941,0.538913094720348
"507",15,25,1,2,27,1,2,1,4,0.311063043877377,0.358329595672093
"508",15,26,1,1,28,3,1,1,3,0.740186949836283,0.792220150569771
"509",15,18,1,2,29,2,2,1,4,0.801940986196282,0.83758097777099
"510",15,23,1,1,30,1,1,1,5,0.485265629222263,0.598248399489761
"511",15,34,1,1,31,1,1,1,4,0.264497551138744,0.315318421821948
"512",15,31,1,1,32,1,1,1,4,0.292226516896807,0.309289353790558
"513",15,25,1,1,33,2,2,0,3,0.599681360713334,0.635355032158446
"514",15,28,1,1,34,3,1,1,2,0.457902145962814,0.387955486622995
"515",15,39,1,2,35,2,2,1,4,0.431532398052566,0.466760465986695
"516",15,32,1,2,36,2,1,0,3,0.76251789828514,0.73217931288685
"517",15,25,1,2,37,3,1,0,2,1.35213699720827,1.38013204457976
"518",15,26,1,2,38,1,2,1,4,0.52018260679378,0.469292228871417
"519",15,18,1,1,39,2,1,1,4,0.56608036803077,0.538502991164621
"520",15,23,1,1,40,2,2,0,3,0.527006787781084,0.531116851324621
"521",15,34,1,1,41,2,2,0,2,1.0070994508407,0.997464529509816
"522",15,31,1,1,42,1,1,1,4,0.386510695312257,0.394469632214098
"523",15,25,1,1,43,2,1,1,3,0.5887120713502,0.583509235761597
"524",15,28,1,1,44,1,1,1,4,0.495035043578132,0.445423559488067
"525",15,39,1,1,45,3,2,0,1,1.39905911295366,1.33243933588077
"526",15,32,1,1,46,1,2,0,4,0.611308993764046,0.614629818917236
"527",15,25,1,2,47,3,1,0,2,0.703773699603792,0.659033274298695
"528",15,26,1,2,48,1,2,1,4,0.362604630423952,0.338667245493198
"529",15,18,1,2,49,2,2,1,4,0.599729129073286,0.564245401335048
"530",15,23,1,1,50,1,1,1,5,0.416691792938286,0.363591814490329
"531",15,34,1,2,51,2,1,0,3,0.569422729602822,0.55045243063136
"532",15,31,1,1,52,3,1,1,2,0.221256793897079,0.150049204467628
"533",15,25,1,2,53,3,1,0,1,1.36985670849528,1.35357997597014
"534",15,28,1,1,54,2,1,1,4,0.771034767923941,0.710794070480783
"535",15,39,1,2,55,2,2,1,3,0.703923221844001,0.738005812518765
"536",15,32,1,2,56,1,2,1,5,0.370297309048556,0.273089604192449
"537",15,25,1,2,57,2,2,1,4,0.517940567557657,0.534538147340621
"538",15,26,1,2,58,3,1,0,1,1.09214959225691,1.11743175829516
"539",15,18,1,2,59,1,2,1,4,0.481172468149433,0.485209549933531
"540",15,23,1,2,60,1,2,1,4,0.287815224206739,0.336596013322463
"541",15,34,1,1,61,3,2,0,2,1.24014177743338,1.23453086258103
"542",15,31,1,2,62,2,1,0,2,0.676725094977058,0.609065843272625
"543",15,25,1,1,63,3,1,1,2,0.961887139273886,0.986916638148552
"544",15,28,1,1,64,3,2,0,2,0.800115635620089,0.780470413758878
"545",15,39,1,1,65,1,1,1,4,0.292000500995376,0.271339641946361
"546",15,32,1,1,66,2,1,1,4,0.663555788802665,0.621003714666164
"547",15,25,1,1,67,2,1,1,3,0.583335241739718,0.603847326140076
"548",15,26,1,1,68,1,1,1,5,0.522437723106748,0.606324721017353
"549",15,18,1,1,69,3,1,1,2,1.00180149642248,0.982562252371067
"550",15,23,1,2,70,3,2,1,2,0.808522158363261,0.784722661559129
"551",15,34,1,1,71,2,2,0,3,1.00640551216103,0.996102303450829
"552",15,31,1,2,72,1,2,1,5,0.430991986227688,0.382165629919167
"553",15,25,1,1,73,3,2,0,2,0.777707076667128,0.88532983450817
"554",15,28,1,2,74,1,2,1,5,0.475169892170199,0.427362050581189
"555",15,39,1,1,75,1,2,0,4,0.610623690486665,0.572079734134028
"556",15,32,1,2,76,3,1,0,1,0.645695322929919,0.655237555940321
"557",15,25,1,1,77,3,2,0,2,0.873061010985808,0.871471426038728
"558",15,26,1,1,78,3,2,0,1,1.36415585915688,1.34822249230342
"559",15,18,1,2,79,1,2,1,4,0.446209052508267,0.450884780013513
"560",15,23,1,2,80,3,1,0,2,1.1827847503098,1.20127420846063
"561",15,34,1,2,81,1,2,1,5,0.418180299080938,0.42064891973676
"562",15,31,1,2,82,1,2,1,5,0.328495069005,0.307774898347724
"563",15,25,1,2,83,3,1,0,2,0.939584630966516,1.02941537864682
"564",15,28,1,2,84,2,1,0,3,0.567266320961787,0.621489886827046
"565",15,39,1,2,85,3,2,1,2,0.637450709004525,0.55777016205213
"566",15,32,1,1,86,1,2,0,4,0.517756409258417,0.561649368307827
"567",15,25,1,2,87,2,2,1,3,0.469842735438137,0.445473719031137
"568",15,26,1,1,88,2,1,1,4,0.60527770471513,0.585583598076468
"569",15,18,1,1,89,1,1,1,4,0.514931310930766,0.568973936443194
"570",15,23,1,2,90,1,2,1,5,0.483307259259796,0.475255008763192
"571",15,34,1,2,91,1,2,1,5,0.372358769766662,0.354972439194338
"572",15,31,1,2,92,3,1,0,2,1.19022021322689,1.26540933514485
"573",15,25,1,1,93,1,1,1,5,0.38225712128152,0.308874853315201
"574",15,28,1,2,94,1,1,0,4,0.494792308720234,0.468882540304469
"575",15,39,1,2,95,1,2,1,4,0.404719020094195,0.327227154335247
"576",15,32,1,2,96,2,2,1,3,0.679390650152235,0.686146848908079
"577",15,25,1,2,97,3,1,0,2,1.09190766265634,1.16536527824908
"578",15,26,1,1,98,2,2,0,3,0.838863947037633,0.852819696381014
"579",15,18,1,1,99,3,2,0,1,0.824419012372341,0.868090146123092
"580",15,23,1,2,100,3,1,0,1,0.601763047714695,0.675732207347225
"581",15,34,1,2,101,3,2,1,3,0.727655867387032,0.715789100017251
"582",15,31,1,1,102,2,2,0,2,0.471302471667245,0.560203329538022
"583",15,25,1,2,103,2,1,0,2,0.62171365182376,0.541497263439311
"584",15,28,1,1,104,2,1,1,4,0.400126913608917,0.362990605221329
"585",15,39,1,1,105,3,1,1,2,0.711165179380797,0.725982953392196
"586",15,32,1,2,106,2,1,0,2,0.612491012664505,0.510753628024024
"587",15,25,1,2,107,1,1,0,4,0.398385442846964,0.291541739983267
"588",15,26,1,2,108,3,1,0,2,0.959968323556133,0.929416081245371
"589",15,18,1,1,109,1,1,1,5,0.410737445747423,0.405066367591438
"590",15,23,1,2,110,2,2,1,4,0.682439282015223,0.676434530399023
"591",15,34,1,2,111,2,2,1,4,0.53550479967097,0.485230287702929
"592",15,31,1,2,112,2,1,0,3,0.739398639976458,0.779476732003556
"593",15,25,1,1,113,3,2,0,2,0.762119091279564,0.801255337011064
"594",15,28,1,2,114,2,2,1,4,0.750750392438859,0.721141347538204
"595",15,39,1,2,115,2,2,1,3,0.428463699873626,0.398734078973488
"596",15,32,1,2,116,2,1,0,3,0.749184481261282,0.758896037171587
"597",15,25,1,1,117,3,1,1,3,1.01218747865251,0.971430899400886
"598",15,26,1,1,118,3,1,1,3,0.695604377656813,0.636437424746742
"599",15,18,1,1,119,2,2,0,2,0.642730323785251,0.727557131536308
"600",15,23,1,1,120,2,1,1,4,0.603696125686537,0.5285253572025
"601",15,34,1,1,121,2,2,0,3,0.70915321015336,0.75264887913958
"602",15,31,1,2,122,3,2,1,2,0.732801798092675,0.709622560191482
"603",15,25,1,1,123,1,2,0,3,0.577308681288848,0.564482631100458
"604",15,28,1,1,124,3,1,1,2,0.45123920016742,0.39420969342125
"605",15,39,1,2,125,3,1,0,2,1.18270167562796,1.23773143766586
"606",15,32,1,2,126,1,1,0,4,0.612609577011457,0.567750738116192
"607",15,25,1,1,127,1,1,1,5,0.237541150699226,0.275199834552455
"608",15,26,1,2,128,1,2,1,4,0.486186320805699,0.477965179520271
"609",15,18,1,2,129,1,2,1,5,0.393396989221176,0.294896567738994
"610",15,23,1,2,130,1,2,1,5,0.567243646021475,0.591945075061782
"611",15,34,1,1,131,1,1,1,5,0.416523856303808,0.412436338439029
"612",15,31,1,1,132,2,1,1,3,0.680146595956468,0.678195321553952
"613",15,25,1,1,133,3,2,0,1,1.21088043201095,1.29963908929746
"614",15,28,1,1,134,3,2,0,1,1.06529209478809,1.13640298982077
"615",15,39,1,1,135,1,2,0,4,0.618394184940402,0.627756488855055
"616",15,32,1,2,136,3,2,1,2,0.850849318384496,0.924948988262539
"617",15,25,1,1,137,3,2,0,1,1.74476341865153,1.78361463748618
"618",15,26,1,2,138,2,2,1,3,0.600586514966811,0.641429631338847
"619",15,18,1,2,139,3,1,0,1,0.719685507037841,0.675521534262699
"620",15,23,1,1,140,2,1,1,4,0.517833060578142,0.549696107498277
"621",15,34,1,1,141,3,1,1,2,0.647489770737824,0.599232940636918
"622",15,31,1,1,142,2,1,1,4,0.639264524130478,0.580750017538746
"623",15,25,1,1,143,2,2,0,3,0.364001762279118,0.350990616105789
"624",15,28,1,1,144,1,1,1,5,0.432382272129571,0.400016906243876
"625",15,39,1,1,145,3,2,0,2,0.473282875251274,0.437015425630115
"626",15,32,1,1,146,3,2,0,1,0.574163278246409,0.556440284683364
"627",15,25,1,1,147,1,1,1,4,0.40145471612578,0.410050067438813
"628",15,26,1,1,148,1,1,1,4,0.414301815748737,0.366431120524756
"629",15,18,1,2,149,3,1,0,2,1.01462435790149,0.996715513219776
"630",15,23,1,2,150,3,1,0,1,1.11753678402594,1.04274702027794
"631",15,34,1,1,151,2,1,1,4,0.67608036617307,0.716576394101619
"632",15,31,1,1,152,1,1,1,5,0.420837361237565,0.370611528382061
"633",15,25,1,1,153,1,1,1,5,0.448247016199953,0.44923445588714
"634",15,28,1,1,154,1,2,0,4,0.677644882496547,0.741867090441836
"635",15,39,1,2,155,1,2,1,4,0.308615664766805,0.377874504537823
"636",15,32,1,2,156,2,1,0,2,0.682742821673286,0.766244376166392
"637",15,25,1,1,157,3,2,0,2,1.54217239633135,1.49654847337422
"638",15,26,1,1,158,1,1,1,4,0.446448105150032,0.481827761131414
"639",15,18,1,2,159,3,2,1,2,0.92637682390828,0.926000677179089
"640",15,23,1,2,160,1,1,0,3,0.57481784552329,0.609940877186553
"641",15,34,1,2,161,2,1,0,2,0.719965507601044,0.704307667681081
"642",15,31,1,2,162,1,2,1,5,0.425767037418206,0.48938687838632
"643",15,25,1,1,163,2,1,1,4,0.691668933016796,0.659717603886908
"644",15,28,1,2,164,2,1,0,3,0.63389690721956,0.550632545213393
"645",15,39,1,1,165,1,2,0,3,0.588429479466745,0.647084588837714
"646",15,32,1,2,166,1,2,1,5,0.405600554746318,0.475189437692519
"647",15,25,1,1,167,3,2,0,1,1.16279564052266,1.18377404269785
"648",15,26,1,2,168,1,2,1,5,0.488525566342378,0.488179056944899
"649",15,18,1,2,169,3,2,1,3,0.722682727684455,0.722823982158007
"650",15,23,1,2,170,2,2,1,3,0.598843820121551,0.537666271152873
"651",15,34,1,2,171,3,2,1,2,0.931927643830176,0.89528931175485
"652",15,31,1,1,172,2,1,1,3,0.64039011326335,0.629550459699676
"653",15,25,1,2,173,2,2,1,4,0.478652863259659,0.497787881481421
"654",15,28,1,1,174,3,2,0,1,1.44182539474825,1.56485887959912
"655",15,39,1,2,175,3,2,1,2,0.505677345220421,0.499161455355191
"656",15,32,1,1,176,2,1,1,4,0.508473964763236,0.48777025650341
"657",15,25,1,2,177,3,2,1,2,0.831334434440672,0.768542120408968
"658",15,26,1,1,178,3,1,1,3,0.689661527161898,0.642886858826069
"659",15,18,1,2,179,3,1,0,2,1.06635616666492,1.06170170799637
"660",15,23,1,1,180,3,1,1,2,0.72961680398648,0.777015568461888
"661",15,34,1,1,181,2,1,1,3,0.295285224567901,0.280405176418218
"662",15,31,1,1,182,2,2,0,2,0.833321089546502,0.827753838758924
"663",15,25,1,1,183,3,1,1,3,0.669158217952384,0.60903796355709
"664",15,28,1,2,184,2,2,1,3,0.544631395258853,0.653429413250776
"665",15,39,1,1,185,3,1,1,2,0.552017213235914,0.512689480952038
"666",15,32,1,1,186,2,1,1,4,0.482217699041378,0.469236334311437
"667",15,25,1,1,187,2,1,1,3,0.761005056100936,0.76199627695129
"668",15,26,1,2,188,3,2,1,2,0.809217253539028,0.882396516523189
"669",15,18,1,1,189,3,2,0,2,1.08382580989202,1.03170815579217
"670",15,23,1,2,190,1,2,1,4,0.340490253421221,0.317374833279375
"671",15,34,1,2,191,3,2,1,2,0.856633435935637,0.864544817728942
"672",15,31,1,1,192,1,1,1,4,0.311929455578994,0.379184919463352
"673",15,25,1,2,193,1,1,0,4,0.538629372126974,0.616395100412436
"674",15,28,1,1,194,1,2,0,4,0.545242546262126,0.52147192231559
"675",15,39,1,2,195,1,1,0,4,0.599875277973464,0.523673934934355
"676",15,32,1,2,196,2,1,0,2,0.520867623084909,0.494423399013978
"677",15,25,1,1,197,2,2,0,3,0.568003872211231,0.597232382149992
"678",15,26,1,2,198,2,2,1,3,0.759183523909645,0.766970266590013
"679",15,18,1,1,199,2,2,0,3,0.839200051034304,0.74787360275787
"680",15,23,1,2,200,3,2,1,3,0.669234053517767,0.679496938484343
"681",15,34,1,1,201,1,1,1,4,0.218426333548115,0.235755691897313
"682",15,31,1,2,202,1,2,1,5,0.448864487436469,0.448992830647801
"683",15,25,1,2,203,2,2,1,4,0.538738983522091,0.596872092303486
"684",15,28,1,2,204,1,2,1,4,0.382944036914085,0.337235674238897
"685",15,39,1,1,205,2,2,0,3,0.512824779232641,0.531384361944906
"686",15,32,1,1,206,3,1,1,2,0.719492212039827,0.68636774190847
"687",15,25,1,1,207,3,2,0,2,1.13620598596193,1.12419981903823
"688",15,26,1,2,208,3,1,0,2,0.849150295740364,0.840643290684292
"689",15,18,1,2,209,1,2,1,4,0.366705916832122,0.395723252104474
"690",15,23,1,2,210,2,1,0,2,0.203883314247602,0.234175486098214
"691",15,34,1,1,211,2,2,0,2,0.953561716041103,0.857042495323791
"692",15,31,1,2,212,3,1,0,2,1.27430323716611,1.23641963649004
"693",15,25,1,2,213,3,2,1,3,0.995192685401546,0.947224518944684
"694",15,28,1,2,214,2,1,0,2,0.894582883531078,0.953638133027314
"695",15,39,1,1,215,1,1,1,4,0.491384285351402,0.516667136005394
"696",15,32,1,1,216,1,1,1,5,0.411561454105526,0.370579820560405
"697",15,25,1,2,217,2,2,1,3,0.284974290216688,0.307663157147279
"698",15,26,1,1,218,2,1,1,4,0.663783250398531,0.691470582918685
"699",15,18,1,2,219,2,2,1,3,0.254612956392688,0.224373796514014
"700",15,23,1,2,220,2,1,0,3,0.92985469493718,1.01469172651785
"701",15,34,1,2,221,1,1,0,3,0.483109619906382,0.425947467346624
"702",15,31,1,1,222,1,1,1,5,0.399034299624653,0.337184472942341
"703",15,25,1,1,223,2,2,0,2,0.851772085388866,0.882741639922577
"704",15,28,1,1,224,3,1,1,3,0.730952706771038,0.753840110648543
"705",15,39,1,1,225,3,2,0,1,0.574749484929041,0.511240528292099
"706",15,32,1,2,226,3,1,0,2,1.66121270159057,1.56656738493915
"707",15,25,1,2,227,3,2,1,2,0.755848755773997,0.813146506246636
"708",15,26,1,2,228,1,1,0,4,0.506158719438557,0.467866481851362
"709",15,18,1,1,229,1,1,1,5,0.468911339257934,0.478460780469023
"710",15,23,1,1,230,1,1,1,5,0.473098797134378,0.474735172799053
"711",15,34,1,1,231,1,1,1,4,0.417786410531361,0.410479899584516
"712",15,31,1,2,232,1,2,1,5,0.490414878759692,0.549297321766329
"713",15,25,1,2,233,3,1,0,2,0.838011945825075,0.827577671700924
"714",15,28,1,1,234,2,1,1,4,0.734166138536067,0.791629654246074
"715",15,39,1,2,235,2,2,1,4,0.661984243860816,0.625553439406913
"716",15,32,1,1,236,2,1,1,3,0.605818320100489,0.538799912139724
"717",15,25,1,1,237,3,2,0,2,1.04428195353378,1.17977970336747
"718",15,26,1,2,238,3,2,1,3,0.865094206023618,0.874147845892859
"719",15,18,1,1,239,3,2,0,1,1.11713858787646,1.12689280899675
"720",15,23,1,1,240,1,1,1,5,0.474932746522666,0.413105854708627
"721",14,34,2,2,1,2,1,0,3,0.676222163649528,0.686250377958745
"722",14,22,2,2,2,3,1,0,2,1.46449202452015,1.50127345178408
"723",14,20,2,1,3,1,2,0,4,0.737773064454582,0.710828100529507
"724",14,28,2,2,4,2,1,0,2,0.505792833158553,0.546273691754599
"725",14,33,2,1,5,1,1,1,4,0.533902326959933,0.581326689078307
"726",14,36,2,2,6,3,2,1,2,0.4261041070099,0.436613049882128
"727",14,19,2,1,7,1,2,0,3,0.451132965796705,0.479910537694296
"728",14,35,2,1,8,1,1,1,4,0.321478022817468,0.376964089898471
"729",14,23,2,1,9,2,1,1,3,0.632058043625546,0.707879958135527
"730",14,24,2,2,10,2,2,1,3,0.39056347433689,0.336118812519525
"731",14,34,2,2,11,2,2,1,3,0.670703413754894,0.71015591309994
"732",14,22,2,2,12,3,1,0,1,0.55717089585579,0.596054362538989
"733",14,20,2,1,13,2,1,1,4,0.636547540971471,0.68197122126585
"734",14,28,2,1,14,3,1,1,3,1.04114288834397,1.07257614829396
"735",14,33,2,2,15,3,2,1,3,0.817783931988472,0.764720705951985
"736",14,36,2,1,16,2,1,1,3,0.329975233821,0.418932476593285
"737",14,19,2,1,17,2,2,0,3,0.739409517664663,0.850211612427391
"738",14,35,2,1,18,3,1,1,2,0.901358188781832,0.844063541432991
"739",14,23,2,2,19,3,1,0,2,1.14294926670525,1.12464425007988
"740",14,24,2,1,20,1,1,1,4,0.473371784058291,0.443718972586786
"741",14,34,2,1,21,3,2,0,2,1.22870367877102,1.35139452491729
"742",14,22,2,2,22,1,2,1,5,0.375958729245602,0.38589605470905
"743",14,20,2,1,23,3,1,1,3,0.597993194397545,0.569604530067753
"744",14,28,2,2,24,2,2,1,3,0.504198535686437,0.55104614870509
"745",14,33,2,1,25,2,1,1,3,0.506872612187973,0.502458631455422
"746",14,36,2,1,26,1,1,1,4,0.458025001991163,0.532961786022852
"747",14,19,2,2,27,2,2,1,4,0.65692015921395,0.70746156178015
"748",14,35,2,2,28,2,1,0,2,0.591397316324095,0.582942202615116
"749",14,23,2,2,29,3,2,1,2,0.49566369251466,0.428695081696787
"750",14,24,2,1,30,2,1,1,4,0.455372647421335,0.382292268197529
"751",14,34,2,2,31,1,2,1,4,0.490531199310817,0.510397844201176
"752",14,22,2,2,32,3,1,0,2,1.38728270286845,1.39845943259486
"753",14,20,2,1,33,1,1,1,4,0.438904724182585,0.344050601468808
"754",14,28,2,1,34,3,2,0,2,1.70632408328342,1.72415176158417
"755",14,33,2,1,35,1,1,1,4,0.381582318919569,0.396947970377505
"756",14,36,2,1,36,2,1,1,3,0.719379743711912,0.731801268512527
"757",14,19,2,2,37,3,2,1,3,0.552974701476457,0.521961087313458
"758",14,35,2,1,38,1,2,0,4,0.544046226372774,0.529067897908975
"759",14,23,2,1,39,1,1,1,5,0.423151292584198,0.330737456965045
"760",14,24,2,1,40,3,2,0,2,1.10394050776692,1.12938668155659
"761",14,34,2,2,41,2,2,1,4,0.657031605950255,0.73095682660674
"762",14,22,2,1,42,2,2,0,2,0.946381177045281,1.03386380083248
"763",14,20,2,1,43,2,1,1,3,0.662117327195727,0.740976596620356
"764",14,28,2,2,44,1,2,1,5,0.448931740017589,0.510304771369136
"765",14,33,2,2,45,1,2,1,4,0.525590317721064,0.552454771721481
"766",14,36,2,2,46,2,2,1,3,0.677976519141809,0.735579540503566
"767",14,19,2,1,47,1,1,1,4,0.351003927150739,0.343716055167088
"768",14,35,2,2,48,1,2,1,4,0.597591145998426,0.610706419923295
"769",14,23,2,1,49,2,1,1,3,0.626175480935865,0.54269505541044
"770",14,24,2,1,50,2,2,0,2,0.711379994311308,0.720944867304046
"771",14,34,2,2,51,1,2,1,4,0.299028628939635,0.238354363510819
"772",14,22,2,1,52,3,2,0,1,0.176879253978467,0.1170415379984
"773",14,20,2,1,53,1,2,0,4,0.594022418343982,0.580154355387668
"774",14,28,2,2,54,1,2,1,4,0.400890100058016,0.427887896233562
"775",14,33,2,1,55,3,1,1,3,0.495162721236378,0.559369211928386
"776",14,36,2,1,56,2,1,1,4,0.818727658754082,0.831957527046806
"777",14,19,2,2,57,3,1,0,2,0.926451151187085,0.966102174220494
"778",14,35,2,1,58,1,2,0,4,0.641854481378336,0.613030448499839
"779",14,23,2,2,59,2,1,0,3,0.688970289114347,0.732763343177521
"780",14,24,2,1,60,1,1,1,4,0.270447767095294,0.335570546387064
"781",14,34,2,1,61,2,1,1,3,0.589569678327073,0.58940365517202
"782",14,22,2,1,62,3,2,0,2,1.33898315443665,1.35089393773733
"783",14,20,2,2,63,3,2,1,3,0.579181593088335,0.620010216514059
"784",14,28,2,1,64,3,2,0,1,0.855081652915177,0.837543025795552
"785",14,33,2,1,65,3,1,1,2,0.842608554260023,0.852703685207638
"786",14,36,2,1,66,1,1,1,5,0.55436034363033,0.556121859254408
"787",14,19,2,1,67,2,2,0,3,0.862174421815203,0.843993701635138
"788",14,35,2,2,68,2,2,1,3,0.745501610962876,0.729356098400575
"789",14,23,2,2,69,3,2,1,3,0.588599098607499,0.532977048983027
"790",14,24,2,1,70,3,2,0,2,0.831282667205712,0.839060934587554
"791",14,34,2,1,71,2,2,0,2,0.713829041428248,0.726054296318414
"792",14,22,2,1,72,1,1,1,4,0.408626544200098,0.370542293763611
"793",14,20,2,1,73,3,2,0,2,1.17299067413106,1.24958528900986
"794",14,28,2,1,74,3,1,1,2,0.709817912609012,0.768416990959134
"795",14,33,2,1,75,3,2,0,1,1.20335492787077,1.21268176656754
"796",14,36,2,2,76,1,1,0,3,0.594729536369983,0.594705059608137
"797",14,19,2,2,77,3,1,0,2,0.908571945915207,0.876815314735353
"798",14,35,2,1,78,2,2,0,3,0.598852728009542,0.634616572416607
"799",14,23,2,2,79,3,1,0,1,0.418336651844952,0.390798580649734
"800",14,24,2,2,80,2,2,1,3,0.504362801892975,0.550091860774109
"801",14,34,2,2,81,2,1,0,2,0.900844668811645,0.964881194896025
"802",14,22,2,2,82,1,2,1,4,0.325500445934638,0.191254638976915
"803",14,20,2,2,83,2,1,0,2,0.91252520693158,0.959940092381836
"804",14,28,2,2,84,3,2,1,2,0.548475154314445,0.514561013138827
"805",14,33,2,2,85,2,1,0,3,0.348418559111676,0.384070646544074
"806",14,36,2,1,86,1,2,0,4,0.496972005136886,0.41726165358047
"807",14,19,2,2,87,3,2,1,3,0.743841412907481,0.682786749478407
"808",14,35,2,2,88,1,1,0,3,0.62944744927605,0.608017263453322
"809",14,23,2,1,89,1,1,1,5,0.30789880104851,0.269180720628387
"810",14,24,2,1,90,3,1,1,3,0.697589645643565,0.723170265383557
"811",14,34,2,1,91,2,1,1,4,0.828253656189095,0.80358710240043
"812",14,22,2,1,92,1,1,1,4,0.607463819756203,0.620369026538721
"813",14,20,2,2,93,2,2,1,4,0.503696449714568,0.460786686540211
"814",14,28,2,1,94,2,1,1,3,0.79672278649383,0.696687721391319
"815",14,33,2,2,95,3,2,1,3,0.592100729874133,0.621194136371914
"816",14,36,2,1,96,1,1,1,5,0.42749618833484,0.413781113918473
"817",14,19,2,1,97,3,1,1,2,0.848775440135805,0.871859149065136
"818",14,35,2,1,98,3,1,1,3,0.88532566625895,0.974357475230783
"819",14,23,2,2,99,3,1,0,2,2.71783592361957,2.71363884193952
"820",14,24,2,1,100,1,1,1,4,0.403254470888793,0.424367440037606
"821",14,34,2,1,101,3,1,1,3,0.821338365956689,0.842134173102915
"822",14,22,2,1,102,3,2,0,2,0.122909172861706,0.0741251282059734
"823",14,20,2,1,103,1,1,1,4,0.377451008595994,0.322918408070949
"824",14,28,2,2,104,2,2,1,3,0.718892579289739,0.747585926780694
"825",14,33,2,1,105,2,2,0,2,0.876346630614234,0.932400257640198
"826",14,36,2,2,106,3,1,0,2,1.51096146769537,1.53842901701182
"827",14,19,2,2,107,2,2,1,4,0.673552219620241,0.753080834730269
"828",14,35,2,1,108,2,2,0,2,0.781523605339033,0.91117299550297
"829",14,23,2,2,109,1,2,1,5,0.423880909310764,0.434314320038121
"830",14,24,2,1,110,1,1,1,5,0.34115773411026,0.290078696708785
"831",14,34,2,2,111,1,1,0,3,0.477719423264527,0.534020141338338
"832",14,22,2,2,112,2,2,1,3,0.735165517430192,0.746671729392781
"833",14,20,2,2,113,1,2,1,4,0.323416104353816,0.290731694685594
"834",14,28,2,2,114,2,2,1,4,0.770693174054276,0.792777312685671
"835",14,33,2,2,115,3,1,0,1,1.52730102177717,1.63126337443664
"836",14,36,2,2,116,1,1,0,4,0.500308903307678,0.527671261830305
"837",14,19,2,1,117,1,1,1,4,0.546026849587463,0.446784706939303
"838",14,35,2,2,118,3,1,0,1,0.752131646540653,0.760594411458243
"839",14,23,2,2,119,1,2,1,5,0.36852573400143,0.446624711318348
"840",14,24,2,2,120,2,2,1,4,0.631696465403622,0.622382023416487
"841",14,34,2,2,121,1,1,0,4,0.577996624596016,0.498299798683847
"842",14,22,2,2,122,3,1,0,2,1.14701328687303,1.08209090398793
"843",14,20,2,1,123,1,1,1,4,0.432763499232382,0.490520138919011
"844",14,28,2,1,124,2,2,0,2,0.960088214208586,0.894194608648901
"845",14,33,2,2,125,2,1,0,2,0.840203801791335,0.842541597495963
"846",14,36,2,2,126,3,1,0,1,0.654750305262063,0.59522553175113
"847",14,19,2,1,127,2,2,0,3,0.518150966065722,0.45378721320193
"848",14,35,2,1,128,2,1,1,4,0.706115292364274,0.707562641297915
"849",14,23,2,2,129,2,1,0,2,0.709283332358051,0.709505752474482
"850",14,24,2,2,130,3,1,0,1,0.67472499453779,0.656214570788103
"851",14,34,2,2,131,3,1,0,1,1.0762354281775,1.06709924008072
"852",14,22,2,1,132,3,1,1,3,0.773883049215836,0.816331519869815
"853",14,20,2,1,133,3,2,0,1,0.561088664576455,0.581849680914748
"854",14,28,2,1,134,3,2,0,2,1.30546475732522,1.2553919783834
"855",14,33,2,1,135,3,2,0,1,1.11048405712163,1.03419157452443
"856",14,36,2,2,136,1,2,1,4,0.357168024372574,0.3062077148771
"857",14,19,2,2,137,3,1,0,2,1.2321443895232,1.25555792343072
"858",14,35,2,1,138,3,1,1,2,0.495826989190753,0.471500704557332
"859",14,23,2,2,139,1,2,1,5,0.370645379007929,0.382100826440164
"860",14,24,2,1,140,2,2,0,3,0.837661024336603,0.817625110881255
"861",14,34,2,2,141,1,2,1,4,0.432724707459692,0.385154967070819
"862",14,22,2,1,142,3,1,1,2,0.727835767696433,0.720592406413044
"863",14,20,2,2,143,2,2,1,3,0.799850538451912,0.759677420428814
"864",14,28,2,2,144,2,2,1,3,0.528455131959021,0.531593133229066
"865",14,33,2,1,145,3,2,0,1,1.36266354844078,1.33984852568049
"866",14,36,2,2,146,3,1,0,2,1.70571256044356,1.61528295752373
"867",14,19,2,1,147,3,1,1,3,0.643943749084807,0.50589618595872
"868",14,35,2,1,148,1,2,0,4,0.491168431627434,0.54651065371567
"869",14,23,2,2,149,2,2,1,4,0.586097685587937,0.692348277237484
"870",14,24,2,1,150,1,1,1,4,0.483768106206557,0.478154504958677
"871",14,34,2,1,151,1,1,1,4,0.337035463626895,0.391667673152653
"872",14,22,2,2,152,1,2,1,5,0.428178263762892,0.442490628203908
"873",14,20,2,2,153,1,2,1,4,0.501045463998654,0.529790188274913
"874",14,28,2,1,154,3,1,1,2,0.721982909562761,0.662339105461652
"875",14,33,2,2,155,2,2,1,3,0.710660153756575,0.638089061287308
"876",14,36,2,1,156,1,1,1,5,0.518880444329507,0.617318061655413
"877",14,19,2,2,157,3,2,1,3,0.91020611398064,0.884362509399063
"878",14,35,2,1,158,2,1,1,4,0.542506633480605,0.472225546178177
"879",14,23,2,1,159,2,1,1,4,0.463511886685966,0.393135735664425
"880",14,24,2,2,160,2,2,1,3,0.562521503870662,0.589635767279818
"881",14,34,2,2,161,1,1,0,4,0.640160263727839,0.673195176409504
"882",14,22,2,1,162,1,1,1,4,0.283245983795457,0.26293963215812
"883",14,20,2,1,163,1,1,1,4,0.353369564006332,0.359449808848981
"884",14,28,2,1,164,1,1,1,5,0.457598972433501,0.428725251991766
"885",14,33,2,2,165,1,1,0,4,0.77097209921012,0.811065368439676
"886",14,36,2,2,166,2,1,0,3,0.690722101539551,0.669548508057211
"887",14,19,2,1,167,3,1,1,2,0.414885421332595,0.412432452962727
"888",14,35,2,1,168,2,2,0,3,0.842068876700352,0.872866623640366
"889",14,23,2,1,169,3,2,0,1,1.50581092963618,1.51372985081312
"890",14,24,2,1,170,3,1,1,2,0.713800601868826,0.815407433813483
"891",14,34,2,1,171,3,2,0,2,1.20135643886348,1.28778621348637
"892",14,22,2,2,172,1,2,1,5,0.365903387659211,0.343928177566596
"893",14,20,2,1,173,2,2,0,2,0.718925067214549,0.756797621394351
"894",14,28,2,1,174,1,1,1,5,0.393853931913722,0.379228965671328
"895",14,33,2,2,175,1,2,1,4,0.523881479897789,0.589083554498022
"896",14,36,2,2,176,3,2,1,2,0.959152430419245,0.924707852274202
"897",14,19,2,2,177,3,1,0,2,1.20542862991497,1.18951856679817
"898",14,35,2,2,178,2,2,1,3,0.409461188928664,0.451117588777678
"899",14,23,2,2,179,2,2,1,3,0.583335507192916,0.50603258389087
"900",14,24,2,1,180,1,1,1,5,0.447779205491343,0.438838425664678
"901",14,34,2,2,181,3,1,0,1,1.56408543193853,1.58738995194653
"902",14,22,2,1,182,3,2,0,2,0.680513833177047,0.697552444811988
"903",14,20,2,1,183,3,1,1,2,1.07884836569455,1.0976704947521
"904",14,28,2,2,184,3,2,1,2,0.707738336971872,0.670067213641126
"905",14,33,2,1,185,2,2,0,3,0.692461900485256,0.643916301972458
"906",14,36,2,1,186,2,1,1,3,0.504386032713761,0.542616485856706
"907",14,19,2,2,187,1,2,1,5,0.5403209695779,0.595160491598321
"908",14,35,2,2,188,1,2,1,4,0.372260117324353,0.471232968066555
"909",14,23,2,2,189,1,2,1,5,0.533082551366359,0.556703938303045
"910",14,24,2,1,190,2,1,1,4,0.841860260977251,0.797081554796502
"911",14,34,2,2,191,2,1,0,3,0.648525705671174,0.648651590564128
"912",14,22,2,2,192,1,2,1,4,0.36300105459676,0.34759561288057
"913",14,20,2,2,193,3,1,0,2,1.78597089274182,1.77772210232734
"914",14,28,2,2,194,3,2,1,3,1.14307680254626,1.17887774654367
"915",14,33,2,2,195,1,1,0,3,0.771512525231286,0.820991297205243
"916",14,36,2,2,196,2,2,1,3,0.624282174316624,0.559993154480108
"917",14,19,2,2,197,3,2,1,2,0.978429780402669,0.979906830611026
"918",14,35,2,1,198,1,1,1,5,0.424177742137203,0.443732486184027
"919",14,23,2,1,199,2,1,1,3,0.604619655080526,0.532533087574025
"920",14,24,2,2,200,1,2,1,5,0.419044016735561,0.422383358704531
"921",14,34,2,2,201,2,1,0,2,0.705497480231242,0.697177971052183
"922",14,22,2,1,202,2,1,1,3,0.68328486856395,0.782178566485631
"923",14,20,2,1,203,3,2,0,1,0.797034214444645,0.738834707580746
"924",14,28,2,1,204,1,1,1,4,0.482770994983551,0.511151430649873
"925",14,33,2,1,205,1,1,1,5,0.354476314604917,0.381797864824097
"926",14,36,2,2,206,2,2,1,3,0.514230773556244,0.527050546786619
"927",14,19,2,2,207,2,2,1,4,0.61856271445626,0.593897236561841
"928",14,35,2,2,208,1,1,0,4,0.41386767060835,0.393682608141855
"929",14,23,2,2,209,1,1,0,4,0.618702640545358,0.572087069477793
"930",14,24,2,1,210,1,1,1,4,0.393571349456035,0.324076411048206
"931",14,34,2,2,211,2,2,1,3,0.610250086833997,0.592405602608105
"932",14,22,2,1,212,2,1,1,4,0.762111482855893,0.737753638103966
"933",14,20,2,2,213,1,1,0,3,0.51792321515045,0.492826533191113
"934",14,28,2,2,214,1,2,1,5,0.401098754747404,0.352893156333223
"935",14,33,2,2,215,2,2,1,3,0.486578280635192,0.617257474577521
"936",14,36,2,1,216,1,1,1,4,0.351096670876547,0.26105320495281
"937",14,19,2,1,217,2,2,0,3,0.570490840470294,0.565284634215668
"938",14,35,2,1,218,3,1,1,2,1.29529750271691,1.31067264745985
"939",14,23,2,1,219,1,1,1,4,0.371286738437783,0.336891148619938
"940",14,24,2,2,220,2,2,1,4,0.641784619240145,0.646089574569942
"941",14,34,2,1,221,1,1,1,4,0.527458444828183,0.551146292824433
"942",14,22,2,1,222,2,2,0,3,0.471320995125976,0.474416856687345
"943",14,20,2,1,223,1,2,0,3,0.701575460945902,0.795442237882977
"944",14,28,2,1,224,3,1,1,2,0.853472160028392,0.780553180171708
"945",14,33,2,2,225,3,1,0,2,1.24293320164554,1.2672128044626
"946",14,36,2,1,226,3,2,0,2,1.19090022889003,1.21653570384948
"947",14,19,2,2,227,2,2,1,3,0.718605675887059,0.77578408618329
"948",14,35,2,2,228,2,1,0,3,0.44393450106616,0.488753050000505
"949",14,23,2,2,229,1,2,1,5,0.37950666880327,0.416157679901408
"950",14,24,2,2,230,3,1,0,1,0.761978793006247,0.782697256193553
"951",14,34,2,1,231,3,2,0,1,1.05951082798558,1.12718025732136
"952",14,22,2,2,232,3,1,0,2,0.847426908857679,0.895966365426595
"953",14,20,2,2,233,2,2,1,3,0.636442425635591,0.680987896425188
"954",14,28,2,2,234,2,2,1,4,0.637770099828837,0.663502489024013
"955",14,33,2,1,235,3,1,1,3,0.680646681138356,0.73840130062611
"956",14,36,2,2,236,3,2,1,2,0.895071185150391,0.898723489051987
"957",14,19,2,2,237,2,1,0,3,0.619386408903927,0.587827734935603
"958",14,35,2,2,238,1,2,1,5,0.384979274259838,0.441976433999189
"959",14,23,2,1,239,1,1,1,5,0.498497728559602,0.521854113678379
"960",14,24,2,2,240,3,2,1,3,0.518133412505003,0.608042354519535
"961",13,23,1,1,1,1,1,1,4,0.325104332330667,0.338131623800354
"962",13,30,1,2,2,1,2,1,4,0.47972621636328,0.448774583216977
"963",13,21,1,2,3,3,1,0,2,0.815451014904405,0.825622063666337
"964",13,18,1,1,4,3,1,1,2,0.868755543112662,0.947457993040031
"965",13,35,1,2,5,1,2,1,5,0.337053609549962,0.345185712501566
"966",13,29,1,2,6,1,1,0,4,0.781248967388369,0.760158248685654
"967",13,32,1,2,7,3,2,1,2,1.093386434462,1.0172240756279
"968",13,39,1,2,8,1,1,0,3,0.449347021484175,0.46059684958579
"969",13,26,1,2,9,1,2,1,4,0.474245393249129,0.494538073004184
"970",13,18,1,1,10,3,2,0,1,0.710406478448052,0.698946302778527
"971",13,23,1,1,11,1,1,1,4,0.381106107325638,0.418425302083382
"972",13,30,1,2,12,2,1,0,2,0.652678854484621,0.628260533524601
"973",13,21,1,1,13,2,1,1,3,0.556064959563645,0.610472326298551
"974",13,18,1,1,14,1,2,0,4,0.545566826774092,0.523766619217357
"975",13,35,1,2,15,1,2,1,5,0.315819996329037,0.315809646789625
"976",13,29,1,1,16,1,2,0,3,0.330949990813138,0.335576629190097
"977",13,32,1,2,17,1,2,1,4,0.305463780358429,0.241261865951848
"978",13,39,1,2,18,2,2,1,4,0.569678751873449,0.592866758805376
"979",13,26,1,2,19,2,1,0,2,0.84810872189648,0.731729159791091
"980",13,18,1,2,20,3,1,0,2,0.977926703931213,0.999602541025059
"981",13,23,1,1,21,1,1,1,5,0.471325396931967,0.565601600161742
"982",13,30,1,2,22,3,1,0,1,0.970141317612958,1.03667331549197
"983",13,21,1,2,23,1,1,0,4,0.581612066969819,0.654044597952574
"984",13,18,1,2,24,3,1,0,2,1.08099641915544,1.12171691799513
"985",13,35,1,1,25,3,2,0,2,1.40858052292977,1.37762112820575
"986",13,29,1,2,26,2,2,1,4,0.706750153919343,0.748378105789244
"987",13,32,1,2,27,3,2,1,3,0.405920937285911,0.367361880047456
"988",13,39,1,2,28,1,2,1,5,0.473810415103186,0.449647371007299
"989",13,26,1,2,29,1,1,0,4,0.380035855164952,0.354450137284645
"990",13,18,1,1,30,3,2,0,1,0.938860816292908,0.886222328930529
"991",13,23,1,1,31,3,2,0,2,1.1672023502897,1.14704174951324
"992",13,30,1,1,32,1,1,1,5,0.409088008711809,0.421899007283142
"993",13,21,1,2,33,1,2,1,5,0.350966949934445,0.401239654659353
"994",13,18,1,2,34,3,2,1,2,0.592972300046028,0.576655559337076
"995",13,35,1,2,35,1,1,0,4,0.557070402405995,0.587210193305007
"996",13,29,1,2,36,2,2,1,3,0.493436964887468,0.510191327894679
"997",13,32,1,2,37,2,1,0,3,0.758873973747948,0.77435139220257
"998",13,39,1,2,38,1,2,1,4,0.372661816873452,0.352639394069836
"999",13,26,1,1,39,2,1,1,4,0.888855362829235,0.919162553704317
"1000",13,18,1,1,40,2,1,1,4,0.542831540284056,0.522576846415902
"1001",13,23,1,2,41,2,1,0,2,0.51374423759186,0.591509360907813
"1002",13,30,1,1,42,2,2,0,3,0.903624402159426,0.92192078002098
"1003",13,21,1,2,43,1,2,1,5,0.579982801237327,0.626211734785082
"1004",13,18,1,1,44,3,2,0,1,1.33518696315927,1.40541783166375
"1005",13,35,1,2,45,2,1,0,2,0.952749431213942,0.910158054999867
"1006",13,29,1,1,46,1,1,1,5,0.451817516818638,0.490240309168794
"1007",13,32,1,2,47,2,1,0,2,0.684039972980002,0.669444827034888
"1008",13,39,1,2,48,2,2,1,4,0.390666624694229,0.397188512133953
"1009",13,26,1,1,49,1,2,0,3,0.52613566646417,0.554195816495264
"1010",13,18,1,2,50,2,2,1,4,0.717432741207732,0.736633143579871
"1011",13,23,1,1,51,3,2,0,2,0.749000679199161,0.660714679264716
"1012",13,30,1,1,52,1,2,0,3,0.587327636082215,0.55772355701017
"1013",13,21,1,1,53,1,1,1,5,0.441623706183182,0.431810210619325
"1014",13,18,1,1,54,1,1,1,5,0.38619116411353,0.440827637342624
"1015",13,35,1,1,55,1,1,1,4,0.314196425790778,0.365311086397098
"1016",13,29,1,1,56,1,1,1,4,0.421001347143799,0.369717401319785
"1017",13,32,1,2,57,3,1,0,2,0.741100512768426,0.741353496638103
"1018",13,39,1,2,58,3,1,0,2,0.433541758021792,0.47110106675753
"1019",13,26,1,1,59,3,2,0,2,0.80866904188779,0.782032732445409
"1020",13,18,1,2,60,2,1,0,2,0.738280258478555,0.736209561325514
"1021",13,23,1,1,61,2,2,0,3,0.57843122756134,0.566328475378398
"1022",13,30,1,2,62,3,1,0,2,0.137327108452292,0.119853071132925
"1023",13,21,1,2,63,3,1,0,1,0.693675199872387,0.855048106505462
"1024",13,18,1,2,64,3,1,0,1,1.04380207941768,1.1144306506217
"1025",13,35,1,1,65,2,1,1,3,0.666781536792854,0.686473385216431
"1026",13,29,1,1,66,1,1,1,4,0.41148503342767,0.438486474687197
"1027",13,32,1,2,67,3,1,0,2,1.2388986592558,1.26981144845228
"1028",13,39,1,2,68,1,2,1,4,0.454842998260465,0.460232702195898
"1029",13,26,1,2,69,2,1,0,3,0.644235022562513,0.613397106970981
"1030",13,18,1,1,70,1,1,1,5,0.344708940811928,0.417623874510796
"1031",13,23,1,1,71,1,1,1,4,0.485189195792769,0.500644813758629
"1032",13,30,1,2,72,2,2,1,4,0.460559267530093,0.488846557169021
"1033",13,21,1,1,73,3,1,1,3,0.511667108130314,0.481534640071361
"1034",13,18,1,1,74,2,1,1,4,0.630415173219992,0.673820166569534
"1035",13,35,1,2,75,3,1,0,1,1.1546597526157,1.10640411360898
"1036",13,29,1,1,76,2,1,1,4,0.920990227607258,0.930098718711427
"1037",13,32,1,1,77,2,2,0,2,0.843305246098896,0.828862197627532
"1038",13,39,1,2,78,1,2,1,4,0.331913449632163,0.366128938083659
"1039",13,26,1,2,79,1,2,1,5,0.37065559165673,0.388166590745828
"1040",13,18,1,2,80,3,1,0,2,0.796480267576232,0.800803244539622
"1041",13,23,1,1,81,3,2,0,1,0.815410991061517,0.749784464657851
"1042",13,30,1,2,82,1,2,1,4,0.33989491453096,0.3153699407842
"1043",13,21,1,1,83,2,1,1,3,0.590172423312007,0.51001759075167
"1044",13,18,1,2,84,1,2,1,5,0.51475723952413,0.512278386983607
"1045",13,35,1,1,85,3,2,0,1,1.12601809962801,1.09764395988959
"1046",13,29,1,2,86,3,2,1,2,0.727185832222075,0.695480715879727
"1047",13,32,1,1,87,3,2,0,1,0.980744524154012,0.989840897838864
"1048",13,39,1,2,88,1,2,1,4,0.356970101312672,0.366960328602396
"1049",13,26,1,1,89,2,2,0,2,0.715420109995669,0.71600524198587
"1050",13,18,1,1,90,3,2,0,1,0.407697900449013,0.344353069112615
"1051",13,23,1,1,91,2,1,1,3,0.636609092187455,0.652523789285537
"1052",13,30,1,2,92,2,1,0,2,0.696095503850959,0.653399239184014
"1053",13,21,1,1,93,3,1,1,3,0.793630584977112,0.793541092880021
"1054",13,18,1,2,94,3,1,0,2,0.873967353250593,0.849877939714675
"1055",13,35,1,2,95,2,1,0,3,0.684706614217898,0.645246652806836
"1056",13,29,1,2,96,3,1,0,1,1.14709262765088,1.13125734996642
"1057",13,32,1,2,97,2,2,1,4,0.538040550939761,0.594032502210474
"1058",13,39,1,2,98,2,1,0,3,0.72290072684811,0.725179470775753
"1059",13,26,1,1,99,3,2,0,1,1.06937308120219,1.1207600506994
"1060",13,18,1,1,100,1,2,0,3,0.45576631773055,0.37560758005741
"1061",13,23,1,1,101,1,1,1,5,0.562778937911228,0.512537254247728
"1062",13,30,1,1,102,3,2,0,2,1.07086733590356,1.0096369250661
"1063",13,21,1,2,103,3,1,0,1,1.7663623548376,1.8149237449841
"1064",13,18,1,2,104,3,2,1,2,0.818915774609387,0.78642530388331
"1065",13,35,1,2,105,3,1,0,1,0.992914355368265,0.917182910842465
"1066",13,29,1,2,106,3,2,1,3,1.02713723598957,1.05971915719583
"1067",13,32,1,2,107,3,1,0,1,1.50266971221778,1.5628817746081
"1068",13,39,1,2,108,3,2,1,2,0.708773728084091,0.701691827925102
"1069",13,26,1,1,109,2,2,0,2,0.622989644029462,0.646331154053201
"1070",13,18,1,1,110,2,2,0,3,0.711280092319219,0.676211853404747
"1071",13,23,1,1,111,1,1,1,5,0.336144810115452,0.20576318622712
"1072",13,30,1,1,112,3,1,1,3,0.36155650200205,0.305028258267459
"1073",13,21,1,1,113,3,1,1,3,0.650912984351757,0.585277965172182
"1074",13,18,1,2,114,1,2,1,4,0.578333643515895,0.568067263046165
"1075",13,35,1,1,115,2,1,1,4,0.698482854592618,0.772937426699122
"1076",13,29,1,1,116,1,2,0,4,0.691244104918342,0.746617614598933
"1077",13,32,1,2,117,1,2,1,5,0.504527529621891,0.515745397997763
"1078",13,39,1,2,118,2,1,0,3,0.617320728828795,0.744989945589831
"1079",13,26,1,1,119,1,1,1,5,0.324115043663571,0.4093791444386
"1080",13,18,1,1,120,1,2,0,4,0.576403761357406,0.560329098980834
"1081",13,23,1,1,121,1,1,1,4,0.395465092027263,0.345213603750627
"1082",13,30,1,2,122,3,1,0,2,1.33997938674654,1.34864785598812
"1083",13,21,1,1,123,1,1,1,4,0.317773475582135,0.285152694471135
"1084",13,18,1,1,124,2,2,0,3,0.591060881719378,0.500286002038569
"1085",13,35,1,2,125,3,2,1,2,0.584979672960651,0.559471739970042
"1086",13,29,1,2,126,3,1,0,1,1.23771311217249,1.22784291844519
"1087",13,32,1,2,127,1,2,1,4,0.436552182486233,0.425695128196671
"1088",13,39,1,1,128,1,1,1,4,0.397412985429293,0.352880918985893
"1089",13,26,1,2,129,1,2,1,5,0.333926953779825,0.329496467280947
"1090",13,18,1,2,130,2,2,1,3,0.642095126511883,0.670889118956074
"1091",13,23,1,1,131,3,1,1,2,0.404868871392292,0.378059607510388
"1092",13,30,1,1,132,3,2,0,1,0.686714215056554,0.646944787663929
"1093",13,21,1,1,133,1,1,1,5,0.367074045885228,0.333077486520035
"1094",13,18,1,2,134,2,2,1,3,0.81112286721246,0.823927744185498
"1095",13,35,1,2,135,1,2,1,5,0.292784841856261,0.320170607141481
"1096",13,29,1,2,136,1,2,1,5,0.352038956234055,0.372811770279112
"1097",13,32,1,2,137,1,2,1,4,0.379791796871914,0.340766672925454
"1098",13,39,1,2,138,2,2,1,3,0.493975287644912,0.433458776232585
"1099",13,26,1,2,139,1,2,1,4,0.439524088386491,0.408223958455948
"1100",13,18,1,1,140,1,2,0,4,0.693151537430911,0.667993973808375
"1101",13,23,1,1,141,2,1,1,4,0.403924174578544,0.31117929436005
"1102",13,30,1,1,142,3,1,1,3,1.03347503279247,1.01342156210535
"1103",13,21,1,1,143,2,1,1,3,0.72474096015481,0.739218714141416
"1104",13,18,1,2,144,1,2,1,4,0.438550972713521,0.415711334946295
"1105",13,35,1,2,145,3,1,0,1,0.128455720854199,0.0488490171609987
"1106",13,29,1,1,146,3,2,0,2,0.136262621152977,0.12744631558152
"1107",13,32,1,1,147,3,2,0,2,1.29897624679005,1.30966746242703
"1108",13,39,1,1,148,3,2,0,2,0.487143172882349,0.474304732970021
"1109",13,26,1,2,149,3,2,1,3,0.749044407811845,0.687320168778444
"1110",13,18,1,2,150,3,2,1,3,0.938331443976903,0.90055318380532
"1111",13,23,1,1,151,3,1,1,2,0.974448300930571,0.890400644334149
"1112",13,30,1,1,152,1,1,1,4,0.426618764226799,0.45028957628957
"1113",13,21,1,2,153,3,1,0,1,1.34339454227865,1.39354217109183
"1114",13,18,1,1,154,3,1,1,3,0.681299614781615,0.643641053434082
"1115",13,35,1,1,155,1,1,1,5,0.292935858312778,0.348179549992814
"1116",13,29,1,1,156,1,2,0,4,0.616908744722006,0.651047004413507
"1117",13,32,1,2,157,3,1,0,1,0.438328408186384,0.446088281673605
"1118",13,39,1,1,158,1,1,1,4,0.359761714480727,0.375539447302389
"1119",13,26,1,1,159,1,1,1,4,0.282487493924439,0.357585622819057
"1120",13,18,1,1,160,1,1,1,5,0.277426320589576,0.27196449532308
"1121",13,23,1,1,161,3,1,1,3,0.859497790564514,0.834845701080697
"1122",13,30,1,1,162,1,1,1,4,0.298471507395767,0.3338993863129
"1123",13,21,1,2,163,1,2,1,4,0.481970891319669,0.455134028666577
"1124",13,18,1,1,164,2,1,1,3,0.378718930897276,0.333491982593652
"1125",13,35,1,2,165,3,2,1,2,0.703313928841895,0.679914832581636
"1126",13,29,1,2,166,1,2,1,4,0.45912170333933,0.494636591601442
"1127",13,32,1,2,167,2,2,1,3,0.867885330205463,0.841414602694172
"1128",13,39,1,1,168,2,2,0,3,0.789158312384576,0.854240259022183
"1129",13,26,1,1,169,1,1,1,4,0.504368032207219,0.487267495664889
"1130",13,18,1,2,170,3,2,1,3,0.978837925644516,0.963871144377957
"1131",13,23,1,2,171,3,2,1,3,0.746962972193621,0.691783454267034
"1132",13,30,1,2,172,2,2,1,4,0.503882015903239,0.501042985887012
"1133",13,21,1,2,173,3,1,0,1,0.514361654039919,0.468058203945774
"1134",13,18,1,1,174,1,1,1,5,0.519489685060501,0.432097868778889
"1135",13,35,1,1,175,1,1,1,4,0.206221287468921,0.169321405487107
"1136",13,29,1,2,176,2,1,0,3,0.823897614134126,0.782448725254539
"1137",13,32,1,1,177,1,1,1,5,0.390248901085506,0.355854835934408
"1138",13,39,1,2,178,2,2,1,4,0.622062335964133,0.610573986634688
"1139",13,26,1,1,179,1,1,1,4,0.457925779176773,0.407788887266584
"1140",13,18,1,1,180,2,2,0,3,0.732294261499379,0.759114439795214
"1141",13,23,1,2,181,2,2,1,3,0.558047139300679,0.620191400568718
"1142",13,30,1,2,182,2,2,1,3,0.406893746613416,0.443214212672847
"1143",13,21,1,1,183,2,2,0,2,0.656189295397677,0.648791369828293
"1144",13,18,1,2,184,2,2,1,4,0.538346770518032,0.610711210372274
"1145",13,35,1,1,185,2,1,1,4,0.624399660370234,0.62265019683231
"1146",13,29,1,1,186,2,1,1,3,0.576106861489193,0.549521494377542
"1147",13,32,1,1,187,2,1,1,4,0.520111015012204,0.629292750325727
"1148",13,39,1,1,188,2,1,1,4,0.529498364162808,0.461149628069273
"1149",13,26,1,1,189,3,2,0,2,1.04600602416782,1.08324537071738
"1150",13,18,1,1,190,2,1,1,4,0.414737136960849,0.361393783760999
"1151",13,23,1,1,191,3,2,0,2,1.1698701553325,1.14601381133326
"1152",13,30,1,1,192,2,2,0,3,0.670609122672923,0.667231236217969
"1153",13,21,1,2,193,2,1,0,3,1.02542200830766,0.985735320031557
"1154",13,18,1,2,194,2,2,1,4,0.732951569069617,0.729441300384218
"1155",13,35,1,1,195,3,2,0,2,1.26800141272469,1.25752651495192
"1156",13,29,1,1,196,3,2,0,1,0.792168447079492,0.817220620651043
"1157",13,32,1,1,197,2,1,1,4,0.479508072251821,0.500904364790697
"1158",13,39,1,2,198,3,1,0,1,0.635562601058843,0.576375108257436
"1159",13,26,1,2,199,2,2,1,4,0.734852384188314,0.747291976306541
"1160",13,18,1,2,200,3,1,0,1,0.741683100186554,0.729328370090877
"1161",13,23,1,2,201,2,2,1,3,0.666759550121874,0.69014850102653
"1162",13,30,1,1,202,2,1,1,4,0.556876093959954,0.466526246944101
"1163",13,21,1,1,203,3,2,0,1,0.603817482218085,0.613596279509771
"1164",13,18,1,1,204,1,1,1,5,0.30292137273104,0.261896574895939
"1165",13,35,1,1,205,2,1,1,4,0.58423468265386,0.56574636180624
"1166",13,29,1,2,206,1,2,1,5,0.424934071029045,0.429442023270871
"1167",13,32,1,1,207,3,2,0,1,0.407106409643843,0.402646780572487
"1168",13,39,1,1,208,2,1,1,4,0.39877666539798,0.484279043818617
"1169",13,26,1,2,209,1,2,1,4,0.365132010359326,0.300126778548454
"1170",13,18,1,2,210,3,2,1,3,0.856748519414449,0.834786748950926
"1171",13,23,1,1,211,1,1,1,4,0.371972829972654,0.367104817928021
"1172",13,30,1,1,212,3,2,0,1,0.706581675876315,0.779256156518221
"1173",13,21,1,1,213,1,1,1,5,0.438269360377398,0.530482234359578
"1174",13,18,1,1,214,2,1,1,4,0.596792195952633,0.603690558312627
"1175",13,35,1,2,215,2,2,1,3,0.679201937798037,0.721255806359426
"1176",13,29,1,1,216,2,1,1,4,0.740358123513377,0.74412911188927
"1177",13,32,1,2,217,2,2,1,3,0.69659900370101,0.738469431447027
"1178",13,39,1,2,218,1,1,0,3,0.621047638089712,0.661498660886044
"1179",13,26,1,1,219,1,1,1,5,0.549742271702307,0.616987077530669
"1180",13,18,1,1,220,2,2,0,2,0.60334836783728,0.484292681659003
"1181",13,23,1,2,221,2,1,0,3,0.596829645428255,0.557979947412567
"1182",13,30,1,2,222,3,2,1,2,0.600983758782822,0.57675175863903
"1183",13,21,1,2,223,2,2,1,4,0.55475709101757,0.57307708481106
"1184",13,18,1,2,224,3,1,0,2,1.37332203441881,1.45540201944681
"1185",13,35,1,2,225,3,2,1,2,0.716514718043445,0.687597775844042
"1186",13,29,1,1,226,2,1,1,3,0.556023932944376,0.640330933585567
"1187",13,32,1,2,227,1,1,0,3,0.444088767346714,0.442674982026104
"1188",13,39,1,1,228,3,1,1,2,0.801649490322217,0.802323508106083
"1189",13,26,1,1,229,3,2,0,1,0.676185506142432,0.639769470475866
"1190",13,18,1,2,230,2,1,0,2,0.498294478928806,0.460311238203653
"1191",13,23,1,2,231,2,2,1,4,0.495899999249549,0.560215563947861
"1192",13,30,1,2,232,2,1,0,2,0.899126041929886,0.828372664217931
"1193",13,21,1,2,233,1,1,0,3,0.436070984618238,0.416589331462886
"1194",13,18,1,2,234,3,1,0,2,1.37129038465993,1.39571008562786
"1195",13,35,1,1,235,2,2,0,2,0.556704777885833,0.596372702730046
"1196",13,29,1,1,236,2,1,1,3,0.50344101900386,0.546714554662819
"1197",13,32,1,1,237,1,1,1,5,0.375615349675757,0.387930673553243
"1198",13,39,1,1,238,2,1,1,3,0.5304992548614,0.497201559436658
"1199",13,26,1,2,239,2,1,0,3,0.573269209763527,0.564555049751851
"1200",13,18,1,1,240,3,2,0,1,1.1967518854289,1.20908465665479
"1201",12,30,2,2,1,2,1,0,2,0.69254013744217,0.699624161374553
"1202",12,18,2,1,2,1,1,1,4,0.366514027278789,0.371336670001635
"1203",12,28,2,2,3,2,2,1,4,0.621424637189876,0.562327968904109
"1204",12,24,2,1,4,3,2,0,1,1.15570285346568,1.14958346369311
"1205",12,25,2,2,5,2,2,1,3,0.70568468268595,0.730809139123876
"1206",12,21,2,2,6,2,1,0,3,0.918467186940805,0.888184883068289
"1207",12,23,2,2,7,2,1,0,2,0.858462805357796,0.830627627652877
"1208",12,36,2,2,8,2,2,1,4,0.57626143136053,0.573279438202423
"1209",12,26,2,1,9,3,1,1,2,1.12132446886142,1.126377136613
"1210",12,31,2,2,10,1,2,1,5,0.454713139182563,0.431113747429827
"1211",12,30,2,1,11,3,1,1,3,0.915589075840603,0.953383081951287
"1212",12,18,2,2,12,3,1,0,1,1.00212519736679,1.01891630189814
"1213",12,28,2,1,13,2,1,1,3,0.765038765624711,0.814140334060399
"1214",12,24,2,2,14,3,1,0,1,1.07939824116609,1.02441945780615
"1215",12,25,2,1,15,2,2,0,3,0.605918488886516,0.596991343186599
"1216",12,21,2,1,16,3,2,0,2,0.980467061727675,0.979207498017223
"1217",12,23,2,2,17,1,2,1,5,0.374464891154662,0.360123178333099
"1218",12,36,2,2,18,3,2,1,3,1.12556172508819,1.16544648102056
"1219",12,26,2,1,19,1,1,1,4,0.397934836659037,0.378162582291439
"1220",12,31,2,2,20,1,2,1,5,0.475737706668492,0.446481488866153
"1221",12,30,2,1,21,2,2,0,3,0.552687047580198,0.537305612421345
"1222",12,18,2,2,22,1,2,1,4,0.301748920149036,0.332036506335012
"1223",12,28,2,2,23,3,1,0,2,1.18177088946603,1.17399831038717
"1224",12,24,2,1,24,2,1,1,4,0.63123337031231,0.600405210074826
"1225",12,25,2,1,25,1,1,1,5,0.278102877514525,0.286380890706046
"1226",12,21,2,2,26,2,1,0,2,0.43406165005421,0.343416569926837
"1227",12,23,2,1,27,3,2,0,1,0.578878900054093,0.614862041936945
"1228",12,36,2,1,28,3,2,0,2,1.08230916377287,1.15875913795627
"1229",12,26,2,2,29,3,2,1,2,0.880922447538383,0.828457046749638
"1230",12,31,2,2,30,2,1,0,3,0.635727138938892,0.639878677649504
"1231",12,30,2,1,31,1,2,0,3,0.657083591740499,0.609254108720772
"1232",12,18,2,1,32,2,1,1,3,0.652503407289693,0.598359771673436
"1233",12,28,2,1,33,3,2,0,1,0.635448278068808,0.675420193131611
"1234",12,24,2,2,34,1,2,1,4,0.369464037776199,0.367298701022665
"1235",12,25,2,1,35,1,1,1,5,0.459954124486868,0.544325854315807
"1236",12,21,2,2,36,2,1,0,3,0.735844470581352,0.650998031615768
"1237",12,23,2,1,37,3,1,1,3,0.588449018819233,0.55969957349845
"1238",12,36,2,2,38,3,1,0,2,0.951442515433102,0.980687567142531
"1239",12,26,2,1,39,1,1,1,4,0.383086796227868,0.395752028062473
"1240",12,31,2,2,40,2,2,1,3,0.436242164277035,0.414301964019249
"1241",12,30,2,1,41,3,2,0,2,1.33598951746875,1.36410173737044
"1242",12,18,2,1,42,1,1,1,4,0.381349102602265,0.317774020594081
"1243",12,28,2,2,43,3,1,0,1,0.668610134328451,0.685834825285955
"1244",12,24,2,2,44,2,1,0,3,0.773510283239933,0.804150321214738
"1245",12,25,2,2,45,2,2,1,3,0.73237587798783,0.669446910323867
"1246",12,21,2,2,46,2,2,1,4,0.610619512713954,0.565807564223792
"1247",12,23,2,1,47,2,1,1,3,0.496410804841782,0.607985191049376
"1248",12,36,2,1,48,3,2,0,1,0.790808523121635,0.737930420873104
"1249",12,26,2,2,49,3,2,1,3,0.915341845273688,0.844437648628002
"1250",12,31,2,1,50,2,1,1,3,0.56739982182664,0.581844188769066
"1251",12,30,2,1,51,2,2,0,2,0.826811919538766,0.826310505739202
"1252",12,18,2,1,52,1,2,0,3,0.564900801114582,0.622015799666442
"1253",12,28,2,1,53,1,2,0,3,0.508489963528504,0.495879026200067
"1254",12,24,2,1,54,1,1,1,4,0.249119031828775,0.211137201666671
"1255",12,25,2,1,55,3,2,0,1,0.936506508022187,0.976205737935428
"1256",12,21,2,1,56,1,1,1,5,0.440931264277161,0.398925614314343
"1257",12,23,2,1,57,2,1,1,4,0.670649348050877,0.665738168263802
"1258",12,36,2,1,58,2,1,1,4,0.646719578623593,0.724201286108145
"1259",12,26,2,2,59,1,2,1,4,0.421234301151258,0.463432727913848
"1260",12,31,2,2,60,2,2,1,4,0.675527187482526,0.725568903582871
"1261",12,30,2,2,61,1,2,1,5,0.355793605232249,0.38469890157017
"1262",12,18,2,1,62,1,1,1,5,0.466599732824803,0.442476850082677
"1263",12,28,2,1,63,2,2,0,2,0.908346751285998,0.950593778818735
"1264",12,24,2,2,64,2,2,1,4,0.459754621794364,0.464185826673632
"1265",12,25,2,2,65,1,2,1,4,0.326661150912431,0.342912938891238
"1266",12,21,2,2,66,3,2,1,3,1.03294245994051,0.990952490641011
"1267",12,23,2,1,67,3,1,1,2,0.749778407085641,0.728799323669317
"1268",12,36,2,1,68,3,1,1,3,0.758366941081584,0.763774565040942
"1269",12,26,2,2,69,3,2,1,2,0.72053528679887,0.640621091959797
"1270",12,31,2,1,70,1,1,1,4,0.557437112051705,0.528571166550692
"1271",12,30,2,2,71,1,2,1,5,0.412617719712736,0.414702282219172
"1272",12,18,2,1,72,1,2,0,4,0.444185756721094,0.517589402527355
"1273",12,28,2,2,73,1,2,1,4,0.450219687840065,0.410349240677594
"1274",12,24,2,1,74,2,2,0,3,0.785713129243811,0.797323770353287
"1275",12,25,2,2,75,1,1,0,3,0.691812541657611,0.752714277440582
"1276",12,21,2,1,76,2,2,0,3,0.493055339126617,0.443159454628385
"1277",12,23,2,2,77,1,2,1,5,0.367845530977216,0.379787109744052
"1278",12,36,2,2,78,3,2,1,3,0.546324619219268,0.561592320732012
"1279",12,26,2,1,79,2,1,1,4,0.602381609264214,0.644926277784297
"1280",12,31,2,2,80,1,2,1,4,0.384455401395817,0.4490661293495
"1281",12,30,2,1,81,1,1,1,5,0.428972495845009,0.426858708184298
"1282",12,18,2,1,82,3,1,1,3,0.554898421448851,0.565236943116298
"1283",12,28,2,2,83,2,1,0,3,0.57632622150676,0.508077035924469
"1284",12,24,2,2,84,3,1,0,2,0.983514384193488,0.933798231680157
"1285",12,25,2,1,85,3,1,1,3,0.875167835882108,0.986035024372421
"1286",12,21,2,1,86,3,1,1,2,0.800797957416506,0.806489694261954
"1287",12,23,2,2,87,3,2,1,3,0.79431607246146,0.710939114852982
"1288",12,36,2,1,88,3,1,1,3,0.944229790820312,0.940926066946207
"1289",12,26,2,2,89,3,1,0,2,1.24101378986016,1.19926874841763
"1290",12,31,2,2,90,1,1,0,4,0.516252330853755,0.609610826731428
"1291",12,30,2,2,91,2,1,0,2,0.476654061014171,0.501379842988667
"1292",12,18,2,1,92,3,2,0,2,1.08783165493677,1.13680605697751
"1293",12,28,2,2,93,2,2,1,3,0.606009388156827,0.541452816774508
"1294",12,24,2,2,94,2,2,1,3,0.545670931619979,0.588861445622656
"1295",12,25,2,2,95,2,1,0,3,0.648150588076173,0.640103147648784
"1296",12,21,2,2,96,2,2,1,4,0.723460753378882,0.740084586572135
"1297",12,23,2,1,97,2,2,0,2,0.769745157898102,0.693232702010313
"1298",12,36,2,2,98,2,2,1,3,0.604427451956667,0.552763642751455
"1299",12,26,2,2,99,1,2,1,4,0.293362929313187,0.250255652073435
"1300",12,31,2,1,100,2,1,1,3,0.635744623942142,0.6179558350645
"1301",12,30,2,2,101,1,2,1,4,0.308573825221758,0.226093589681217
"1302",12,18,2,1,102,1,1,1,4,0.488002949785604,0.422526984202648
"1303",12,28,2,2,103,1,2,1,5,0.324769823337913,0.321614037508532
"1304",12,24,2,1,104,1,1,1,4,0.397792868474492,0.498742101868273
"1305",12,25,2,2,105,2,1,0,2,0.69127065028612,0.620476123490851
"1306",12,21,2,2,106,2,1,0,3,0.776693878269256,0.696809534048127
"1307",12,23,2,1,107,3,1,1,2,0.628039040097565,0.670596781585151
"1308",12,36,2,1,108,3,1,1,3,1.19372312063126,1.15337135637618
"1309",12,26,2,1,109,2,1,1,3,0.501195738499115,0.446527906517468
"1310",12,31,2,1,110,1,1,1,5,0.361147274496831,0.395216468307851
"1311",12,30,2,1,111,3,2,0,1,0.616250513274011,0.554858532802987
"1312",12,18,2,1,112,3,2,0,2,0.825959858535479,0.892116673370715
"1313",12,28,2,2,113,2,1,0,2,0.821083318633356,0.768923491127499
"1314",12,24,2,2,114,1,2,1,4,0.297974036791152,0.314893605482064
"1315",12,25,2,2,115,1,2,1,4,0.494027933860285,0.515533460528314
"1316",12,21,2,2,116,1,1,0,3,0.615780328084927,0.662626880826255
"1317",12,23,2,1,117,2,1,1,3,0.596990985618575,0.623847868884343
"1318",12,36,2,2,118,2,1,0,2,0.801561626666668,0.741531000546595
"1319",12,26,2,2,119,3,1,0,1,1.40442612212835,1.40014875245122
"1320",12,31,2,2,120,3,2,1,2,0.78346106261742,0.799823233847153
"1321",12,30,2,1,121,3,2,0,2,0.747587218570988,0.725385355449607
"1322",12,18,2,1,122,1,2,0,4,0.517028955912401,0.376123108898508
"1323",12,28,2,2,123,3,1,0,2,0.83346083392066,0.816955497489059
"1324",12,24,2,1,124,3,2,0,1,1.25867148058691,1.26988171714657
"1325",12,25,2,2,125,1,2,1,4,0.507931082143425,0.5958023055647
"1326",12,21,2,1,126,1,1,1,5,0.40826106107754,0.455362553417652
"1327",12,23,2,2,127,1,2,1,4,0.473891425678299,0.522715825923582
"1328",12,36,2,2,128,2,1,0,3,0.755069898747703,0.777574027069585
"1329",12,26,2,1,129,1,1,1,4,0.374065598991402,0.352734028467965
"1330",12,31,2,2,130,2,2,1,4,0.683793341908492,0.725557015210007
"1331",12,30,2,1,131,2,1,1,3,0.684706695607563,0.68206601144068
"1332",12,18,2,1,132,3,2,0,2,0.534905104007277,0.470130365344364
"1333",12,28,2,1,133,3,2,0,2,0.681746523923094,0.703227029124378
"1334",12,24,2,1,134,2,2,0,3,0.899544231353447,0.925703508510922
"1335",12,25,2,2,135,2,1,0,2,0.598318938912484,0.580891166698157
"1336",12,21,2,2,136,2,1,0,2,0.53413603412888,0.552880807461773
"1337",12,23,2,2,137,2,2,1,3,0.639513991786775,0.594145884933669
"1338",12,36,2,2,138,1,2,1,4,0.427873797622579,0.466502063539004
"1339",12,26,2,1,139,2,1,1,4,0.616499603512841,0.620842493352002
"1340",12,31,2,2,140,1,1,0,4,0.481993472099249,0.420161541852459
"1341",12,30,2,1,141,3,1,1,3,0.683874680600369,0.644799152206254
"1342",12,18,2,1,142,2,2,0,3,0.707711837172316,0.690303726850081
"1343",12,28,2,2,143,3,1,0,2,1.00286129974618,1.01502420434115
"1344",12,24,2,2,144,1,2,1,4,0.365814501731054,0.32207103986792
"1345",12,25,2,1,145,3,2,0,1,0.824265876224032,0.754928845416744
"1346",12,21,2,1,146,1,1,1,4,0.363380584089387,0.358443866736132
"1347",12,23,2,1,147,2,2,0,3,0.562361030163686,0.638707467793133
"1348",12,36,2,2,148,3,1,0,1,1.05965641531434,1.01192520911136
"1349",12,26,2,2,149,3,1,0,1,0.752682522711262,0.764728971314786
"1350",12,31,2,2,150,2,2,1,4,0.632940615971313,0.615235776519781
"1351",12,30,2,2,151,1,2,1,5,0.419637648462034,0.3796528629907
"1352",12,18,2,1,152,2,1,1,3,0.463129361438931,0.315153586783977
"1353",12,28,2,1,153,3,2,0,1,1.47246679869349,1.48144997915637
"1354",12,24,2,2,154,1,2,1,4,0.375249302624361,0.365030871798672
"1355",12,25,2,1,155,3,2,0,1,1.00567326658391,0.97630501588327
"1356",12,21,2,2,156,2,1,0,3,0.689284046979917,0.705735522093519
"1357",12,23,2,2,157,1,1,0,4,0.502410514576103,0.627656736239659
"1358",12,36,2,1,158,3,2,0,2,0.956469967277111,1.01174193036454
"1359",12,26,2,1,159,2,1,1,3,0.633676742282029,0.617294302810081
"1360",12,31,2,1,160,3,2,0,2,1.36672983901725,1.35909037234783
"1361",12,30,2,1,161,3,2,0,2,0.951794350267387,0.991079277395698
"1362",12,18,2,2,162,2,2,1,3,0.577808372050424,0.583849448965774
"1363",12,28,2,1,163,1,1,1,5,0.338366021212688,0.289442136223478
"1364",12,24,2,2,164,1,2,1,5,0.482151015459172,0.470387567132496
"1365",12,25,2,2,165,1,2,1,4,0.335282234423093,0.415938477083587
"1366",12,21,2,2,166,3,1,0,2,1.17576549711066,1.2434420347777
"1367",12,23,2,1,167,3,2,0,1,1.01018661701305,1.03292688936725
"1368",12,36,2,2,168,1,1,0,3,0.58500363064479,0.570068199187574
"1369",12,26,2,1,169,3,2,0,2,0.923858882802857,0.943823676576627
"1370",12,31,2,1,170,1,1,1,5,0.500895627470903,0.50891823969299
"1371",12,30,2,1,171,1,1,1,5,0.368849264245087,0.434584453888539
"1372",12,18,2,1,172,3,2,0,1,1.56706706996154,1.53670555697425
"1373",12,28,2,1,173,1,1,1,4,0.510278378040565,0.488124914448943
"1374",12,24,2,2,174,2,2,1,4,0.668747543739675,0.661489582023104
"1375",12,25,2,1,175,3,2,0,2,0.94415337772218,0.92630553270063
"1376",12,21,2,1,176,2,2,0,2,0.932131235343211,0.970604812323101
"1377",12,23,2,2,177,2,1,0,2,0.498187919749326,0.517285475585709
"1378",12,36,2,2,178,3,2,1,2,0.946579246352973,0.993006414281855
"1379",12,26,2,2,179,1,2,1,4,0.459985485715646,0.385141964646182
"1380",12,31,2,1,180,3,2,0,2,1.27108369194014,1.36445771987677
"1381",12,30,2,2,181,1,2,1,4,0.461907651586843,0.373443913462879
"1382",12,18,2,2,182,3,2,1,3,0.680271565950636,0.632548651905789
"1383",12,28,2,2,183,1,2,1,5,0.453054187811975,0.455645786293311
"1384",12,24,2,1,184,2,1,1,3,0.572063879283764,0.550159742805394
"1385",12,25,2,2,185,3,1,0,2,1.30828788187218,1.3369381666005
"1386",12,21,2,1,186,1,1,1,5,0.458084315093082,0.518678018089154
"1387",12,23,2,2,187,2,1,0,3,0.651166258129183,0.628097219761839
"1388",12,36,2,2,188,3,1,0,1,0.915473480258757,0.948522893597675
"1389",12,26,2,2,189,2,2,1,4,0.589162993910484,0.538990963254485
"1390",12,31,2,1,190,2,2,0,2,0.643446906836528,0.708769375212142
"1391",12,30,2,2,191,1,2,1,4,0.480294248734542,0.444478390694202
"1392",12,18,2,1,192,1,1,1,5,0.365609112224726,0.300922271613594
"1393",12,28,2,1,193,3,1,1,3,0.900019605363683,0.896202991101748
"1394",12,24,2,2,194,2,1,0,2,0.594822576374536,0.604716231429622
"1395",12,25,2,2,195,2,1,0,2,0.875106128729456,0.836976848504699
"1396",12,21,2,1,196,2,1,1,3,0.582284410772585,0.550754640528645
"1397",12,23,2,2,197,2,2,1,4,0.443586201775544,0.487092508618881
"1398",12,36,2,2,198,1,2,1,5,0.474898943509049,0.423972055742315
"1399",12,26,2,2,199,2,2,1,3,0.773419065614442,0.773884088766249
"1400",12,31,2,1,200,2,1,1,4,0.56758016730851,0.621848075945497
"1401",12,30,2,1,201,3,1,1,3,0.917534241600402,0.929676389814577
"1402",12,18,2,2,202,1,2,1,5,0.140698247043093,0.124053568304619
"1403",12,28,2,1,203,3,2,0,1,0.746304738933532,0.752328937450031
"1404",12,24,2,2,204,1,1,0,4,0.592648200920599,0.696954427725806
"1405",12,25,2,1,205,2,1,1,3,0.970393051501346,1.00229610458715
"1406",12,21,2,1,206,1,1,1,5,0.357750295485941,0.341013527287521
"1407",12,23,2,2,207,3,1,0,2,0.190740352694732,0.213066722853937
"1408",12,36,2,1,208,2,1,1,4,0.517689882520726,0.518437064995025
"1409",12,26,2,1,209,3,2,0,2,1.08403477874029,1.10186309522722
"1410",12,31,2,1,210,2,2,0,3,0.564630950442707,0.606747538613823
"1411",12,30,2,1,211,2,1,1,4,0.408924674482834,0.372849671145009
"1412",12,18,2,2,212,1,2,1,4,0.524080389734233,0.497394707529521
"1413",12,28,2,1,213,3,1,1,3,0.507056156233658,0.473284213388917
"1414",12,24,2,1,214,1,1,1,4,0.356660836376306,0.290021305410601
"1415",12,25,2,1,215,1,2,0,3,0.533815655125602,0.591658213404243
"1416",12,21,2,2,216,1,1,0,4,0.525510448486491,0.502069806722069
"1417",12,23,2,2,217,1,2,1,4,0.31712496861197,0.323521954600709
"1418",12,36,2,1,218,3,1,1,3,0.536269665539824,0.605001793545506
"1419",12,26,2,2,219,1,1,0,3,0.459399720532995,0.457175186486734
"1420",12,31,2,1,220,2,1,1,3,0.581952591747858,0.538585807663541
"1421",12,30,2,1,221,3,2,0,1,1.20926978622501,1.13457712257453
"1422",12,18,2,2,222,3,2,1,2,0.884189690953465,0.850955241934723
"1423",12,28,2,1,223,3,2,0,2,1.28565141873258,1.35101129824869
"1424",12,24,2,1,224,3,2,0,1,0.83607101862087,0.879880473207125
"1425",12,25,2,2,225,1,2,1,4,0.300805620211858,0.345850275195276
"1426",12,21,2,2,226,1,1,0,4,0.609334328054768,0.600297934195389
"1427",12,23,2,2,227,2,2,1,3,0.697936450192747,0.585760039910313
"1428",12,36,2,2,228,2,2,1,4,0.375623139077926,0.294917911587018
"1429",12,26,2,2,229,1,2,1,4,0.373384980576569,0.439574057605748
"1430",12,31,2,1,230,1,2,0,3,0.308644359485291,0.241540864029431
"1431",12,30,2,1,231,3,2,0,1,1.11511790708433,1.06959617337312
"1432",12,18,2,1,232,1,2,0,3,0.391127975096612,0.359336568202903
"1433",12,28,2,1,233,3,2,0,1,1.07755486289501,0.99554632943236
"1434",12,24,2,1,234,3,1,1,2,0.99561540750428,1.03610758204637
"1435",12,25,2,2,235,1,2,1,5,0.429174392149685,0.424832301428169
"1436",12,21,2,1,236,3,1,1,2,0.543679631230266,0.583662101008895
"1437",12,23,2,1,237,2,2,0,3,0.712712881068425,0.669593655018043
"1438",12,36,2,2,238,1,2,1,4,0.417975051819539,0.374603317873307
"1439",12,26,2,2,239,3,2,1,3,0.885817608591661,0.885601425701479
"1440",12,31,2,2,240,3,1,0,1,1.42032494026364,1.33685240066488
"1441",11,27,1,2,1,3,2,1,3,0.925495095702228,0.975708041214951
"1442",11,40,1,2,2,1,2,1,4,0.393506989447055,0.413194442536755
"1443",11,30,1,1,3,3,2,0,1,0.323540230936726,0.331734332515546
"1444",11,33,1,1,4,2,2,0,2,0.63139045898285,0.559868131554031
"1445",11,19,1,1,5,2,1,1,4,0.681398720870423,0.662021367666892
"1446",11,30,1,2,6,2,2,1,3,0.546604954183163,0.535997098179182
"1447",11,31,1,2,7,2,2,1,3,0.550618885281436,0.516598603166206
"1448",11,34,1,1,8,2,2,0,2,0.555388236821051,0.571251473628237
"1449",11,34,1,1,9,2,1,1,3,0.685306314583162,0.550157649025529
"1450",11,38,1,2,10,2,1,0,2,0.731342206185774,0.695220923456385
"1451",11,27,1,2,11,3,2,1,3,0.702996104274952,0.726059057279474
"1452",11,40,1,1,12,1,1,1,4,0.423219800228444,0.348083778891074
"1453",11,30,1,2,13,2,2,1,3,0.334445547298145,0.328834686876327
"1454",11,33,1,1,14,1,2,0,4,0.577994498166345,0.621909025722077
"1455",11,19,1,2,15,1,1,0,4,0.491545336968968,0.501703473138532
"1456",11,30,1,2,16,2,2,1,4,0.461474706024796,0.433745995141831
"1457",11,31,1,2,17,2,1,0,2,0.678844737214879,0.747125694801399
"1458",11,34,1,1,18,3,2,0,1,1.30733181323171,1.25077680327267
"1459",11,34,1,2,19,2,2,1,4,0.48917086033443,0.473028205284014
"1460",11,38,1,1,20,1,1,1,4,0.458250028835056,0.555413336928298
"1461",11,27,1,1,21,2,2,0,3,0.555677718941379,0.493725227147899
"1462",11,40,1,1,22,2,1,1,4,0.496971080203463,0.552562208392323
"1463",11,30,1,1,23,1,1,1,4,0.31043010802718,0.291615242177294
"1464",11,33,1,1,24,3,2,0,1,1.45900077861342,1.41159642699377
"1465",11,19,1,2,25,1,2,1,4,0.413894733382141,0.468788197948307
"1466",11,30,1,2,26,3,2,1,3,0.50764260174355,0.421697744562602
"1467",11,31,1,1,27,1,1,1,4,0.40001243587207,0.450782646295243
"1468",11,34,1,2,28,1,2,1,4,0.37181561342164,0.386860902385491
"1469",11,34,1,2,29,3,2,1,2,0.733841065711314,0.816208320983377
"1470",11,38,1,1,30,1,1,1,5,0.366765023827756,0.332512139859966
"1471",11,27,1,1,31,3,2,0,2,0.767996515982732,0.72925537481923
"1472",11,40,1,1,32,1,1,1,4,0.299413330066563,0.25442772019842
"1473",11,30,1,1,33,1,1,1,4,0.30521892997413,0.266813461962863
"1474",11,33,1,2,34,2,1,0,2,0.589128827451243,0.632079016062332
"1475",11,19,1,1,35,3,1,1,3,0.649353119401658,0.665640088242498
"1476",11,30,1,1,36,3,1,1,2,0.466178698365223,0.549631726616561
"1477",11,31,1,2,37,3,2,1,3,0.925215671980133,0.925522812829923
"1478",11,34,1,2,38,2,2,1,3,0.656862679504538,0.64480465399599
"1479",11,34,1,2,39,1,1,0,4,0.585502761979915,0.552978958722745
"1480",11,38,1,2,40,2,1,0,3,0.683159131571327,0.655862776590819
"1481",11,27,1,1,41,3,1,1,2,1.0697003416531,1.0352399262845
"1482",11,40,1,1,42,2,1,1,3,0.687890002010034,0.683659086203055
"1483",11,30,1,2,43,2,1,0,3,0.792512089082554,0.764530752132629
"1484",11,33,1,2,44,2,2,1,3,0.670630443885525,0.575285961590507
"1485",11,19,1,1,45,3,2,0,2,1.06159334579854,1.03529542734491
"1486",11,30,1,2,46,3,2,1,2,0.974943038544099,1.00286488680548
"1487",11,31,1,2,47,3,1,0,2,0.622124115801865,0.582936406896362
"1488",11,34,1,1,48,2,1,1,4,0.621889153635802,0.547582974463085
"1489",11,34,1,2,49,1,2,1,4,0.35538565880542,0.384240120615246
"1490",11,38,1,1,50,2,1,1,4,0.811398802908635,0.816607610873154
"1491",11,27,1,2,51,3,1,0,2,1.02986345874128,1.01657054485643
"1492",11,40,1,1,52,3,1,1,2,0.961649486023155,1.01145785180573
"1493",11,30,1,1,53,1,2,0,4,0.527569748794182,0.494245865172972
"1494",11,33,1,1,54,1,2,0,3,0.662251092488665,0.562645804067861
"1495",11,19,1,2,55,2,2,1,4,0.488381837873295,0.510740101924109
"1496",11,30,1,1,56,1,1,1,4,0.351746203916053,0.434030074159332
"1497",11,31,1,1,57,1,1,1,5,0.404593153785647,0.344042710736323
"1498",11,34,1,2,58,2,2,1,3,0.937147258305287,0.926916092532854
"1499",11,34,1,2,59,2,2,1,4,0.433673825195729,0.553798649094655
"1500",11,38,1,1,60,3,1,1,3,0.587217182115227,0.574590731644928
"1501",11,27,1,1,61,1,2,0,3,0.640059113253755,0.652453768493252
"1502",11,40,1,1,62,3,2,0,2,0.97893640899178,0.90755066554623
"1503",11,30,1,2,63,3,2,1,3,0.573252936752198,0.553868227358373
"1504",11,33,1,1,64,2,1,1,4,0.659747358884882,0.74242037520414
"1505",11,19,1,2,65,2,2,1,3,0.697182741881011,0.676068182724961
"1506",11,30,1,2,66,3,1,0,2,0.49930788710716,0.46107329336004
"1507",11,31,1,2,67,3,1,0,1,0.889457455348204,0.918457473656549
"1508",11,34,1,1,68,1,1,1,4,0.592673484830453,0.636688467455078
"1509",11,34,1,2,69,3,2,1,3,0.641121880079746,0.72515348159881
"1510",11,38,1,1,70,1,1,1,4,0.496937609809824,0.474109868505408
"1511",11,27,1,1,71,3,2,0,1,1.45894475521971,1.50832250075968
"1512",11,40,1,1,72,2,1,1,4,0.538473336723072,0.619000083006469
"1513",11,30,1,1,73,3,1,1,2,0.774136833825794,0.742928234204319
"1514",11,33,1,1,74,1,1,1,5,0.281528821701472,0.291124350064171
"1515",11,19,1,2,75,3,2,1,2,0.614636854735101,0.541626519139982
"1516",11,30,1,1,76,1,1,1,5,0.369817811668216,0.365454492589874
"1517",11,31,1,1,77,3,2,0,2,0.74002424936068,0.769761300301193
"1518",11,34,1,1,78,1,1,1,4,0.343777536852758,0.371187499755009
"1519",11,34,1,2,79,1,1,0,4,0.741756658769871,0.650071347205427
"1520",11,38,1,2,80,1,2,1,5,0.443483762558373,0.400835965642024
"1521",11,27,1,2,81,1,1,0,4,0.483698007157442,0.427309548539988
"1522",11,40,1,1,82,1,2,0,3,0.596385868139352,0.556453273673888
"1523",11,30,1,1,83,3,1,1,2,0.93797616880613,0.972048249794465
"1524",11,33,1,2,84,3,1,0,2,0.723039940663287,0.705680296223143
"1525",11,19,1,1,85,1,2,0,4,0.426768931432987,0.310629181366328
"1526",11,30,1,2,86,2,2,1,4,0.673423704346908,0.696087644533687
"1527",11,31,1,1,87,2,1,1,3,0.632047010496749,0.642499234971372
"1528",11,34,1,2,88,3,2,1,2,0.95031021306582,0.940051242843461
"1529",11,34,1,1,89,1,2,0,3,0.593165802060274,0.582514043702412
"1530",11,38,1,1,90,1,1,1,4,0.318766516933251,0.294335410854753
"1531",11,27,1,2,91,2,2,1,4,0.546907955499368,0.57635417326166
"1532",11,40,1,1,92,2,2,0,2,0.520584134424717,0.506751951613677
"1533",11,30,1,1,93,2,1,1,4,0.439096835636217,0.478839861060213
"1534",11,33,1,1,94,1,1,1,4,0.451057567640368,0.434897209759666
"1535",11,19,1,1,95,3,2,0,2,1.10419599680932,1.1178888354201
"1536",11,30,1,2,96,1,2,1,5,0.384119064674293,0.440226586218876
"1537",11,31,1,2,97,2,1,0,2,0.391573012461769,0.315505894319723
"1538",11,34,1,2,98,2,2,1,4,0.71110278262126,0.728255319181353
"1539",11,34,1,2,99,1,2,1,4,0.524838055097921,0.588012870050584
"1540",11,38,1,1,100,1,1,1,4,0.502951753216825,0.518222886020171
"1541",11,27,1,2,101,3,1,0,2,1.35911518303495,1.3649919961772
"1542",11,40,1,2,102,3,2,1,2,0.92553002883322,0.935636028701659
"1543",11,30,1,1,103,2,1,1,3,0.34366596704687,0.375596394920047
"1544",11,33,1,2,104,2,1,0,3,0.844357316968708,0.914484875276855
"1545",11,19,1,2,105,2,2,1,3,0.452355114259333,0.405232233059536
"1546",11,30,1,2,106,3,2,1,2,0.581820587840509,0.49836577463095
"1547",11,31,1,1,107,2,2,0,2,0.351006297329833,0.387834334255847
"1548",11,34,1,2,108,1,1,0,3,0.599672146844159,0.657120637504326
"1549",11,34,1,1,109,2,1,1,4,0.786037064902551,0.818976067772999
"1550",11,38,1,2,110,2,2,1,4,0.501221911979048,0.475139182265709
"1551",11,27,1,1,111,1,1,1,5,0.364480277917445,0.3992971891932
"1552",11,40,1,1,112,1,2,0,4,0.613543773110081,0.594923779176389
"1553",11,30,1,2,113,2,2,1,4,0.605357408742639,0.615601705400316
"1554",11,33,1,2,114,2,2,1,4,0.499312964867514,0.501088166683566
"1555",11,19,1,2,115,2,2,1,3,0.522491128076003,0.493232943250397
"1556",11,30,1,1,116,3,1,1,2,0.608843468375511,0.62022071517703
"1557",11,31,1,2,117,3,2,1,3,0.808362170840133,0.762034622802322
"1558",11,34,1,1,118,3,1,1,3,0.675450295843246,0.680676430884094
"1559",11,34,1,2,119,2,1,0,2,0.641363459134499,0.656569849738052
"1560",11,38,1,2,120,3,2,1,3,0.603684332925525,0.618369666234247
"1561",11,27,1,2,121,2,2,1,4,0.57806987836341,0.526439914598173
"1562",11,40,1,2,122,1,2,1,4,0.478021851941845,0.453241010227182
"1563",11,30,1,1,123,2,1,1,4,0.740820659226402,0.755534009537398
"1564",11,33,1,1,124,1,1,1,4,0.485490680745879,0.410330149186925
"1565",11,19,1,2,125,1,2,1,4,0.41256956099499,0.438216708063424
"1566",11,30,1,2,126,1,2,1,5,0.292595913955236,0.332377541250164
"1567",11,31,1,2,127,1,2,1,4,0.4423848272675,0.524860766709407
"1568",11,34,1,1,128,1,2,0,3,0.58546915491892,0.594906637632
"1569",11,34,1,2,129,3,1,0,1,1.01565707763592,1.00435399823835
"1570",11,38,1,2,130,2,2,1,3,0.675414269666807,0.595074652784666
"1571",11,27,1,1,131,1,2,0,3,0.487683439759913,0.509786528761306
"1572",11,40,1,2,132,1,2,1,4,0.358109942504826,0.452479337034753
"1573",11,30,1,1,133,3,1,1,2,0.768188629544755,0.747744712216315
"1574",11,33,1,1,134,1,1,1,4,0.31743675741028,0.291839488497729
"1575",11,19,1,1,135,1,1,1,4,0.384699499319074,0.295392902720535
"1576",11,30,1,1,136,3,1,1,3,0.738143485493093,0.716236865515716
