"","subj_no","age","group","stim","trial","difficulty","resp","corr","conf","RT_day1","RT_day2"
"1",18,19,2,2,1,3,1,0,1,0.583959984397133,0.579540432574434
"2",18,22,2,2,2,2,2,1,4,0.572264142521651,0.584237685790597
"3",18,20,2,2,3,1,2,1,4,0.427260434244839,0.436249381943101
"4",18,34,2,1,4,3,2,0,2,0.899601688932103,0.786017738852375
"5",18,32,2,2,5,2,1,0,2,0.567925970731267,0.572048452015653
"6",18,33,2,2,6,1,2,1,5,0.342476741993821,0.334503250001231
"7",18,18,2,2,7,1,2,1,5,0.431548227062327,0.416527169789329
"8",18,36,2,1,8,3,1,1,3,0.599705955590283,0.536804559011358
"9",18,26,2,2,9,1,2,1,4,0.399392959352026,0.420830979733422
"10",18,23,2,2,10,1,1,0,4,0.576556386490251,0.568659006498118
"11",18,19,2,1,11,3,2,0,1,0.883011825220108,0.866932522685613
"12",18,22,2,1,12,2,1,1,3,0.880073615949815,0.877887905044861
"13",18,20,2,2,13,1,2,1,5,0.297693006945106,0.345267210471252
"14",18,34,2,2,14,1,2,1,4,0.352638216699052,0.429043743111422
"15",18,32,2,1,15,2,2,0,2,0.83765546361971,0.82442574901013
"16",18,33,2,2,16,2,2,1,4,0.681364350738443,0.690438524346701
"17",18,18,2,1,17,1,1,1,5,0.471304561874198,0.448270476690307
"18",18,36,2,2,18,3,2,1,2,0.819876703276811,0.823724464928418
"19",18,26,2,1,19,3,2,0,1,0.977906348223861,0.964419539393329
"20",18,23,2,1,20,3,2,0,1,1.07644860925403,0.998604729950736
"21",18,19,2,1,21,2,1,1,3,0.626509061698935,0.697820213824866
"22",18,22,2,1,22,1,2,0,4,0.43696375178903,0.373783956768574
"23",18,20,2,1,23,3,1,1,2,0.562625547899705,0.518011043672003
"24",18,34,2,1,24,1,2,0,4,0.553482071048995,0.593426520219277
"25",18,32,2,1,25,3,2,0,1,1.23963012463927,1.25507536764782
"26",18,33,2,2,26,1,2,1,4,0.448028723931122,0.485241360131209
"27",18,18,2,2,27,3,2,1,2,0.732843754155411,0.706877488426648
"28",18,36,2,1,28,1,1,1,4,0.351899332160348,0.406345168433006
"29",18,26,2,1,29,3,2,0,2,0.408918382219282,0.372377595771438
"30",18,23,2,1,30,2,1,1,3,0.853609126361689,0.864457178719646
"31",18,19,2,2,31,1,2,1,4,0.258502944188333,0.246718757597848
"32",18,22,2,2,32,3,1,0,1,0.933485234080526,0.869473954697236
"33",18,20,2,2,33,3,2,1,2,0.847006110553148,0.78642727717669
"34",18,34,2,1,34,3,2,0,2,1.06264252046373,1.08563842646333
"35",18,32,2,1,35,1,1,1,5,0.425962020655418,0.367262314638953
"36",18,33,2,2,36,3,2,1,2,1.07921642805466,1.18188923944466
"37",18,18,2,1,37,1,2,0,4,0.530865273958526,0.476407847131961
"38",18,36,2,1,38,1,1,1,5,0.205042721377359,0.251747094958215
"39",18,26,2,2,39,1,2,1,5,0.379873360293476,0.394354735044682
"40",18,23,2,2,40,3,2,1,3,0.487363714831442,0.447897806169055
"41",18,19,2,1,41,3,2,0,1,0.851479262846116,0.726966135430448
"42",18,22,2,2,42,1,1,0,4,0.289300863497712,0.364511145142097
"43",18,20,2,2,43,2,1,0,2,0.802892472390785,0.780267051226456
"44",18,34,2,2,44,3,2,1,2,0.955575897638659,0.939675146778257
"45",18,32,2,1,45,3,2,0,2,0.893482983646162,0.974493883987572
"46",18,33,2,2,46,2,1,0,3,0.857689595471681,0.855864542587394
"47",18,18,2,1,47,2,2,0,3,0.677131213046638,0.730463684159333
"48",18,36,2,1,48,2,1,1,3,0.573148772542309,0.590567212030816
"49",18,26,2,1,49,2,1,1,4,0.701153998084675,0.749469144001071
"50",18,23,2,2,50,3,1,0,2,1.33228561623473,1.33929098434856
"51",18,19,2,2,51,2,2,1,3,0.518872063979804,0.4827492244891
"52",18,22,2,2,52,2,1,0,2,0.762886551847406,0.727103142787758
"53",18,20,2,2,53,2,2,1,3,0.513780465763272,0.584280887754625
"54",18,34,2,1,54,3,1,1,2,0.728516653072728,0.681408928395236
"55",18,32,2,1,55,1,2,0,4,0.515822241318972,0.497049672171224
"56",18,33,2,1,56,3,2,0,2,0.488421582374783,0.544626823928786
"57",18,18,2,1,57,2,1,1,4,0.77683491813222,0.787424030838374
"58",18,36,2,2,58,3,2,1,3,0.91307962571399,0.93483988130654
"59",18,26,2,2,59,3,2,1,3,0.572319418208517,0.581892758292292
"60",18,23,2,1,60,3,1,1,2,0.987559401344132,1.04385946954535
"61",18,19,2,2,61,2,2,1,4,0.817499516905794,0.902219577533074
"62",18,22,2,1,62,3,1,1,3,0.752113797249282,0.757701264487979
"63",18,20,2,2,63,1,2,1,4,0.42076451646448,0.365273952549532
"64",18,34,2,1,64,3,2,0,2,0.626470289778558,0.619152093079148
"65",18,32,2,2,65,1,2,1,4,0.441283837593036,0.375781846033549
"66",18,33,2,1,66,1,2,0,3,0.562706254140436,0.528151957503357
"67",18,18,2,1,67,2,1,1,3,0.646554279867834,0.711359725460046
"68",18,36,2,2,68,3,1,0,2,1.06925576499222,1.07562173905105
"69",18,26,2,2,69,1,2,1,5,0.434859795150832,0.421405808377408
"70",18,23,2,1,70,3,2,0,1,1.09875409673577,1.16244013735873
"71",18,19,2,1,71,3,2,0,2,1.23840417126864,1.22377820491013
"72",18,22,2,1,72,2,1,1,3,0.538891930592441,0.542348247906533
"73",18,20,2,2,73,2,2,1,3,0.547159364192431,0.651322013114011
"74",18,34,2,2,74,2,2,1,4,0.744083970994038,0.78488324572297
"75",18,32,2,1,75,3,2,0,1,1.11462510483746,1.1092965703264
"76",18,33,2,2,76,2,2,1,3,0.658272587617611,0.715039578124002
"77",18,18,2,1,77,1,2,0,4,0.695379982812837,0.700882887614532
"78",18,36,2,2,78,3,1,0,2,0.878806932652267,0.90793240424849
"79",18,26,2,1,79,2,2,0,2,0.722116118175312,0.762066486811789
"80",18,23,2,2,80,1,2,1,5,0.525472832837991,0.584345018930748
"81",18,19,2,2,81,3,1,0,1,0.584432261646037,0.567368856930518
"82",18,22,2,2,82,1,2,1,5,0.266053753133199,0.306787974580934
"83",18,20,2,2,83,3,1,0,1,1.13384821061382,1.03739546494753
"84",18,34,2,2,84,1,1,0,4,0.655208365813508,0.596522053937983
"85",18,32,2,1,85,2,2,0,2,0.613728869683276,0.584044265742914
"86",18,33,2,1,86,1,1,1,5,0.478870047619629,0.549617873021681
"87",18,18,2,1,87,2,2,0,2,1.03740914181631,1.05100934389828
"88",18,36,2,2,88,1,1,0,4,0.636742721993091,0.64058293673922
"89",18,26,2,2,89,3,2,1,3,1.0149229300287,1.0924268574795
"90",18,23,2,2,90,2,2,1,4,0.519448966766514,0.396530541711093
"91",18,19,2,2,91,1,2,1,5,0.462275680456869,0.500380325336738
"92",18,22,2,1,92,3,1,1,3,0.616846209112869,0.672943979876335
"93",18,20,2,2,93,1,2,1,4,0.278416808324453,0.273168475337304
"94",18,34,2,2,94,2,2,1,3,0.296515029774887,0.231695821999716
"95",18,32,2,1,95,1,1,1,4,0.395191160099811,0.387479945467546
"96",18,33,2,1,96,3,1,1,2,1.06814223861426,1.04479031738949
"97",18,18,2,2,97,3,2,1,2,0.661477853124545,0.631876728452796
"98",18,36,2,1,98,2,2,0,3,0.655437108509656,0.628603234620268
"99",18,26,2,2,99,2,1,0,2,0.65687922300726,0.656259963181715
"100",18,23,2,1,100,3,1,1,2,1.00503791688511,0.999044827369779
"101",18,19,2,1,101,3,1,1,3,1.11347748500916,1.04150597211181
"102",18,22,2,2,102,2,1,0,3,1.20498972872731,1.15569677026437
"103",18,20,2,1,103,1,1,1,5,0.412648531611503,0.425010849121666
"104",18,34,2,2,104,1,2,1,4,0.48136495209365,0.533749799855485
"105",18,32,2,1,105,1,2,0,4,0.519203475815085,0.536613353192389
"106",18,33,2,2,106,1,2,1,4,0.488583917348753,0.565835348216458
"107",18,18,2,2,107,2,1,0,3,0.715894285159639,0.647268831322876
"108",18,36,2,2,108,3,2,1,3,0.792427726066904,0.839903188993528
"109",18,26,2,1,109,2,2,0,2,0.712286768612904,0.746705819510961
"110",18,23,2,1,110,3,1,1,2,0.574713443048974,0.623739852242522
"111",18,19,2,2,111,3,1,0,1,1.00179791992763,1.0267359281423
"112",18,22,2,1,112,2,2,0,3,0.581764501763076,0.54059289715395
"113",18,20,2,1,113,3,2,0,2,0.919068424622308,0.873172873008957
"114",18,34,2,1,114,2,2,0,2,0.535905266489685,0.62386698943768
"115",18,32,2,2,115,1,2,1,4,0.449219123545965,0.479412756886465
"116",18,33,2,2,116,2,1,0,3,0.41875581484358,0.392066758950904
"117",18,18,2,2,117,1,2,1,5,0.454967329040326,0.422003179990542
"118",18,36,2,1,118,2,1,1,3,0.77252320341803,0.821038504324913
"119",18,26,2,1,119,2,1,1,4,0.528816685455531,0.495345432036939
"120",18,23,2,1,120,1,1,1,4,0.497884607063767,0.534058008509333
"121",18,19,2,1,121,1,1,1,5,0.465688222427799,0.471087515644889
"122",18,22,2,1,122,2,1,1,3,0.802405174986149,0.69265064693894
"123",18,20,2,1,123,1,1,1,5,0.505209294097749,0.484693440124529
"124",18,34,2,2,124,2,1,0,3,0.525487065778495,0.534745386408928
"125",18,32,2,2,125,2,2,1,3,0.506882465637567,0.546301927192724
"126",18,33,2,1,126,1,1,1,5,0.505010666537817,0.489634305004276
"127",18,18,2,1,127,1,2,0,4,0.394981886831904,0.501233408479359
"128",18,36,2,1,128,3,1,1,3,0.886638583167571,0.837921356770426
"129",18,26,2,1,129,2,1,1,4,0.470099830510426,0.524781021509604
"130",18,23,2,2,130,2,2,1,3,0.60319834116523,0.482110692398761
"131",18,19,2,2,131,3,2,1,2,1.05070841582915,1.10211487638566
"132",18,22,2,2,132,1,2,1,5,0.328252097356721,0.386348449374756
"133",18,20,2,2,133,1,1,0,3,0.595421292715224,0.681512641566146
"134",18,34,2,1,134,3,1,1,3,0.506726727966882,0.500290375654557
"135",18,32,2,2,135,1,2,1,5,0.449927345527352,0.417805767850787
"136",18,33,2,2,136,2,2,1,3,0.569041160443709,0.646454600937813
"137",18,18,2,1,137,1,1,1,4,0.438753818310547,0.397795735978893
"138",18,36,2,1,138,2,2,0,3,0.48830458722936,0.465619114081908
"139",18,26,2,2,139,1,2,1,4,0.646988096795127,0.733156633862397
"140",18,23,2,2,140,1,2,1,4,0.401681376560781,0.343951025481852
"141",18,19,2,2,141,1,2,1,5,0.550046564920919,0.574176204955527
"142",18,22,2,1,142,2,2,0,3,0.573947261452889,0.650615511737444
"143",18,20,2,1,143,3,1,1,2,0.904776528996671,0.848928904680189
"144",18,34,2,2,144,2,2,1,4,0.473687205280144,0.471723680196348
"145",18,32,2,2,145,3,1,0,1,1.54109074209754,1.58027915914251
"146",18,33,2,1,146,2,1,1,3,0.658672750653138,0.670263065816707
"147",18,18,2,1,147,1,2,0,4,0.635655041325251,0.630153045000062
"148",18,36,2,1,148,1,1,1,5,0.308870700582219,0.334074108371517
"149",18,26,2,1,149,2,1,1,3,0.430839072773834,0.464612101380677
"150",18,23,2,2,150,3,1,0,2,0.978653740634109,0.996853245750423
"151",18,19,2,2,151,1,2,1,4,0.356404111734542,0.305070759450586
"152",18,22,2,1,152,3,1,1,3,0.829746629273513,0.822684521769392
"153",18,20,2,2,153,2,2,1,4,0.86336943723494,0.805039311225994
"154",18,34,2,1,154,3,1,1,2,0.765312153985592,0.796043565069698
"155",18,32,2,2,155,2,1,0,3,0.80442633521256,0.725118784251083
"156",18,33,2,1,156,1,1,1,5,0.41949707136294,0.454124659830334
"157",18,18,2,2,157,2,2,1,3,0.625384865558441,0.527205132842642
"158",18,36,2,2,158,3,2,1,2,0.827689537814022,0.814362096977851
"159",18,26,2,2,159,2,1,0,3,0.413730693829375,0.376367190323687
"160",18,23,2,2,160,2,2,1,4,0.80731867998565,0.794105385021315
"161",18,19,2,2,161,3,2,1,2,1.07499337832488,1.06134824567144
"162",18,22,2,1,162,3,2,0,1,1.35660623199009,1.31861451542561
"163",18,20,2,2,163,3,1,0,2,0.85589004869935,0.860087682175443
"164",18,34,2,1,164,2,1,1,3,0.479012938067598,0.457401332439943
"165",18,32,2,2,165,1,2,1,4,0.311434366302256,0.364821189951554
"166",18,33,2,2,166,1,2,1,5,0.485614073324306,0.458462425778006
"167",18,18,2,2,167,2,2,1,3,0.646262382578155,0.659087382345855
"168",18,36,2,1,168,2,1,1,4,0.59388789996375,0.587039079048515
"169",18,26,2,1,169,3,2,0,1,0.613110546556908,0.683277441211215
"170",18,23,2,2,170,3,1,0,2,1.4293822126767,1.34619957028906
"171",18,19,2,2,171,1,2,1,5,0.388525308567616,0.541524114938419
"172",18,22,2,1,172,2,1,1,4,0.584177789632137,0.588507795644982
"173",18,20,2,1,173,1,1,1,5,0.331830445965441,0.419851350716866
"174",18,34,2,2,174,1,1,0,3,0.519310701364087,0.432399470433838
"175",18,32,2,1,175,1,1,1,4,0.482788437110345,0.543003292204146
"176",18,33,2,1,176,3,2,0,1,1.21251930715342,1.24040159951385
"177",18,18,2,1,177,1,1,1,5,0.382018341365635,0.47466660087865
"178",18,36,2,1,178,3,2,0,2,1.60877148609755,1.61538193577677
"179",18,26,2,1,179,3,1,1,2,0.527996712612773,0.471171685235901
"180",18,23,2,2,180,3,1,0,1,1.61062662622328,1.55144653249315
"181",18,19,2,2,181,3,2,1,2,1.03023793383473,1.04256204687397
"182",18,22,2,2,182,3,1,0,1,1.15790290276204,1.17138905509818
"183",18,20,2,2,183,1,1,0,3,0.720765152014686,0.795178576976695
"184",18,34,2,2,184,3,2,1,2,0.765966196234362,0.757171826192251
"185",18,32,2,2,185,1,2,1,4,0.409843048250479,0.468124164979131
"186",18,33,2,1,186,1,2,0,3,0.429433628453302,0.47148924299926
"187",18,18,2,2,187,2,2,1,4,0.570026770060274,0.565317227019279
"188",18,36,2,1,188,3,1,1,2,0.942538326946837,0.941868168078968
"189",18,26,2,2,189,3,1,0,1,1.11231394646022,1.12426787965437
"190",18,23,2,2,190,1,2,1,5,0.362185170545244,0.405344784276376
"191",18,19,2,1,191,3,1,1,2,0.916335723711163,0.943010425186707
"192",18,22,2,2,192,2,2,1,4,0.734215689706179,0.706958223464363
"193",18,20,2,1,193,1,1,1,5,0.453452897884429,0.496999570292647
"194",18,34,2,2,194,3,2,1,2,0.77743802075046,0.721294890377209
"195",18,32,2,1,195,1,1,1,4,0.456139524606257,0.468743853020893
"196",18,33,2,1,196,3,2,0,2,1.06426702690568,1.10431495527047
"197",18,18,2,2,197,1,2,1,4,0.513036492774288,0.463013426987751
"198",18,36,2,1,198,2,2,0,2,0.696927415353586,0.746139804984179
"199",18,26,2,1,199,1,2,0,3,0.423720470627541,0.419854766827626
"200",18,23,2,2,200,3,1,0,2,0.857551687456715,0.782360706687623
"201",18,19,2,2,201,2,2,1,3,0.443244977922507,0.478723846453066
"202",18,22,2,2,202,2,1,0,3,0.450838928721936,0.427693354276292
"203",18,20,2,2,203,2,1,0,2,0.645655009776988,0.652992934690844
"204",18,34,2,2,204,1,2,1,5,0.26401434459451,0.264563483441527
"205",18,32,2,1,205,1,1,1,4,0.227680381387837,0.231321554234844
"206",18,33,2,2,206,1,2,1,4,0.346023089498852,0.250323880488086
"207",18,18,2,1,207,3,1,1,2,0.814327211844264,0.832236950189435
"208",18,36,2,1,208,3,1,1,3,0.819527200160184,0.857104455873683
"209",18,26,2,2,209,1,1,0,4,0.689010340245491,0.639869635665121
"210",18,23,2,1,210,2,1,1,4,0.506124460194217,0.624168566306241
"211",18,19,2,1,211,1,1,1,4,0.345874030513792,0.25755937102936
"212",18,22,2,1,212,3,2,0,2,0.816924280824068,0.90268553414028
"213",18,20,2,2,213,3,2,1,3,0.677890917080825,0.693523494733076
"214",18,34,2,2,214,3,1,0,1,0.916051698910131,0.882940012097394
"215",18,32,2,1,215,2,1,1,3,0.673865276560363,0.696296487942672
"216",18,33,2,1,216,2,1,1,4,0.4581714675163,0.438157566456162
"217",18,18,2,2,217,3,2,1,3,0.573476501231275,0.515216346732301
"218",18,36,2,1,218,1,1,1,5,0.447203057397958,0.447661624835774
"219",18,26,2,1,219,2,1,1,4,0.656122352946258,0.685662772371312
"220",18,23,2,1,220,1,1,1,5,0.438696686162024,0.513948327907324
"221",18,19,2,1,221,2,1,1,3,0.614022288184107,0.613317499722325
"222",18,22,2,1,222,2,2,0,2,0.636670854744297,0.648967282087372
"223",18,20,2,1,223,3,1,1,2,1.09903409543544,1.06150268871156
"224",18,34,2,2,224,3,1,0,2,0.907457767155532,0.933327491255467
"225",18,32,2,2,225,2,1,0,2,0.498234217463524,0.485241795483752
"226",18,33,2,1,226,2,1,1,3,0.716776555440195,0.707293913455085
"227",18,18,2,1,227,2,1,1,3,0.665215858019675,0.679287522505691
"228",18,36,2,2,228,2,2,1,4,0.676716036207926,0.654034027844069
"229",18,26,2,2,229,2,1,0,2,0.795200423329253,0.804086840643156
"230",18,23,2,1,230,2,1,1,4,0.594072694139507,0.645447103699486
"231",18,19,2,2,231,3,2,1,3,0.984993733596544,1.01628568529402
"232",18,22,2,1,232,2,1,1,4,0.45149602693427,0.393652542926987
"233",18,20,2,1,233,1,1,1,4,0.467720814673642,0.5446630023363
"234",18,34,2,1,234,2,1,1,4,0.733752049730622,0.666784352840722
"235",18,32,2,2,235,2,1,0,2,0.53499739452199,0.548975425875865
"236",18,33,2,1,236,1,1,1,4,0.309862321602071,0.270485357923521
"237",18,18,2,1,237,2,1,1,3,0.758118102949508,0.759049167514517
"238",18,36,2,2,238,1,1,0,4,0.426250898926693,0.378905371224073
"239",18,26,2,1,239,1,1,1,4,0.597864384966644,0.584115891640623
"240",18,23,2,2,240,2,1,0,2,0.692994775237372,0.71529152144465
"241",17,37,1,1,1,2,1,1,4,0.886095270702589,0.882411317473846
"242",17,30,1,1,2,2,1,1,4,0.465129016106487,0.417891187062543
"243",17,39,1,1,3,2,2,0,2,0.726624565665347,0.762866306568498
"244",17,21,1,1,4,3,2,0,2,0.631617954937451,0.694367427984579
"245",17,33,1,2,5,1,2,1,4,0.451487438325242,0.431168479006737
"246",17,20,1,1,6,1,1,1,5,0.380127304950464,0.382479948440928
"247",17,22,1,1,7,2,1,1,3,0.620464392508267,0.552225576670987
"248",17,20,1,2,8,2,1,0,2,0.773118519370476,0.787596684896618
"249",17,25,1,2,9,2,2,1,3,0.563519400317249,0.596057803311838
"250",17,31,1,2,10,1,1,0,4,0.457482587826066,0.51621980994654
"251",17,37,1,2,11,1,2,1,4,0.386693448928123,0.444299119389028
"252",17,30,1,2,12,3,1,0,2,1.15952919503828,1.26537750885902
"253",17,39,1,2,13,3,2,1,2,0.746567942145692,0.736633712514956
"254",17,21,1,2,14,2,1,0,3,0.777151895136143,0.845550322723462
"255",17,33,1,2,15,3,1,0,1,0.628586718915319,0.621014006583248
"256",17,20,1,1,16,1,1,1,5,0.393470020273109,0.401674993625056
"257",17,22,1,1,17,3,1,1,2,0.356810017087633,0.462018081133906
"258",17,20,1,2,18,3,1,0,2,0.483327830639245,0.298270658664283
"259",17,25,1,1,19,3,1,1,3,0.986396126473356,0.93539698307853
"260",17,31,1,1,20,3,1,1,3,0.594807363956789,0.571639773176197
"261",17,37,1,1,21,2,1,1,4,0.689736754692579,0.662411977198862
"262",17,30,1,2,22,2,2,1,4,0.498931304184352,0.401919863623363
"263",17,39,1,1,23,3,1,1,2,1.06632022651903,1.05407960341126
"264",17,21,1,2,24,3,2,1,3,0.871758160352543,0.882051302941197
"265",17,33,1,2,25,3,1,0,1,1.08838135782835,1.12835422509841
"266",17,20,1,1,26,2,2,0,2,0.618205254448094,0.562916078980476
"267",17,22,1,2,27,2,2,1,3,0.579838857458442,0.618201447831218
"268",17,20,1,2,28,1,1,0,3,0.345609059249305,0.332364777154085
"269",17,25,1,2,29,3,1,0,2,0.883767658603514,0.833395905021437
"270",17,31,1,2,30,1,2,1,5,0.46504308836244,0.470553636130393
"271",17,37,1,2,31,1,2,1,5,0.320029810114188,0.310908022111009
"272",17,30,1,2,32,1,2,1,4,0.338092716401789,0.278076791487253
"273",17,39,1,1,33,2,1,1,4,0.706580015696609,0.677986073688656
"274",17,21,1,1,34,2,1,1,3,0.545218306290007,0.513575269539927
"275",17,33,1,2,35,2,2,1,4,0.544397251367513,0.453935397846642
"276",17,20,1,1,36,2,2,0,2,0.582214144533377,0.530847545287057
"277",17,22,1,2,37,1,2,1,5,0.295729229316978,0.311857844934358
"278",17,20,1,2,38,1,2,1,4,0.41568025394808,0.439225117041296
"279",17,25,1,1,39,2,2,0,3,0.603761532337038,0.600890813988725
"280",17,31,1,2,40,2,1,0,2,0.457740827172808,0.481016461563137
"281",17,37,1,2,41,3,2,1,2,1.23229619638866,1.21635455313297
"282",17,30,1,2,42,1,2,1,5,0.335721448170347,0.325307750319951
"283",17,39,1,1,43,3,1,1,2,0.825680253585004,0.790704965849124
"284",17,21,1,1,44,1,1,1,5,0.244172509346108,0.188530335704003
"285",17,33,1,2,45,3,2,1,3,0.67901793218221,0.60619244589722
"286",17,20,1,2,46,3,2,1,3,0.838136243620384,0.856290028703158
"287",17,22,1,1,47,1,2,0,4,0.372490443662397,0.371461186954349
"288",17,20,1,2,48,2,1,0,3,0.777421365935441,0.769526507401488
"289",17,25,1,1,49,3,1,1,3,0.470763713506456,0.458498551472065
"290",17,31,1,2,50,3,1,0,2,0.78243032590679,0.70939815328977
"291",17,37,1,2,51,1,2,1,4,0.35794435088179,0.271971564896745
"292",17,30,1,2,52,2,2,1,3,0.575977147878135,0.525486854566222
"293",17,39,1,2,53,3,2,1,3,0.967978763588,0.977285630179076
"294",17,21,1,1,54,3,2,0,1,0.868021275560344,0.865797698697962
"295",17,33,1,1,55,3,1,1,3,0.676066818534179,0.657020555566682
"296",17,20,1,2,56,1,2,1,5,0.178446062841931,0.127746437482021
"297",17,22,1,1,57,1,1,1,5,0.4039250896163,0.399412974291288
"298",17,20,1,2,58,2,1,0,2,0.874029081896628,0.860958296753172
"299",17,25,1,1,59,2,2,0,2,0.557232618988148,0.563449258803276
"300",17,31,1,1,60,1,2,0,3,0.560681981391746,0.657224567731051
"301",17,37,1,1,61,3,1,1,2,1.0150367979747,1.01419852452423
"302",17,30,1,2,62,1,2,1,5,0.329719517057887,0.357320377024244
"303",17,39,1,2,63,2,2,1,3,0.679466139626006,0.70650854140436
"304",17,21,1,2,64,2,2,1,3,0.75501479191848,0.6742452807995
"305",17,33,1,1,65,1,1,1,5,0.449976845022069,0.40745662756508
"306",17,20,1,1,66,1,2,0,3,0.39796176177661,0.405932198319502
"307",17,22,1,1,67,2,2,0,2,0.679220426910925,0.71853025727487
"308",17,20,1,1,68,2,1,1,3,0.776357172942892,0.687184449967858
"309",17,25,1,2,69,2,1,0,3,0.637932955067777,0.598333919382249
"310",17,31,1,2,70,3,1,0,2,0.305593194312483,0.26593246933592
"311",17,37,1,2,71,2,1,0,3,0.806706787907415,0.831281716245315
"312",17,30,1,1,72,1,1,1,4,0.499076229058365,0.559007240907958
"313",17,39,1,1,73,1,1,1,4,0.280378357528483,0.279122343862283
"314",17,21,1,2,74,2,1,0,2,0.628865483636208,0.696419854140837
"315",17,33,1,1,75,3,1,1,2,0.939363241175775,0.875218994748892
"316",17,20,1,1,76,3,1,1,3,0.961179596609684,0.959341919987226
"317",17,22,1,1,77,2,1,1,3,0.544481458983994,0.506929072421167
"318",17,20,1,2,78,2,1,0,2,0.662670811757518,0.709363245290687
"319",17,25,1,2,79,3,2,1,2,0.614109365573837,0.552954490341715
"320",17,31,1,1,80,1,2,0,4,0.602812893366479,0.586048246088414
"321",17,37,1,2,81,3,2,1,2,1.03565660887807,1.01931464359527
"322",17,30,1,2,82,2,1,0,3,1.00174048516389,0.952543723388404
"323",17,39,1,2,83,1,1,0,4,0.606443951951165,0.646169695029497
"324",17,21,1,1,84,1,1,1,4,0.319646958565444,0.320003883381725
"325",17,33,1,2,85,1,2,1,5,0.441011132137483,0.426889889931395
"326",17,20,1,2,86,3,2,1,2,1.20404263899614,1.23400285260052
"327",17,22,1,2,87,3,2,1,2,0.665618370199776,0.62401473063229
"328",17,20,1,2,88,3,1,0,1,0.822243384643862,0.798976612096975
"329",17,25,1,1,89,2,2,0,2,0.650509472604797,0.586290116804257
"330",17,31,1,2,90,2,2,1,3,0.536088676454014,0.521335710922067
"331",17,37,1,1,91,1,1,1,4,0.44105564620883,0.403042719351207
"332",17,30,1,2,92,1,1,0,4,0.631178990130572,0.567499146454986
"333",17,39,1,1,93,2,1,1,4,0.452668086574024,0.553575828496396
"334",17,21,1,1,94,1,1,1,4,0.455432757709037,0.429382323392953
"335",17,33,1,2,95,3,1,0,2,1.45340408151634,1.50575033150355
"336",17,20,1,2,96,2,1,0,3,0.729636771515807,0.779031523636798
"337",17,22,1,2,97,2,2,1,3,0.680341656758213,0.721493594382648
"338",17,20,1,1,98,3,1,1,2,0.652646863332561,0.730565529196235
"339",17,25,1,1,99,1,1,1,5,0.437630992696934,0.397059421462665
"340",17,31,1,1,100,2,2,0,2,0.662135729339072,0.620694662075001
"341",17,37,1,2,101,1,2,1,5,0.289847485093959,0.315013679042392
"342",17,30,1,2,102,1,1,0,4,0.615159160487593,0.588377507744722
"343",17,39,1,1,103,1,1,1,4,0.36258248405853,0.312261292960628
"344",17,21,1,2,104,2,1,0,3,0.733138409913243,0.69190685920051
"345",17,33,1,2,105,1,2,1,4,0.448974352368828,0.374646771772068
"346",17,20,1,1,106,3,2,0,2,1.3031235281121,1.32534715937305
"347",17,22,1,2,107,1,2,1,5,0.418639260555681,0.432436086249885
"348",17,20,1,1,108,3,1,1,2,0.654516856476989,0.587418612336212
"349",17,25,1,1,109,3,2,0,2,0.758377467688176,0.772376719469337
"350",17,31,1,1,110,2,2,0,2,0.882228568590927,0.854377375706835
"351",17,37,1,1,111,2,2,0,3,0.771402641562407,0.806942735768965
"352",17,30,1,1,112,3,2,0,1,0.601800910185075,0.525995703522496
"353",17,39,1,1,113,2,2,0,3,0.777640194374839,0.754118362795386
"354",17,21,1,1,114,1,1,1,4,0.448946022530504,0.452134409333373
"355",17,33,1,2,115,3,1,0,1,0.680229344870412,0.633628446334267
"356",17,20,1,1,116,2,1,1,4,0.684604291630598,0.571739186029922
"357",17,22,1,2,117,3,1,0,2,1.14559481687898,1.26371496172148
"358",17,20,1,1,118,1,1,1,5,0.388624964632776,0.445804019084257
"359",17,25,1,2,119,2,1,0,2,0.849776672241963,0.813636837654217
"360",17,31,1,1,120,2,1,1,4,0.362046952459778,0.485680297925949
"361",17,37,1,1,121,2,1,1,4,0.682606015389001,0.639485194139363
"362",17,30,1,2,122,3,1,0,1,1.34622375473836,1.38172611202875
"363",17,39,1,2,123,1,2,1,5,0.465209387417304,0.386290571055379
"364",17,21,1,2,124,2,2,1,4,0.461994650117339,0.34593982028939
"365",17,33,1,1,125,2,1,1,3,0.371515263962131,0.364522889511545
"366",17,20,1,1,126,3,1,1,2,0.790441996719225,0.782711605768847
"367",17,22,1,1,127,3,2,0,2,0.67271263686025,0.595654217108505
"368",17,20,1,2,128,2,1,0,3,1.0367226313292,1.05201488683191
"369",17,25,1,1,129,1,1,1,5,0.556839240389413,0.58168114810953
"370",17,31,1,2,130,2,2,1,3,0.600944557328888,0.674467713768691
"371",17,37,1,1,131,2,1,1,3,0.699547259285781,0.75978182571526
"372",17,30,1,2,132,3,2,1,3,1.02663618376143,1.00187215288458
"373",17,39,1,2,133,1,2,1,4,0.265080824701403,0.272011666706483
"374",17,21,1,2,134,1,2,1,5,0.343434930243373,0.345192784414948
"375",17,33,1,1,135,3,2,0,2,1.02816554026009,1.04601858174888
"376",17,20,1,1,136,3,2,0,1,1.78455159769027,1.76327541759793
"377",17,22,1,1,137,3,2,0,1,0.310221481954864,0.274556945202673
"378",17,20,1,1,138,1,2,0,3,0.442956512933906,0.323371512408454
"379",17,25,1,1,139,3,1,1,2,0.629081653225939,0.593057147702691
"380",17,31,1,1,140,3,2,0,2,0.630001310874953,0.63876120093802
"381",17,37,1,2,141,1,2,1,4,0.333704459614199,0.438381148081849
"382",17,30,1,2,142,3,2,1,2,0.761970834621062,0.760468719851527
"383",17,39,1,2,143,2,2,1,3,0.584323672644154,0.593952247203061
"384",17,21,1,2,144,3,2,1,3,0.805440119411071,0.805599381707272
"385",17,33,1,2,145,3,1,0,2,1.16505388913099,1.08901580037005
"386",17,20,1,1,146,2,2,0,2,0.57799092812052,0.563122554652512
"387",17,22,1,1,147,2,2,0,3,0.838633146644324,0.768951912508544
"388",17,20,1,2,148,3,1,0,1,0.547833554415622,0.528719512726714
"389",17,25,1,2,149,1,1,0,4,0.605688643533365,0.519542804061751
"390",17,31,1,2,150,3,1,0,1,0.718889615387956,0.714439966271421
"391",17,37,1,2,151,3,1,0,2,1.2598101242676,1.21409544887043
"392",17,30,1,1,152,3,2,0,2,0.285898493347324,0.310293031331984
"393",17,39,1,1,153,1,1,1,4,0.508290450614936,0.491738145576284
"394",17,21,1,1,154,2,1,1,4,0.542061402907872,0.487810756256844
"395",17,33,1,2,155,2,2,1,4,0.532542417090339,0.532006297755777
"396",17,20,1,1,156,1,1,1,4,0.363586256470991,0.393878551191754
"397",17,22,1,2,157,2,1,0,3,0.563353052803874,0.531310121352873
"398",17,20,1,1,158,3,1,1,3,0.791848609770276,0.694486938814954
"399",17,25,1,1,159,2,2,0,2,0.611443740718078,0.612873096254255
"400",17,31,1,2,160,3,1,0,2,0.48914734918504,0.550586749390193
"401",17,37,1,2,161,2,2,1,3,0.745842009868564,0.780252266686959
"402",17,30,1,1,162,3,1,1,3,1.25222718256066,1.22991424870775
"403",17,39,1,2,163,1,2,1,5,0.46425910319742,0.545198109258726
"404",17,21,1,1,164,1,1,1,4,0.631166726234641,0.705302387545012
"405",17,33,1,1,165,1,1,1,5,0.373548391834532,0.438916639245071
"406",17,20,1,2,166,1,2,1,5,0.447993849415968,0.488886195185567
"407",17,22,1,1,167,1,1,1,4,0.341404701865453,0.345163806449744
"408",17,20,1,1,168,1,1,1,5,0.474770063313332,0.503065907308755
"409",17,25,1,2,169,3,1,0,1,0.903608059299807,0.957274185714662
"410",17,31,1,1,170,1,1,1,5,0.4609131452937,0.385756570951752
"411",17,37,1,1,171,3,2,0,1,0.892222512384508,0.974196059543439
"412",17,30,1,2,172,2,2,1,4,0.509442169090814,0.577821181627868
"413",17,39,1,2,173,3,2,1,2,0.920847223015964,0.954012712947081
"414",17,21,1,2,174,1,1,0,4,0.477543642939878,0.462484264702419
"415",17,33,1,2,175,1,2,1,4,0.388880392105253,0.402426517462934
"416",17,20,1,2,176,3,1,0,1,1.49086810491924,1.55498205275246
"417",17,22,1,1,177,2,2,0,2,0.658191905345815,0.728407426763675
"418",17,20,1,2,178,2,2,1,3,0.78618927134936,0.832853903953817
"419",17,25,1,1,179,3,2,0,1,0.713530964128466,0.792004362111929
"420",17,31,1,1,180,2,1,1,4,0.564920955087982,0.56136344231077
"421",17,37,1,2,181,3,1,0,1,1.14585400622008,1.22832013269127
"422",17,30,1,1,182,1,2,0,3,0.485671381138098,0.501494377086639
"423",17,39,1,1,183,3,2,0,2,0.712629227196372,0.671356813568495
"424",17,21,1,1,184,3,1,1,3,0.977578613821567,0.950011235149858
"425",17,33,1,2,185,2,2,1,3,0.475604570604455,0.445334054919837
"426",17,20,1,2,186,1,1,0,4,0.624477483787638,0.61172811889103
"427",17,22,1,1,187,2,1,1,3,0.255847609295889,0.215517342508094
"428",17,20,1,2,188,1,1,0,3,0.488875953899023,0.421741185872924
"429",17,25,1,2,189,1,2,1,4,0.380166353806923,0.393937728750575
"430",17,31,1,1,190,1,1,1,4,0.442060824265381,0.416977547497187
"431",17,37,1,2,191,3,2,1,2,0.888118563617223,0.906737305438683
"432",17,30,1,1,192,3,2,0,1,1.46245412364671,1.47784938629037
"433",17,39,1,2,193,2,1,0,2,0.76973689023438,0.817993614747721
"434",17,21,1,2,194,3,1,0,1,0.73276754894037,0.755752305012746
"435",17,33,1,1,195,3,1,1,2,0.589123412587202,0.613020093287448
"436",17,20,1,2,196,3,1,0,1,0.490466337734729,0.478576134901515
"437",17,22,1,1,197,2,1,1,3,0.605841699389878,0.630185465577568
"438",17,20,1,1,198,3,1,1,3,0.970348526873618,0.959061682811226
"439",17,25,1,2,199,1,2,1,4,0.370789663885201,0.359443281511976
"440",17,31,1,2,200,2,2,1,4,0.65216811767046,0.675550160449987
"441",17,37,1,1,201,1,1,1,5,0.345591109182826,0.354774223412465
"442",17,30,1,1,202,1,2,0,3,0.59028716371771,0.647596921920042
"443",17,39,1,1,203,2,2,0,2,0.832177663121298,0.877837491866057
"444",17,21,1,2,204,2,2,1,4,0.608205792549989,0.583993082764521
"445",17,33,1,1,205,3,1,1,3,0.737768569911005,0.670597311116065
"446",17,20,1,2,206,3,2,1,3,0.895580122355381,0.84051187526498
"447",17,22,1,2,207,1,2,1,4,0.557776693543329,0.589240735094289
"448",17,20,1,1,208,1,1,1,4,0.395064456948477,0.416916843078428
"449",17,25,1,1,209,2,2,0,2,0.796370493318457,0.763636782698948
"450",17,31,1,1,210,2,2,0,3,0.955819857583194,0.994514105047495
"451",17,37,1,2,211,3,1,0,1,0.505194394955901,0.484066253790181
"452",17,30,1,2,212,3,1,0,1,1.285507139486,1.30631600193481
"453",17,39,1,2,213,1,1,0,3,0.446679605202584,0.569679466562621
"454",17,21,1,1,214,3,1,1,3,0.977715282482795,0.983435213728032
"455",17,33,1,1,215,3,1,1,3,0.618202259872045,0.612427129112562
"456",17,20,1,1,216,2,1,1,4,0.577645157654629,0.571954780917617
"457",17,22,1,2,217,1,2,1,5,0.400861059972731,0.425021490908638
"458",17,20,1,1,218,3,1,1,2,0.760602328025268,0.734253068002212
"459",17,25,1,1,219,1,2,0,4,0.522440468927163,0.596157959686652
"460",17,31,1,2,220,2,2,1,3,0.569026898448164,0.579169658593835
"461",17,37,1,1,221,1,2,0,3,0.390064047237647,0.417801012189679
"462",17,30,1,2,222,1,2,1,5,0.373866841252917,0.324731892068815
"463",17,39,1,2,223,1,2,1,4,0.358106720743706,0.39264436283428
"464",17,21,1,2,224,2,2,1,4,0.535653838724489,0.560659812379662
"465",17,33,1,2,225,2,1,0,3,0.651918134525889,0.77395446586023
"466",17,20,1,2,226,1,2,1,5,0.458240749819599,0.50285861063162
"467",17,22,1,2,227,3,1,0,1,1.61195287249176,1.68720551746044
"468",17,20,1,1,228,2,1,1,4,0.672448582723093,0.648935579794422
"469",17,25,1,2,229,2,1,0,3,0.169467194151346,0.146753334536654
"470",17,31,1,2,230,1,2,1,5,0.411554877535441,0.480554645095453
"471",17,37,1,1,231,1,1,1,4,0.451309087739514,0.367841758248502
"472",17,30,1,1,232,3,1,1,2,0.709824237996904,0.744677108039115
"473",17,39,1,1,233,1,1,1,5,0.295002098705115,0.363115870934407
"474",17,21,1,1,234,1,1,1,5,0.434029839952006,0.369061002710501
"475",17,33,1,1,235,2,2,0,2,0.501897728445414,0.466195944739053
"476",17,20,1,1,236,1,1,1,4,0.429832112033326,0.376879033106128
"477",17,22,1,1,237,1,1,1,5,0.327206253886356,0.25963784308298
"478",17,20,1,1,238,2,2,0,2,0.685037828591094,0.723079489869031
"479",17,25,1,1,239,2,1,1,3,0.585498821126212,0.536413611382026
"480",17,31,1,1,240,1,1,1,4,0.364914874573991,0.355705053034917
"481",16,23,2,2,1,3,2,1,3,0.571775487489231,0.615912918223546
"482",16,31,2,1,2,3,2,0,2,1.42551744678311,1.34457793058396
"483",16,34,2,2,3,3,1,0,1,1.226817579567,1.20900647047412
"484",16,37,2,2,4,3,1,0,2,1.0997667471299,1.12052535921278
"485",16,26,2,1,5,3,2,0,2,1.0613945223487,1.1702977979995
"486",16,24,2,1,6,2,1,1,3,0.596385055455093,0.575579156625424
"487",16,22,2,2,7,2,1,0,2,0.445823833608925,0.44701484198564
"488",16,40,2,1,8,2,1,1,4,0.505210197307005,0.517090724774143
"489",16,25,2,1,9,2,1,1,3,0.654160794174586,0.581125730053701
"490",16,34,2,2,10,3,1,0,1,1.30540950788014,1.35546255974162
"491",16,23,2,2,11,1,2,1,5,0.383213585280867,0.414029884643334
"492",16,31,2,2,12,3,1,0,2,0.733046366413291,0.735905753891831
"493",16,34,2,2,13,2,2,1,3,0.767090025522118,0.749951445342085
"494",16,37,2,2,14,3,2,1,2,0.96105282186542,0.965835877858286
"495",16,26,2,2,15,1,2,1,5,0.435683343487977,0.392037497326164
"496",16,24,2,2,16,1,2,1,4,0.437192808815089,0.418465845104083
"497",16,22,2,2,17,1,2,1,4,0.404827491521439,0.375427613718292
"498",16,40,2,1,18,2,1,1,4,0.556972824693092,0.551448219773993
"499",16,25,2,1,19,2,2,0,2,0.623379074969989,0.579640155530531
"500",16,34,2,2,20,3,2,1,2,0.721655246370749,0.59081256780566
"501",16,23,2,1,21,3,1,1,2,0.542309795684505,0.607167838132435
"502",16,31,2,1,22,3,1,1,3,0.810435734446952,0.871085734291154
"503",16,34,2,2,23,1,1,0,3,0.503852491332699,0.513729176417373
"504",16,37,2,2,24,2,1,0,2,0.699330517773224,0.714739779912289
"505",16,26,2,1,25,2,2,0,3,0.805459862296424,0.88516433342639
"506",16,24,2,1,26,1,1,1,4,0.459284934878356,0.473107106391437
"507",16,22,2,1,27,1,2,0,3,0.640130323336675,0.684142211678441
"508",16,40,2,1,28,3,1,1,3,0.427638124057225,0.508183315604797
"509",16,25,2,2,29,1,2,1,4,0.444883042875464,0.449112445509177
"510",16,34,2,2,30,2,1,0,2,0.737593094551342,0.701554801939074
"511",16,23,2,2,31,2,2,1,3,0.652343530302887,0.692528176117188
"512",16,31,2,1,32,1,1,1,5,0.334645851711645,0.338950515448546
"513",16,34,2,1,33,1,1,1,4,0.354120530960244,0.424952266336295
"514",16,37,2,2,34,1,1,0,3,0.49903904127409,0.495101683714517
"515",16,26,2,2,35,1,2,1,5,0.450121797361222,0.35479202284055
"516",16,24,2,2,36,3,1,0,2,0.814484217777623,0.820702374828764
"517",16,22,2,1,37,2,2,0,2,0.66739945999663,0.750018244668806
"518",16,40,2,1,38,1,1,1,5,0.498546420444739,0.464239636455483
"519",16,25,2,2,39,3,1,0,2,0.451364369992772,0.473326844018446
"520",16,34,2,2,40,1,2,1,5,0.60817718219166,0.44571454505501
"521",16,23,2,2,41,1,1,0,4,0.49404296768692,0.442176008493802
"522",16,31,2,1,42,3,1,1,3,0.983227653977609,1.02127342205208
"523",16,34,2,1,43,2,1,1,4,0.433094498791652,0.440921837774012
"524",16,37,2,2,44,1,2,1,5,0.358680661143806,0.301554452544688
"525",16,26,2,2,45,3,2,1,2,0.632271152101262,0.632530057884764
"526",16,24,2,1,46,3,2,0,1,1.42075953110119,1.4023318141312
"527",16,22,2,1,47,1,1,1,4,0.390173579081167,0.443250193741917
"528",16,40,2,1,48,2,1,1,4,0.47467114418032,0.554361402074025
"529",16,25,2,1,49,3,2,0,2,1.10942225496127,1.12809170936556
"530",16,34,2,2,50,2,2,1,4,0.462945381293339,0.526831478178831
"531",16,23,2,1,51,1,1,1,4,0.475206276958157,0.516159023839174
"532",16,31,2,2,52,3,2,1,2,1.04619833547253,1.03359773293403
"533",16,34,2,2,53,1,2,1,4,0.433460735128723,0.408506002629023
"534",16,37,2,1,54,3,1,1,3,0.791445101230773,0.705343360822699
"535",16,26,2,2,55,1,1,0,3,0.776119863406876,0.783432547201985
"536",16,24,2,2,56,1,2,1,4,0.32447685164256,0.374408716959648
"537",16,22,2,1,57,1,1,1,4,0.375092163504112,0.410163048728564
"538",16,40,2,2,58,2,2,1,3,0.692273778526611,0.731219639053608
"539",16,25,2,2,59,3,2,1,3,0.791872302223317,0.822981305240645
"540",16,34,2,1,60,1,1,1,4,0.385070524492737,0.425984573924616
"541",16,23,2,2,61,2,2,1,3,0.598006613813432,0.597437894842127
"542",16,31,2,1,62,3,1,1,2,0.871475797232685,0.819806374476199
"543",16,34,2,2,63,3,1,0,2,1.1749021841987,1.1419880929452
"544",16,37,2,1,64,2,1,1,3,0.699190993070674,0.683494367250617
"545",16,26,2,1,65,1,1,1,5,0.432343255672905,0.420532341707221
"546",16,24,2,1,66,3,1,1,2,0.764305098933713,0.855532051146615
"547",16,22,2,2,67,2,1,0,2,0.905049864359047,0.913267803409465
"548",16,40,2,1,68,3,1,1,2,0.766207150484264,0.746274100839746
"549",16,25,2,1,69,2,1,1,4,0.611774643543071,0.565644334811961
"550",16,34,2,2,70,2,1,0,2,0.8529697104136,0.908411238606175
"551",16,23,2,2,71,2,2,1,4,0.678615842369157,0.724664852766667
"552",16,31,2,2,72,3,2,1,3,1.34145926860453,1.32505457803808
"553",16,34,2,1,73,2,2,0,2,0.754081756564491,0.746382725237002
"554",16,37,2,2,74,3,2,1,2,0.728139954610851,0.664773527807958
"555",16,26,2,2,75,1,2,1,5,0.370600938272102,0.313091518279144
"556",16,24,2,1,76,2,2,0,2,0.484531299103236,0.448622815070155
"557",16,22,2,1,77,1,1,1,5,0.429851647389031,0.444708617480328
"558",16,40,2,1,78,2,2,0,2,0.809142069030247,0.885741604746355
"559",16,25,2,2,79,1,2,1,4,0.483958563301356,0.527413613243549
"560",16,34,2,2,80,3,1,0,2,0.740276778415283,0.738477880547362
"561",16,23,2,2,81,1,2,1,5,0.430998870585116,0.463229053587992
"562",16,31,2,2,82,1,2,1,4,0.484403469173573,0.506936963040835
"563",16,34,2,1,83,2,2,0,3,0.544511097713625,0.50308666243227
"564",16,37,2,2,84,2,2,1,4,0.758262062642267,0.732188896185467
"565",16,26,2,1,85,1,1,1,4,0.404528017327112,0.400228557536145
"566",16,24,2,1,86,3,1,1,2,0.758767941965602,0.777456935756211
"567",16,22,2,1,87,1,2,0,4,0.727815023367514,0.770699201691189
"568",16,40,2,1,88,3,1,1,2,0.914812672664397,0.886616581516938
"569",16,25,2,1,89,1,1,1,4,0.468292684188046,0.524417734283958
"570",16,34,2,2,90,1,2,1,4,0.444716649816192,0.521965118912275
"571",16,23,2,1,91,1,1,1,4,0.459483595079655,0.506047728123058
"572",16,31,2,1,92,2,1,1,4,0.698325308241163,0.609379189299574
"573",16,34,2,2,93,2,1,0,3,0.846855318658979,0.883783067336613
"574",16,37,2,2,94,3,2,1,2,0.918925996290041,0.839717900460147
"575",16,26,2,2,95,3,1,0,2,0.88558498710002,0.844080593838908
"576",16,24,2,1,96,2,1,1,3,0.498645340187118,0.42742698834487
"577",16,22,2,2,97,2,2,1,4,0.60754812999192,0.605446708396467
"578",16,40,2,1,98,3,2,0,1,1.20648514609414,1.24865215541915
"579",16,25,2,1,99,3,1,1,3,1.2260902371177,1.20562482751322
"580",16,34,2,1,100,2,1,1,3,0.457826127349963,0.420720549878046
"581",16,23,2,2,101,2,2,1,4,0.425150300148583,0.421955048645644
"582",16,31,2,2,102,3,2,1,3,0.753500606557177,0.658499223152383
"583",16,34,2,1,103,2,2,0,3,0.702256627856924,0.745605917954456
"584",16,37,2,1,104,1,2,0,4,0.647893993510909,0.608803751346239
"585",16,26,2,1,105,1,2,0,4,0.607482462562781,0.573467162417526
"586",16,24,2,2,106,3,1,0,1,1.267798767757,1.34680939847881
"587",16,22,2,1,107,3,1,1,3,0.717402947415567,0.703619154982604
"588",16,40,2,1,108,1,1,1,4,0.358138427956275,0.398463486295048
"589",16,25,2,2,109,3,1,0,1,0.803078609821418,0.884367657088314
"590",16,34,2,1,110,1,1,1,4,0.360697090847192,0.370427815172573
"591",16,23,2,2,111,2,2,1,3,0.660204717834242,0.663878368114772
"592",16,31,2,2,112,2,2,1,4,0.377574884931798,0.31228536002371
"593",16,34,2,2,113,2,1,0,3,0.616426670319106,0.596666565442457
"594",16,37,2,1,114,1,1,1,5,0.489187054500539,0.498574743643422
"595",16,26,2,1,115,3,2,0,2,0.831349550830137,0.934359024029753
"596",16,24,2,1,116,1,1,1,4,0.453649502894803,0.461481901399971
"597",16,22,2,2,117,3,2,1,3,0.575286654485389,0.565696441559764
"598",16,40,2,1,118,2,1,1,3,0.693379346790313,0.679566800728501
"599",16,25,2,2,119,2,2,1,4,0.637012050182595,0.565359144261441
"600",16,34,2,1,120,2,1,1,3,0.618114517696247,0.591081958537769
"601",16,23,2,2,121,1,2,1,5,0.501809492242868,0.447278877708179
"602",16,31,2,2,122,3,1,0,2,1.00851101522057,1.06780310132108
"603",16,34,2,1,123,2,1,1,4,0.521674091589682,0.608541697102508
"604",16,37,2,1,124,3,2,0,1,1.13430480160144,1.11823767293929
"605",16,26,2,2,125,2,2,1,4,0.489233113927372,0.509525176975459
"606",16,24,2,1,126,2,2,0,2,0.53178585772523,0.444622027413929
"607",16,22,2,1,127,1,1,1,5,0.380057403483739,0.275479589686507
"608",16,40,2,1,128,2,2,0,3,0.518770215323218,0.468113377194598
"609",16,25,2,1,129,1,1,1,5,0.223753268051493,0.248494022693402
"610",16,34,2,2,130,3,1,0,2,0.603567441148656,0.577776958631412
"611",16,23,2,1,131,2,1,1,4,0.46598690982852,0.570959202126874
"612",16,31,2,1,132,3,2,0,2,1.15036327377177,1.16219861828972
"613",16,34,2,1,133,3,1,1,2,1.03925229796704,1.08238919969495
"614",16,37,2,1,134,1,2,0,4,0.594501069129587,0.559693654562928
"615",16,26,2,2,135,3,2,1,2,0.614163642673432,0.641507873577918
"616",16,24,2,2,136,2,2,1,4,0.630954779993955,0.684264068306778
"617",16,22,2,2,137,3,1,0,1,1.70967033845855,1.71819733300398
"618",16,40,2,2,138,1,2,1,5,0.28349278899389,0.139100419130156
"619",16,25,2,2,139,1,1,0,3,0.521877923863943,0.539929929763484
"620",16,34,2,2,140,1,2,1,4,0.42830329595067,0.481504149817609
"621",16,23,2,2,141,2,1,0,3,1.00810419951772,1.06503522427357
"622",16,31,2,2,142,3,1,0,1,1.05683122844833,1.08033860756042
"623",16,34,2,2,143,3,1,0,2,1.03276739565707,1.05508524010393
"624",16,37,2,2,144,1,1,0,3,0.565193207719509,0.627568200964884
"625",16,26,2,2,145,3,2,1,3,0.820103762476838,0.793070512692959
"626",16,24,2,2,146,1,2,1,5,0.389763305771167,0.395599128703477
"627",16,22,2,2,147,1,2,1,4,0.319458851746511,0.346361837857608
"628",16,40,2,2,148,2,2,1,3,0.679612396596027,0.698848944266735
"629",16,25,2,2,149,1,2,1,4,0.503289871613373,0.490785742884065
"630",16,34,2,2,150,3,2,1,2,0.816280009195836,0.83904830637983
"631",16,23,2,1,151,2,1,1,4,0.687792037653346,0.676373111573857
"632",16,31,2,1,152,1,2,0,3,0.539561487640943,0.572614341768963
"633",16,34,2,2,153,2,2,1,4,0.63934279803486,0.58315335529607
"634",16,37,2,1,154,3,1,1,3,0.824751597411209,0.838190444673893
"635",16,26,2,2,155,2,1,0,3,0.719570454178777,0.719458614378814
"636",16,24,2,1,156,2,2,0,3,0.773942878500302,0.758865192855887
"637",16,22,2,1,157,1,1,1,5,0.406920186209536,0.466393996895594
"638",16,40,2,2,158,3,1,0,1,1.90922546389849,1.87977563909891
"639",16,25,2,1,159,1,1,1,5,0.421782769054211,0.371945687761522
"640",16,34,2,2,160,2,1,0,3,1.03889704962425,1.01903160128836
"641",16,23,2,1,161,2,1,1,4,0.479045525953806,0.559356750539131
"642",16,31,2,1,162,3,1,1,3,0.851684865625793,0.758464905263095
"643",16,34,2,1,163,1,2,0,4,0.39754383062063,0.351859807485545
"644",16,37,2,1,164,1,1,1,5,0.350134043977637,0.37005054056885
"645",16,26,2,2,165,3,1,0,2,1.01282702732851,0.989073046182582
"646",16,24,2,1,166,3,1,1,3,0.73386462848792,0.765511055692275
"647",16,22,2,1,167,2,2,0,3,0.684742562523779,0.662927489532407
"648",16,40,2,1,168,2,1,1,4,0.652399727462434,0.645354025812734
"649",16,25,2,2,169,3,1,0,1,1.41836545055196,1.45941031035035
"650",16,34,2,1,170,3,2,0,2,1.07122330704148,0.992159688507503
"651",16,23,2,2,171,2,2,1,3,0.654257282137122,0.640384258383203
"652",16,31,2,1,172,1,1,1,5,0.367394361750469,0.358956734489302
"653",16,34,2,2,173,3,1,0,2,0.951255915188255,0.9380588510334
"654",16,37,2,2,174,1,2,1,4,0.498277849313378,0.411633286754662
"655",16,26,2,2,175,2,2,1,4,0.485106465743329,0.449346514019362
"656",16,24,2,2,176,2,2,1,4,0.670731977504047,0.683916452913648
"657",16,22,2,2,177,3,1,0,2,0.527358724936395,0.520080996760853
"658",16,40,2,2,178,1,2,1,5,0.338526015787775,0.406455286991004
"659",16,25,2,1,179,3,1,1,3,0.582485223095156,0.6222141055318
"660",16,34,2,2,180,1,2,1,5,0.397629073876368,0.354385432704601
"661",16,23,2,2,181,1,2,1,4,0.534402306244723,0.451922615592966
"662",16,31,2,1,182,1,2,0,4,0.485009985491732,0.441507969257265
"663",16,34,2,1,183,1,1,1,4,0.395063328948029,0.446679168766984
"664",16,37,2,1,184,2,1,1,4,0.782719192923513,0.776198875182972
"665",16,26,2,1,185,1,1,1,4,0.255947585285277,0.260391811961516
"666",16,24,2,1,186,2,2,0,2,0.763827905852926,0.698209587335705
"667",16,22,2,1,187,2,2,0,3,0.96177766456694,0.994402238220909
"668",16,40,2,2,188,1,1,0,4,0.63206287123504,0.539817231754676
"669",16,25,2,1,189,1,1,1,4,0.395122362848691,0.37493430512591
"670",16,34,2,1,190,1,1,1,5,0.482810719150406,0.548554889722389
"671",16,23,2,1,191,2,2,0,3,0.444294849708819,0.336593518198555
"672",16,31,2,2,192,1,2,1,4,0.591211295481819,0.64721804740502
"673",16,34,2,2,193,2,1,0,3,0.655346252992032,0.698104624436243
"674",16,37,2,1,194,3,2,0,1,0.849995209231931,0.868780516516034
"675",16,26,2,2,195,3,2,1,3,0.710231308720537,0.793122236793556
"676",16,24,2,2,196,3,1,0,1,0.955105158212377,0.877970025397345
"677",16,22,2,1,197,3,2,0,2,0.806098653475367,0.766536125100327
"678",16,40,2,1,198,2,2,0,2,0.764747180774752,0.749699176867389
"679",16,25,2,1,199,2,2,0,2,0.620514241198722,0.662786121474812
"680",16,34,2,2,200,2,1,0,2,0.660941970191526,0.654193427176276
"681",16,23,2,2,201,2,2,1,3,0.516555215941867,0.515849982420287
"682",16,31,2,2,202,3,1,0,2,0.868162245309484,0.832600339427623
"683",16,34,2,1,203,2,1,1,3,0.807316283596983,0.786249626609089
"684",16,37,2,2,204,2,1,0,3,0.822508650618521,0.864056156887058
"685",16,26,2,2,205,3,1,0,2,1.25085204269776,1.23480994107913
"686",16,24,2,2,206,2,1,0,2,0.638773539851572,0.621728216873489
"687",16,22,2,1,207,1,1,1,4,0.463544102119545,0.437718233036981
"688",16,40,2,1,208,1,1,1,5,0.298837693664294,0.368886461688457
"689",16,25,2,1,209,3,1,1,3,1.0265190846744,1.07472473662713
"690",16,34,2,1,210,1,1,1,4,0.383466455099768,0.328319183962725
"691",16,23,2,2,211,1,2,1,4,0.600979707318716,0.644419666358982
"692",16,31,2,1,212,3,2,0,2,0.553787515084616,0.497465641746261
"693",16,34,2,2,213,3,2,1,3,0.968379711540569,0.970777831838731
"694",16,37,2,1,214,1,2,0,4,0.557241907459931,0.63048006053089
"695",16,26,2,1,215,2,1,1,3,0.670346571849597,0.589220878391475
"696",16,24,2,1,216,3,1,1,2,0.642701970791989,0.727102220906216
"697",16,22,2,1,217,2,1,1,3,0.757682044906611,0.805026389006096
"698",16,40,2,2,218,1,2,1,5,0.389684130317722,0.35393207783914
"699",16,25,2,1,219,2,1,1,4,0.639703174778673,0.611810640984404
"700",16,34,2,2,220,2,2,1,4,0.72047224517856,0.691215193236085
"701",16,23,2,1,221,1,1,1,5,0.397902381518028,0.449653790055929
"702",16,31,2,1,222,1,1,1,5,0.356140849426501,0.342967018141355
"703",16,34,2,2,223,2,2,1,3,0.582172107723675,0.5507122361156
"704",16,37,2,1,224,3,1,1,3,0.535591833697537,0.563850149879569
"705",16,26,2,2,225,3,2,1,2,0.62459113319908,0.642043454258657
"706",16,24,2,2,226,3,1,0,2,1.71813967399327,1.64117277654529
"707",16,22,2,1,227,3,2,0,2,1.50642119272891,1.51131305278432
"708",16,40,2,1,228,3,1,1,2,0.647651052047744,0.659895630700563
"709",16,25,2,2,229,2,2,1,3,0.657641068760213,0.665660762647678
"710",16,34,2,2,230,2,2,1,4,0.632771455101681,0.595775961907752
"711",16,23,2,2,231,3,1,0,2,1.38358117370608,1.36513858028809
"712",16,31,2,1,232,1,1,1,5,0.453478436527745,0.561041542701106
"713",16,34,2,2,233,1,2,1,4,0.518797659600891,0.584701438384642
"714",16,37,2,2,234,3,1,0,2,1.01326409911117,0.957218130305576
"715",16,26,2,1,235,3,2,0,2,1.1937407182356,1.24162571422276
"716",16,24,2,1,236,3,2,0,1,1.05670337795575,1.05649230570812
"717",16,22,2,2,237,1,1,0,3,0.419866336722125,0.397704693616136
"718",16,40,2,1,238,1,1,1,5,0.471930544199626,0.456128538788396
"719",16,25,2,2,239,2,1,0,3,0.72342529860203,0.733404183083267
"720",16,34,2,1,240,2,1,1,4,0.641900958000729,0.6364349778015
"721",15,34,1,2,1,2,1,0,2,0.624847029734484,0.59268992863748
"722",15,31,1,1,2,2,1,1,3,0.384542970092436,0.308839469829842
"723",15,25,1,1,3,3,2,0,2,0.955308240036842,0.962654047455321
"724",15,28,1,2,4,1,2,1,4,0.38470014061519,0.413581937269268
"725",15,39,1,2,5,2,1,0,3,0.906828043752625,0.805953979614155
"726",15,32,1,2,6,1,2,1,4,0.461397586712439,0.447971682353053
"727",15,25,1,1,7,1,1,1,4,0.511813233016276,0.576838327506783
"728",15,26,1,1,8,3,2,0,1,0.891683678065202,0.84947195984577
"729",15,18,1,2,9,2,2,1,3,0.556983253130506,0.473117531907904
"730",15,23,1,2,10,2,2,1,4,0.693697714634829,0.697933977432065
"731",15,34,1,1,11,2,1,1,4,0.909239105959382,0.894993306144298
"732",15,31,1,2,12,1,1,0,4,0.571461676897537,0.658381661383728
"733",15,25,1,2,13,1,1,0,4,0.533568835206532,0.508108269690842
"734",15,28,1,2,14,3,1,0,1,1.2299390087579,1.18282159601063
"735",15,39,1,2,15,3,1,0,2,0.615154320095988,0.678193975733758
"736",15,32,1,2,16,1,2,1,4,0.462189173178206,0.422824798920551
"737",15,25,1,1,17,2,2,0,3,0.458915873318793,0.48824226709843
"738",15,26,1,1,18,3,1,1,3,0.451987179496541,0.448690683565762
"739",15,18,1,2,19,1,2,1,5,0.324009921753908,0.34120616650123
"740",15,23,1,2,20,2,1,0,2,0.495868020571645,0.598783097372363
"741",15,34,1,1,21,1,2,0,3,0.534499151287718,0.552148340312707
"742",15,31,1,1,22,1,1,1,5,0.422235025815462,0.486034017374946
"743",15,25,1,2,23,3,1,0,1,0.728756101885601,0.720279096987106
"744",15,28,1,1,24,1,1,1,4,0.502132194248776,0.529860678635943
"745",15,39,1,1,25,3,2,0,2,0.818397513441663,0.865829543929378
"746",15,32,1,2,26,2,2,1,4,0.575986371863941,0.538913094720348
"747",15,25,1,2,27,1,2,1,4,0.311063043877377,0.358329595672093
"748",15,26,1,1,28,3,1,1,3,0.740186949836283,0.792220150569771
"749",15,18,1,2,29,2,2,1,4,0.801940986196282,0.83758097777099
"750",15,23,1,1,30,1,1,1,5,0.485265629222263,0.598248399489761
"751",15,34,1,1,31,1,1,1,4,0.264497551138744,0.315318421821948
"752",15,31,1,1,32,1,1,1,4,0.292226516896807,0.309289353790558
"753",15,25,1,1,33,2,2,0,3,0.599681360713334,0.635355032158446
"754",15,28,1,1,34,3,1,1,2,0.457902145962814,0.387955486622995
"755",15,39,1,2,35,2,2,1,4,0.431532398052566,0.466760465986695
"756",15,32,1,2,36,2,1,0,3,0.76251789828514,0.73217931288685
"757",15,25,1,2,37,3,1,0,2,1.35213699720827,1.38013204457976
"758",15,26,1,2,38,1,2,1,4,0.52018260679378,0.469292228871417
"759",15,18,1,1,39,2,1,1,4,0.56608036803077,0.538502991164621
"760",15,23,1,1,40,2,2,0,3,0.527006787781084,0.531116851324621
"761",15,34,1,1,41,2,2,0,2,1.0070994508407,0.997464529509816
"762",15,31,1,1,42,1,1,1,4,0.386510695312257,0.394469632214098
"763",15,25,1,1,43,2,1,1,3,0.5887120713502,0.583509235761597
"764",15,28,1,1,44,1,1,1,4,0.495035043578132,0.445423559488067
"765",15,39,1,1,45,3,2,0,1,1.39905911295366,1.33243933588077
"766",15,32,1,1,46,1,2,0,4,0.611308993764046,0.614629818917236
"767",15,25,1,2,47,3,1,0,2,0.703773699603792,0.659033274298695
"768",15,26,1,2,48,1,2,1,4,0.362604630423952,0.338667245493198
"769",15,18,1,2,49,2,2,1,4,0.599729129073286,0.564245401335048
"770",15,23,1,1,50,1,1,1,5,0.416691792938286,0.363591814490329
"771",15,34,1,2,51,2,1,0,3,0.569422729602822,0.55045243063136
"772",15,31,1,1,52,3,1,1,2,0.221256793897079,0.150049204467628
"773",15,25,1,2,53,3,1,0,1,1.36985670849528,1.35357997597014
"774",15,28,1,1,54,2,1,1,4,0.771034767923941,0.710794070480783
"775",15,39,1,2,55,2,2,1,3,0.703923221844001,0.738005812518765
"776",15,32,1,2,56,1,2,1,5,0.370297309048556,0.273089604192449
"777",15,25,1,2,57,2,2,1,4,0.517940567557657,0.534538147340621
"778",15,26,1,2,58,3,1,0,1,1.09214959225691,1.11743175829516
"779",15,18,1,2,59,1,2,1,4,0.481172468149433,0.485209549933531
"780",15,23,1,2,60,1,2,1,4,0.287815224206739,0.336596013322463
"781",15,34,1,1,61,3,2,0,2,1.24014177743338,1.23453086258103
"782",15,31,1,2,62,2,1,0,2,0.676725094977058,0.609065843272625
"783",15,25,1,1,63,3,1,1,2,0.961887139273886,0.986916638148552
"784",15,28,1,1,64,3,2,0,2,0.800115635620089,0.780470413758878
"785",15,39,1,1,65,1,1,1,4,0.292000500995376,0.271339641946361
"786",15,32,1,1,66,2,1,1,4,0.663555788802665,0.621003714666164
"787",15,25,1,1,67,2,1,1,3,0.583335241739718,0.603847326140076
"788",15,26,1,1,68,1,1,1,5,0.522437723106748,0.606324721017353
"789",15,18,1,1,69,3,1,1,2,1.00180149642248,0.982562252371067
"790",15,23,1,2,70,3,2,1,2,0.808522158363261,0.784722661559129
"791",15,34,1,1,71,2,2,0,3,1.00640551216103,0.996102303450829
"792",15,31,1,2,72,1,2,1,5,0.430991986227688,0.382165629919167
"793",15,25,1,1,73,3,2,0,2,0.777707076667128,0.88532983450817
"794",15,28,1,2,74,1,2,1,5,0.475169892170199,0.427362050581189
"795",15,39,1,1,75,1,2,0,4,0.610623690486665,0.572079734134028
"796",15,32,1,2,76,3,1,0,1,0.645695322929919,0.655237555940321
"797",15,25,1,1,77,3,2,0,2,0.873061010985808,0.871471426038728
"798",15,26,1,1,78,3,2,0,1,1.36415585915688,1.34822249230342
"799",15,18,1,2,79,1,2,1,4,0.446209052508267,0.450884780013513
"800",15,23,1,2,80,3,1,0,2,1.1827847503098,1.20127420846063
"801",15,34,1,2,81,1,2,1,5,0.418180299080938,0.42064891973676
"802",15,31,1,2,82,1,2,1,5,0.328495069005,0.307774898347724
"803",15,25,1,2,83,3,1,0,2,0.939584630966516,1.02941537864682
"804",15,28,1,2,84,2,1,0,3,0.567266320961787,0.621489886827046
"805",15,39,1,2,85,3,2,1,2,0.637450709004525,0.55777016205213
"806",15,32,1,1,86,1,2,0,4,0.517756409258417,0.561649368307827
"807",15,25,1,2,87,2,2,1,3,0.469842735438137,0.445473719031137
"808",15,26,1,1,88,2,1,1,4,0.60527770471513,0.585583598076468
"809",15,18,1,1,89,1,1,1,4,0.514931310930766,0.568973936443194
"810",15,23,1,2,90,1,2,1,5,0.483307259259796,0.475255008763192
"811",15,34,1,2,91,1,2,1,5,0.372358769766662,0.354972439194338
"812",15,31,1,2,92,3,1,0,2,1.19022021322689,1.26540933514485
"813",15,25,1,1,93,1,1,1,5,0.38225712128152,0.308874853315201
"814",15,28,1,2,94,1,1,0,4,0.494792308720234,0.468882540304469
"815",15,39,1,2,95,1,2,1,4,0.404719020094195,0.327227154335247
"816",15,32,1,2,96,2,2,1,3,0.679390650152235,0.686146848908079
"817",15,25,1,2,97,3,1,0,2,1.09190766265634,1.16536527824908
"818",15,26,1,1,98,2,2,0,3,0.838863947037633,0.852819696381014
"819",15,18,1,1,99,3,2,0,1,0.824419012372341,0.868090146123092
"820",15,23,1,2,100,3,1,0,1,0.601763047714695,0.675732207347225
"821",15,34,1,2,101,3,2,1,3,0.727655867387032,0.715789100017251
"822",15,31,1,1,102,2,2,0,2,0.471302471667245,0.560203329538022
"823",15,25,1,2,103,2,1,0,2,0.62171365182376,0.541497263439311
"824",15,28,1,1,104,2,1,1,4,0.400126913608917,0.362990605221329
"825",15,39,1,1,105,3,1,1,2,0.711165179380797,0.725982953392196
"826",15,32,1,2,106,2,1,0,2,0.612491012664505,0.510753628024024
"827",15,25,1,2,107,1,1,0,4,0.398385442846964,0.291541739983267
"828",15,26,1,2,108,3,1,0,2,0.959968323556133,0.929416081245371
"829",15,18,1,1,109,1,1,1,5,0.410737445747423,0.405066367591438
"830",15,23,1,2,110,2,2,1,4,0.682439282015223,0.676434530399023
"831",15,34,1,2,111,2,2,1,4,0.53550479967097,0.485230287702929
"832",15,31,1,2,112,2,1,0,3,0.739398639976458,0.779476732003556
"833",15,25,1,1,113,3,2,0,2,0.762119091279564,0.801255337011064
"834",15,28,1,2,114,2,2,1,4,0.750750392438859,0.721141347538204
"835",15,39,1,2,115,2,2,1,3,0.428463699873626,0.398734078973488
"836",15,32,1,2,116,2,1,0,3,0.749184481261282,0.758896037171587
"837",15,25,1,1,117,3,1,1,3,1.01218747865251,0.971430899400886
"838",15,26,1,1,118,3,1,1,3,0.695604377656813,0.636437424746742
"839",15,18,1,1,119,2,2,0,2,0.642730323785251,0.727557131536308
"840",15,23,1,1,120,2,1,1,4,0.603696125686537,0.5285253572025
"841",15,34,1,1,121,2,2,0,3,0.70915321015336,0.75264887913958
"842",15,31,1,2,122,3,2,1,2,0.732801798092675,0.709622560191482
"843",15,25,1,1,123,1,2,0,3,0.577308681288848,0.564482631100458
"844",15,28,1,1,124,3,1,1,2,0.45123920016742,0.39420969342125
"845",15,39,1,2,125,3,1,0,2,1.18270167562796,1.23773143766586
"846",15,32,1,2,126,1,1,0,4,0.612609577011457,0.567750738116192
"847",15,25,1,1,127,1,1,1,5,0.237541150699226,0.275199834552455
"848",15,26,1,2,128,1,2,1,4,0.486186320805699,0.477965179520271
"849",15,18,1,2,129,1,2,1,5,0.393396989221176,0.294896567738994
"850",15,23,1,2,130,1,2,1,5,0.567243646021475,0.591945075061782
"851",15,34,1,1,131,1,1,1,5,0.416523856303808,0.412436338439029
"852",15,31,1,1,132,2,1,1,3,0.680146595956468,0.678195321553952
"853",15,25,1,1,133,3,2,0,1,1.21088043201095,1.29963908929746
"854",15,28,1,1,134,3,2,0,1,1.06529209478809,1.13640298982077
"855",15,39,1,1,135,1,2,0,4,0.618394184940402,0.627756488855055
"856",15,32,1,2,136,3,2,1,2,0.850849318384496,0.924948988262539
"857",15,25,1,1,137,3,2,0,1,1.74476341865153,1.78361463748618
"858",15,26,1,2,138,2,2,1,3,0.600586514966811,0.641429631338847
"859",15,18,1,2,139,3,1,0,1,0.719685507037841,0.675521534262699
"860",15,23,1,1,140,2,1,1,4,0.517833060578142,0.549696107498277
"861",15,34,1,1,141,3,1,1,2,0.647489770737824,0.599232940636918
"862",15,31,1,1,142,2,1,1,4,0.639264524130478,0.580750017538746
"863",15,25,1,1,143,2,2,0,3,0.364001762279118,0.350990616105789
"864",15,28,1,1,144,1,1,1,5,0.432382272129571,0.400016906243876
"865",15,39,1,1,145,3,2,0,2,0.473282875251274,0.437015425630115
"866",15,32,1,1,146,3,2,0,1,0.574163278246409,0.556440284683364
"867",15,25,1,1,147,1,1,1,4,0.40145471612578,0.410050067438813
"868",15,26,1,1,148,1,1,1,4,0.414301815748737,0.366431120524756
"869",15,18,1,2,149,3,1,0,2,1.01462435790149,0.996715513219776
"870",15,23,1,2,150,3,1,0,1,1.11753678402594,1.04274702027794
"871",15,34,1,1,151,2,1,1,4,0.67608036617307,0.716576394101619
"872",15,31,1,1,152,1,1,1,5,0.420837361237565,0.370611528382061
"873",15,25,1,1,153,1,1,1,5,0.448247016199953,0.44923445588714
"874",15,28,1,1,154,1,2,0,4,0.677644882496547,0.741867090441836
"875",15,39,1,2,155,1,2,1,4,0.308615664766805,0.377874504537823
"876",15,32,1,2,156,2,1,0,2,0.682742821673286,0.766244376166392
"877",15,25,1,1,157,3,2,0,2,1.54217239633135,1.49654847337422
"878",15,26,1,1,158,1,1,1,4,0.446448105150032,0.481827761131414
"879",15,18,1,2,159,3,2,1,2,0.92637682390828,0.926000677179089
"880",15,23,1,2,160,1,1,0,3,0.57481784552329,0.609940877186553
"881",15,34,1,2,161,2,1,0,2,0.719965507601044,0.704307667681081
"882",15,31,1,2,162,1,2,1,5,0.425767037418206,0.48938687838632
"883",15,25,1,1,163,2,1,1,4,0.691668933016796,0.659717603886908
"884",15,28,1,2,164,2,1,0,3,0.63389690721956,0.550632545213393
"885",15,39,1,1,165,1,2,0,3,0.588429479466745,0.647084588837714
"886",15,32,1,2,166,1,2,1,5,0.405600554746318,0.475189437692519
"887",15,25,1,1,167,3,2,0,1,1.16279564052266,1.18377404269785
"888",15,26,1,2,168,1,2,1,5,0.488525566342378,0.488179056944899
"889",15,18,1,2,169,3,2,1,3,0.722682727684455,0.722823982158007
"890",15,23,1,2,170,2,2,1,3,0.598843820121551,0.537666271152873
"891",15,34,1,2,171,3,2,1,2,0.931927643830176,0.89528931175485
"892",15,31,1,1,172,2,1,1,3,0.64039011326335,0.629550459699676
"893",15,25,1,2,173,2,2,1,4,0.478652863259659,0.497787881481421
"894",15,28,1,1,174,3,2,0,1,1.44182539474825,1.56485887959912
"895",15,39,1,2,175,3,2,1,2,0.505677345220421,0.499161455355191
"896",15,32,1,1,176,2,1,1,4,0.508473964763236,0.48777025650341
"897",15,25,1,2,177,3,2,1,2,0.831334434440672,0.768542120408968
"898",15,26,1,1,178,3,1,1,3,0.689661527161898,0.642886858826069
"899",15,18,1,2,179,3,1,0,2,1.06635616666492,1.06170170799637
"900",15,23,1,1,180,3,1,1,2,0.72961680398648,0.777015568461888
"901",15,34,1,1,181,2,1,1,3,0.295285224567901,0.280405176418218
"902",15,31,1,1,182,2,2,0,2,0.833321089546502,0.827753838758924
"903",15,25,1,1,183,3,1,1,3,0.669158217952384,0.60903796355709
"904",15,28,1,2,184,2,2,1,3,0.544631395258853,0.653429413250776
"905",15,39,1,1,185,3,1,1,2,0.552017213235914,0.512689480952038
"906",15,32,1,1,186,2,1,1,4,0.482217699041378,0.469236334311437
"907",15,25,1,1,187,2,1,1,3,0.761005056100936,0.76199627695129
"908",15,26,1,2,188,3,2,1,2,0.809217253539028,0.882396516523189
"909",15,18,1,1,189,3,2,0,2,1.08382580989202,1.03170815579217
"910",15,23,1,2,190,1,2,1,4,0.340490253421221,0.317374833279375
"911",15,34,1,2,191,3,2,1,2,0.856633435935637,0.864544817728942
"912",15,31,1,1,192,1,1,1,4,0.311929455578994,0.379184919463352
"913",15,25,1,2,193,1,1,0,4,0.538629372126974,0.616395100412436
"914",15,28,1,1,194,1,2,0,4,0.545242546262126,0.52147192231559
"915",15,39,1,2,195,1,1,0,4,0.599875277973464,0.523673934934355
"916",15,32,1,2,196,2,1,0,2,0.520867623084909,0.494423399013978
"917",15,25,1,1,197,2,2,0,3,0.568003872211231,0.597232382149992
"918",15,26,1,2,198,2,2,1,3,0.759183523909645,0.766970266590013
"919",15,18,1,1,199,2,2,0,3,0.839200051034304,0.74787360275787
"920",15,23,1,2,200,3,2,1,3,0.669234053517767,0.679496938484343
"921",15,34,1,1,201,1,1,1,4,0.218426333548115,0.235755691897313
"922",15,31,1,2,202,1,2,1,5,0.448864487436469,0.448992830647801
"923",15,25,1,2,203,2,2,1,4,0.538738983522091,0.596872092303486
"924",15,28,1,2,204,1,2,1,4,0.382944036914085,0.337235674238897
"925",15,39,1,1,205,2,2,0,3,0.512824779232641,0.531384361944906
"926",15,32,1,1,206,3,1,1,2,0.719492212039827,0.68636774190847
"927",15,25,1,1,207,3,2,0,2,1.13620598596193,1.12419981903823
"928",15,26,1,2,208,3,1,0,2,0.849150295740364,0.840643290684292
"929",15,18,1,2,209,1,2,1,4,0.366705916832122,0.395723252104474
"930",15,23,1,2,210,2,1,0,2,0.203883314247602,0.234175486098214
"931",15,34,1,1,211,2,2,0,2,0.953561716041103,0.857042495323791
"932",15,31,1,2,212,3,1,0,2,1.27430323716611,1.23641963649004
"933",15,25,1,2,213,3,2,1,3,0.995192685401546,0.947224518944684
"934",15,28,1,2,214,2,1,0,2,0.894582883531078,0.953638133027314
"935",15,39,1,1,215,1,1,1,4,0.491384285351402,0.516667136005394
"936",15,32,1,1,216,1,1,1,5,0.411561454105526,0.370579820560405
"937",15,25,1,2,217,2,2,1,3,0.284974290216688,0.307663157147279
"938",15,26,1,1,218,2,1,1,4,0.663783250398531,0.691470582918685
"939",15,18,1,2,219,2,2,1,3,0.254612956392688,0.224373796514014
"940",15,23,1,2,220,2,1,0,3,0.92985469493718,1.01469172651785
"941",15,34,1,2,221,1,1,0,3,0.483109619906382,0.425947467346624
"942",15,31,1,1,222,1,1,1,5,0.399034299624653,0.337184472942341
"943",15,25,1,1,223,2,2,0,2,0.851772085388866,0.882741639922577
"944",15,28,1,1,224,3,1,1,3,0.730952706771038,0.753840110648543
"945",15,39,1,1,225,3,2,0,1,0.574749484929041,0.511240528292099
"946",15,32,1,2,226,3,1,0,2,1.66121270159057,1.56656738493915
"947",15,25,1,2,227,3,2,1,2,0.755848755773997,0.813146506246636
"948",15,26,1,2,228,1,1,0,4,0.506158719438557,0.467866481851362
"949",15,18,1,1,229,1,1,1,5,0.468911339257934,0.478460780469023
"950",15,23,1,1,230,1,1,1,5,0.473098797134378,0.474735172799053
"951",15,34,1,1,231,1,1,1,4,0.417786410531361,0.410479899584516
"952",15,31,1,2,232,1,2,1,5,0.490414878759692,0.549297321766329
"953",15,25,1,2,233,3,1,0,2,0.838011945825075,0.827577671700924
"954",15,28,1,1,234,2,1,1,4,0.734166138536067,0.791629654246074
"955",15,39,1,2,235,2,2,1,4,0.661984243860816,0.625553439406913
"956",15,32,1,1,236,2,1,1,3,0.605818320100489,0.538799912139724
"957",15,25,1,1,237,3,2,0,2,1.04428195353378,1.17977970336747
"958",15,26,1,2,238,3,2,1,3,0.865094206023618,0.874147845892859
"959",15,18,1,1,239,3,2,0,1,1.11713858787646,1.12689280899675
"960",15,23,1,1,240,1,1,1,5,0.474932746522666,0.413105854708627
"961",14,34,2,2,1,2,1,0,3,0.676222163649528,0.686250377958745
"962",14,22,2,2,2,3,1,0,2,1.46449202452015,1.50127345178408
"963",14,20,2,1,3,1,2,0,4,0.737773064454582,0.710828100529507
"964",14,28,2,2,4,2,1,0,2,0.505792833158553,0.546273691754599
"965",14,33,2,1,5,1,1,1,4,0.533902326959933,0.581326689078307
"966",14,36,2,2,6,3,2,1,2,0.4261041070099,0.436613049882128
"967",14,19,2,1,7,1,2,0,3,0.451132965796705,0.479910537694296
"968",14,35,2,1,8,1,1,1,4,0.321478022817468,0.376964089898471
"969",14,23,2,1,9,2,1,1,3,0.632058043625546,0.707879958135527
"970",14,24,2,2,10,2,2,1,3,0.39056347433689,0.336118812519525
"971",14,34,2,2,11,2,2,1,3,0.670703413754894,0.71015591309994
"972",14,22,2,2,12,3,1,0,1,0.55717089585579,0.596054362538989
"973",14,20,2,1,13,2,1,1,4,0.636547540971471,0.68197122126585
"974",14,28,2,1,14,3,1,1,3,1.04114288834397,1.07257614829396
"975",14,33,2,2,15,3,2,1,3,0.817783931988472,0.764720705951985
"976",14,36,2,1,16,2,1,1,3,0.329975233821,0.418932476593285
"977",14,19,2,1,17,2,2,0,3,0.739409517664663,0.850211612427391
"978",14,35,2,1,18,3,1,1,2,0.901358188781832,0.844063541432991
"979",14,23,2,2,19,3,1,0,2,1.14294926670525,1.12464425007988
"980",14,24,2,1,20,1,1,1,4,0.473371784058291,0.443718972586786
"981",14,34,2,1,21,3,2,0,2,1.22870367877102,1.35139452491729
"982",14,22,2,2,22,1,2,1,5,0.375958729245602,0.38589605470905
"983",14,20,2,1,23,3,1,1,3,0.597993194397545,0.569604530067753
"984",14,28,2,2,24,2,2,1,3,0.504198535686437,0.55104614870509
"985",14,33,2,1,25,2,1,1,3,0.506872612187973,0.502458631455422
"986",14,36,2,1,26,1,1,1,4,0.458025001991163,0.532961786022852
"987",14,19,2,2,27,2,2,1,4,0.65692015921395,0.70746156178015
"988",14,35,2,2,28,2,1,0,2,0.591397316324095,0.582942202615116
"989",14,23,2,2,29,3,2,1,2,0.49566369251466,0.428695081696787
"990",14,24,2,1,30,2,1,1,4,0.455372647421335,0.382292268197529
"991",14,34,2,2,31,1,2,1,4,0.490531199310817,0.510397844201176
"992",14,22,2,2,32,3,1,0,2,1.38728270286845,1.39845943259486
"993",14,20,2,1,33,1,1,1,4,0.438904724182585,0.344050601468808
"994",14,28,2,1,34,3,2,0,2,1.70632408328342,1.72415176158417
"995",14,33,2,1,35,1,1,1,4,0.381582318919569,0.396947970377505
"996",14,36,2,1,36,2,1,1,3,0.719379743711912,0.731801268512527
"997",14,19,2,2,37,3,2,1,3,0.552974701476457,0.521961087313458
"998",14,35,2,1,38,1,2,0,4,0.544046226372774,0.529067897908975
"999",14,23,2,1,39,1,1,1,5,0.423151292584198,0.330737456965045
"1000",14,24,2,1,40,3,2,0,2,1.10394050776692,1.12938668155659
"1001",14,34,2,2,41,2,2,1,4,0.657031605950255,0.73095682660674
"1002",14,22,2,1,42,2,2,0,2,0.946381177045281,1.03386380083248
"1003",14,20,2,1,43,2,1,1,3,0.662117327195727,0.740976596620356
"1004",14,28,2,2,44,1,2,1,5,0.448931740017589,0.510304771369136
"1005",14,33,2,2,45,1,2,1,4,0.525590317721064,0.552454771721481
"1006",14,36,2,2,46,2,2,1,3,0.677976519141809,0.735579540503566
"1007",14,19,2,1,47,1,1,1,4,0.351003927150739,0.343716055167088
"1008",14,35,2,2,48,1,2,1,4,0.597591145998426,0.610706419923295
"1009",14,23,2,1,49,2,1,1,3,0.626175480935865,0.54269505541044
"1010",14,24,2,1,50,2,2,0,2,0.711379994311308,0.720944867304046
"1011",14,34,2,2,51,1,2,1,4,0.299028628939635,0.238354363510819
"1012",14,22,2,1,52,3,2,0,1,0.176879253978467,0.1170415379984
"1013",14,20,2,1,53,1,2,0,4,0.594022418343982,0.580154355387668
"1014",14,28,2,2,54,1,2,1,4,0.400890100058016,0.427887896233562
"1015",14,33,2,1,55,3,1,1,3,0.495162721236378,0.559369211928386
"1016",14,36,2,1,56,2,1,1,4,0.818727658754082,0.831957527046806
"1017",14,19,2,2,57,3,1,0,2,0.926451151187085,0.966102174220494
"1018",14,35,2,1,58,1,2,0,4,0.641854481378336,0.613030448499839
"1019",14,23,2,2,59,2,1,0,3,0.688970289114347,0.732763343177521
"1020",14,24,2,1,60,1,1,1,4,0.270447767095294,0.335570546387064
"1021",14,34,2,1,61,2,1,1,3,0.589569678327073,0.58940365517202
"1022",14,22,2,1,62,3,2,0,2,1.33898315443665,1.35089393773733
"1023",14,20,2,2,63,3,2,1,3,0.579181593088335,0.620010216514059
"1024",14,28,2,1,64,3,2,0,1,0.855081652915177,0.837543025795552
"1025",14,33,2,1,65,3,1,1,2,0.842608554260023,0.852703685207638
"1026",14,36,2,1,66,1,1,1,5,0.55436034363033,0.556121859254408
"1027",14,19,2,1,67,2,2,0,3,0.862174421815203,0.843993701635138
"1028",14,35,2,2,68,2,2,1,3,0.745501610962876,0.729356098400575
"1029",14,23,2,2,69,3,2,1,3,0.588599098607499,0.532977048983027
"1030",14,24,2,1,70,3,2,0,2,0.831282667205712,0.839060934587554
"1031",14,34,2,1,71,2,2,0,2,0.713829041428248,0.726054296318414
"1032",14,22,2,1,72,1,1,1,4,0.408626544200098,0.370542293763611
"1033",14,20,2,1,73,3,2,0,2,1.17299067413106,1.24958528900986
"1034",14,28,2,1,74,3,1,1,2,0.709817912609012,0.768416990959134
"1035",14,33,2,1,75,3,2,0,1,1.20335492787077,1.21268176656754
"1036",14,36,2,2,76,1,1,0,3,0.594729536369983,0.594705059608137
"1037",14,19,2,2,77,3,1,0,2,0.908571945915207,0.876815314735353
"1038",14,35,2,1,78,2,2,0,3,0.598852728009542,0.634616572416607
"1039",14,23,2,2,79,3,1,0,1,0.418336651844952,0.390798580649734
"1040",14,24,2,2,80,2,2,1,3,0.504362801892975,0.550091860774109
"1041",14,34,2,2,81,2,1,0,2,0.900844668811645,0.964881194896025
"1042",14,22,2,2,82,1,2,1,4,0.325500445934638,0.191254638976915
"1043",14,20,2,2,83,2,1,0,2,0.91252520693158,0.959940092381836
"1044",14,28,2,2,84,3,2,1,2,0.548475154314445,0.514561013138827
"1045",14,33,2,2,85,2,1,0,3,0.348418559111676,0.384070646544074
"1046",14,36,2,1,86,1,2,0,4,0.496972005136886,0.41726165358047
"1047",14,19,2,2,87,3,2,1,3,0.743841412907481,0.682786749478407
"1048",14,35,2,2,88,1,1,0,3,0.62944744927605,0.608017263453322
"1049",14,23,2,1,89,1,1,1,5,0.30789880104851,0.269180720628387
"1050",14,24,2,1,90,3,1,1,3,0.697589645643565,0.723170265383557
"1051",14,34,2,1,91,2,1,1,4,0.828253656189095,0.80358710240043
"1052",14,22,2,1,92,1,1,1,4,0.607463819756203,0.620369026538721
"1053",14,20,2,2,93,2,2,1,4,0.503696449714568,0.460786686540211
"1054",14,28,2,1,94,2,1,1,3,0.79672278649383,0.696687721391319
"1055",14,33,2,2,95,3,2,1,3,0.592100729874133,0.621194136371914
"1056",14,36,2,1,96,1,1,1,5,0.42749618833484,0.413781113918473
"1057",14,19,2,1,97,3,1,1,2,0.848775440135805,0.871859149065136
"1058",14,35,2,1,98,3,1,1,3,0.88532566625895,0.974357475230783
"1059",14,23,2,2,99,3,1,0,2,2.71783592361957,2.71363884193952
"1060",14,24,2,1,100,1,1,1,4,0.403254470888793,0.424367440037606
"1061",14,34,2,1,101,3,1,1,3,0.821338365956689,0.842134173102915
"1062",14,22,2,1,102,3,2,0,2,0.122909172861706,0.0741251282059734
"1063",14,20,2,1,103,1,1,1,4,0.377451008595994,0.322918408070949
"1064",14,28,2,2,104,2,2,1,3,0.718892579289739,0.747585926780694
"1065",14,33,2,1,105,2,2,0,2,0.876346630614234,0.932400257640198
"1066",14,36,2,2,106,3,1,0,2,1.51096146769537,1.53842901701182
"1067",14,19,2,2,107,2,2,1,4,0.673552219620241,0.753080834730269
"1068",14,35,2,1,108,2,2,0,2,0.781523605339033,0.91117299550297
"1069",14,23,2,2,109,1,2,1,5,0.423880909310764,0.434314320038121
"1070",14,24,2,1,110,1,1,1,5,0.34115773411026,0.290078696708785
"1071",14,34,2,2,111,1,1,0,3,0.477719423264527,0.534020141338338
"1072",14,22,2,2,112,2,2,1,3,0.735165517430192,0.746671729392781
"1073",14,20,2,2,113,1,2,1,4,0.323416104353816,0.290731694685594
"1074",14,28,2,2,114,2,2,1,4,0.770693174054276,0.792777312685671
"1075",14,33,2,2,115,3,1,0,1,1.52730102177717,1.63126337443664
"1076",14,36,2,2,116,1,1,0,4,0.500308903307678,0.527671261830305
"1077",14,19,2,1,117,1,1,1,4,0.546026849587463,0.446784706939303
"1078",14,35,2,2,118,3,1,0,1,0.752131646540653,0.760594411458243
"1079",14,23,2,2,119,1,2,1,5,0.36852573400143,0.446624711318348
"1080",14,24,2,2,120,2,2,1,4,0.631696465403622,0.622382023416487
"1081",14,34,2,2,121,1,1,0,4,0.577996624596016,0.498299798683847
"1082",14,22,2,2,122,3,1,0,2,1.14701328687303,1.08209090398793
"1083",14,20,2,1,123,1,1,1,4,0.432763499232382,0.490520138919011
"1084",14,28,2,1,124,2,2,0,2,0.960088214208586,0.894194608648901
"1085",14,33,2,2,125,2,1,0,2,0.840203801791335,0.842541597495963
"1086",14,36,2,2,126,3,1,0,1,0.654750305262063,0.59522553175113
"1087",14,19,2,1,127,2,2,0,3,0.518150966065722,0.45378721320193
"1088",14,35,2,1,128,2,1,1,4,0.706115292364274,0.707562641297915
"1089",14,23,2,2,129,2,1,0,2,0.709283332358051,0.709505752474482
"1090",14,24,2,2,130,3,1,0,1,0.67472499453779,0.656214570788103
"1091",14,34,2,2,131,3,1,0,1,1.0762354281775,1.06709924008072
"1092",14,22,2,1,132,3,1,1,3,0.773883049215836,0.816331519869815
"1093",14,20,2,1,133,3,2,0,1,0.561088664576455,0.581849680914748
"1094",14,28,2,1,134,3,2,0,2,1.30546475732522,1.2553919783834
"1095",14,33,2,1,135,3,2,0,1,1.11048405712163,1.03419157452443
"1096",14,36,2,2,136,1,2,1,4,0.357168024372574,0.3062077148771
"1097",14,19,2,2,137,3,1,0,2,1.2321443895232,1.25555792343072
"1098",14,35,2,1,138,3,1,1,2,0.495826989190753,0.471500704557332
"1099",14,23,2,2,139,1,2,1,5,0.370645379007929,0.382100826440164
"1100",14,24,2,1,140,2,2,0,3,0.837661024336603,0.817625110881255
"1101",14,34,2,2,141,1,2,1,4,0.432724707459692,0.385154967070819
"1102",14,22,2,1,142,3,1,1,2,0.727835767696433,0.720592406413044
"1103",14,20,2,2,143,2,2,1,3,0.799850538451912,0.759677420428814
"1104",14,28,2,2,144,2,2,1,3,0.528455131959021,0.531593133229066
"1105",14,33,2,1,145,3,2,0,1,1.36266354844078,1.33984852568049
"1106",14,36,2,2,146,3,1,0,2,1.70571256044356,1.61528295752373
"1107",14,19,2,1,147,3,1,1,3,0.643943749084807,0.50589618595872
"1108",14,35,2,1,148,1,2,0,4,0.491168431627434,0.54651065371567
"1109",14,23,2,2,149,2,2,1,4,0.586097685587937,0.692348277237484
"1110",14,24,2,1,150,1,1,1,4,0.483768106206557,0.478154504958677
"1111",14,34,2,1,151,1,1,1,4,0.337035463626895,0.391667673152653
"1112",14,22,2,2,152,1,2,1,5,0.428178263762892,0.442490628203908
"1113",14,20,2,2,153,1,2,1,4,0.501045463998654,0.529790188274913
"1114",14,28,2,1,154,3,1,1,2,0.721982909562761,0.662339105461652
"1115",14,33,2,2,155,2,2,1,3,0.710660153756575,0.638089061287308
"1116",14,36,2,1,156,1,1,1,5,0.518880444329507,0.617318061655413
"1117",14,19,2,2,157,3,2,1,3,0.91020611398064,0.884362509399063
"1118",14,35,2,1,158,2,1,1,4,0.542506633480605,0.472225546178177
"1119",14,23,2,1,159,2,1,1,4,0.463511886685966,0.393135735664425
"1120",14,24,2,2,160,2,2,1,3,0.562521503870662,0.589635767279818
"1121",14,34,2,2,161,1,1,0,4,0.640160263727839,0.673195176409504
"1122",14,22,2,1,162,1,1,1,4,0.283245983795457,0.26293963215812
"1123",14,20,2,1,163,1,1,1,4,0.353369564006332,0.359449808848981
"1124",14,28,2,1,164,1,1,1,5,0.457598972433501,0.428725251991766
"1125",14,33,2,2,165,1,1,0,4,0.77097209921012,0.811065368439676
"1126",14,36,2,2,166,2,1,0,3,0.690722101539551,0.669548508057211
"1127",14,19,2,1,167,3,1,1,2,0.414885421332595,0.412432452962727
"1128",14,35,2,1,168,2,2,0,3,0.842068876700352,0.872866623640366
"1129",14,23,2,1,169,3,2,0,1,1.50581092963618,1.51372985081312
"1130",14,24,2,1,170,3,1,1,2,0.713800601868826,0.815407433813483
"1131",14,34,2,1,171,3,2,0,2,1.20135643886348,1.28778621348637
"1132",14,22,2,2,172,1,2,1,5,0.365903387659211,0.343928177566596
"1133",14,20,2,1,173,2,2,0,2,0.718925067214549,0.756797621394351
"1134",14,28,2,1,174,1,1,1,5,0.393853931913722,0.379228965671328
"1135",14,33,2,2,175,1,2,1,4,0.523881479897789,0.589083554498022
"1136",14,36,2,2,176,3,2,1,2,0.959152430419245,0.924707852274202
"1137",14,19,2,2,177,3,1,0,2,1.20542862991497,1.18951856679817
"1138",14,35,2,2,178,2,2,1,3,0.409461188928664,0.451117588777678
"1139",14,23,2,2,179,2,2,1,3,0.583335507192916,0.50603258389087
"1140",14,24,2,1,180,1,1,1,5,0.447779205491343,0.438838425664678
"1141",14,34,2,2,181,3,1,0,1,1.56408543193853,1.58738995194653
"1142",14,22,2,1,182,3,2,0,2,0.680513833177047,0.697552444811988
"1143",14,20,2,1,183,3,1,1,2,1.07884836569455,1.0976704947521
"1144",14,28,2,2,184,3,2,1,2,0.707738336971872,0.670067213641126
"1145",14,33,2,1,185,2,2,0,3,0.692461900485256,0.643916301972458
"1146",14,36,2,1,186,2,1,1,3,0.504386032713761,0.542616485856706
"1147",14,19,2,2,187,1,2,1,5,0.5403209695779,0.595160491598321
"1148",14,35,2,2,188,1,2,1,4,0.372260117324353,0.471232968066555
"1149",14,23,2,2,189,1,2,1,5,0.533082551366359,0.556703938303045
"1150",14,24,2,1,190,2,1,1,4,0.841860260977251,0.797081554796502
"1151",14,34,2,2,191,2,1,0,3,0.648525705671174,0.648651590564128
"1152",14,22,2,2,192,1,2,1,4,0.36300105459676,0.34759561288057
"1153",14,20,2,2,193,3,1,0,2,1.78597089274182,1.77772210232734
"1154",14,28,2,2,194,3,2,1,3,1.14307680254626,1.17887774654367
"1155",14,33,2,2,195,1,1,0,3,0.771512525231286,0.820991297205243
"1156",14,36,2,2,196,2,2,1,3,0.624282174316624,0.559993154480108
"1157",14,19,2,2,197,3,2,1,2,0.978429780402669,0.979906830611026
"1158",14,35,2,1,198,1,1,1,5,0.424177742137203,0.443732486184027
"1159",14,23,2,1,199,2,1,1,3,0.604619655080526,0.532533087574025
"1160",14,24,2,2,200,1,2,1,5,0.419044016735561,0.422383358704531
"1161",14,34,2,2,201,2,1,0,2,0.705497480231242,0.697177971052183
"1162",14,22,2,1,202,2,1,1,3,0.68328486856395,0.782178566485631
"1163",14,20,2,1,203,3,2,0,1,0.797034214444645,0.738834707580746
"1164",14,28,2,1,204,1,1,1,4,0.482770994983551,0.511151430649873
"1165",14,33,2,1,205,1,1,1,5,0.354476314604917,0.381797864824097
"1166",14,36,2,2,206,2,2,1,3,0.514230773556244,0.527050546786619
"1167",14,19,2,2,207,2,2,1,4,0.61856271445626,0.593897236561841
"1168",14,35,2,2,208,1,1,0,4,0.41386767060835,0.393682608141855
"1169",14,23,2,2,209,1,1,0,4,0.618702640545358,0.572087069477793
"1170",14,24,2,1,210,1,1,1,4,0.393571349456035,0.324076411048206
"1171",14,34,2,2,211,2,2,1,3,0.610250086833997,0.592405602608105
"1172",14,22,2,1,212,2,1,1,4,0.762111482855893,0.737753638103966
"1173",14,20,2,2,213,1,1,0,3,0.51792321515045,0.492826533191113
"1174",14,28,2,2,214,1,2,1,5,0.401098754747404,0.352893156333223
"1175",14,33,2,2,215,2,2,1,3,0.486578280635192,0.617257474577521
"1176",14,36,2,1,216,1,1,1,4,0.351096670876547,0.26105320495281
"1177",14,19,2,1,217,2,2,0,3,0.570490840470294,0.565284634215668
"1178",14,35,2,1,218,3,1,1,2,1.29529750271691,1.31067264745985
"1179",14,23,2,1,219,1,1,1,4,0.371286738437783,0.336891148619938
"1180",14,24,2,2,220,2,2,1,4,0.641784619240145,0.646089574569942
"1181",14,34,2,1,221,1,1,1,4,0.527458444828183,0.551146292824433
"1182",14,22,2,1,222,2,2,0,3,0.471320995125976,0.474416856687345
"1183",14,20,2,1,223,1,2,0,3,0.701575460945902,0.795442237882977
"1184",14,28,2,1,224,3,1,1,2,0.853472160028392,0.780553180171708
"1185",14,33,2,2,225,3,1,0,2,1.24293320164554,1.2672128044626
"1186",14,36,2,1,226,3,2,0,2,1.19090022889003,1.21653570384948
"1187",14,19,2,2,227,2,2,1,3,0.718605675887059,0.77578408618329
"1188",14,35,2,2,228,2,1,0,3,0.44393450106616,0.488753050000505
"1189",14,23,2,2,229,1,2,1,5,0.37950666880327,0.416157679901408
"1190",14,24,2,2,230,3,1,0,1,0.761978793006247,0.782697256193553
"1191",14,34,2,1,231,3,2,0,1,1.05951082798558,1.12718025732136
"1192",14,22,2,2,232,3,1,0,2,0.847426908857679,0.895966365426595
"1193",14,20,2,2,233,2,2,1,3,0.636442425635591,0.680987896425188
"1194",14,28,2,2,234,2,2,1,4,0.637770099828837,0.663502489024013
"1195",14,33,2,1,235,3,1,1,3,0.680646681138356,0.73840130062611
"1196",14,36,2,2,236,3,2,1,2,0.895071185150391,0.898723489051987
"1197",14,19,2,2,237,2,1,0,3,0.619386408903927,0.587827734935603
"1198",14,35,2,2,238,1,2,1,5,0.384979274259838,0.441976433999189
"1199",14,23,2,1,239,1,1,1,5,0.498497728559602,0.521854113678379
"1200",14,24,2,2,240,3,2,1,3,0.518133412505003,0.608042354519535
"1201",13,23,1,1,1,1,1,1,4,0.325104332330667,0.338131623800354
"1202",13,30,1,2,2,1,2,1,4,0.47972621636328,0.448774583216977
"1203",13,21,1,2,3,3,1,0,2,0.815451014904405,0.825622063666337
"1204",13,18,1,1,4,3,1,1,2,0.868755543112662,0.947457993040031
"1205",13,35,1,2,5,1,2,1,5,0.337053609549962,0.345185712501566
"1206",13,29,1,2,6,1,1,0,4,0.781248967388369,0.760158248685654
"1207",13,32,1,2,7,3,2,1,2,1.093386434462,1.0172240756279
"1208",13,39,1,2,8,1,1,0,3,0.449347021484175,0.46059684958579
"1209",13,26,1,2,9,1,2,1,4,0.474245393249129,0.494538073004184
"1210",13,18,1,1,10,3,2,0,1,0.710406478448052,0.698946302778527
"1211",13,23,1,1,11,1,1,1,4,0.381106107325638,0.418425302083382
"1212",13,30,1,2,12,2,1,0,2,0.652678854484621,0.628260533524601
"1213",13,21,1,1,13,2,1,1,3,0.556064959563645,0.610472326298551
"1214",13,18,1,1,14,1,2,0,4,0.545566826774092,0.523766619217357
"1215",13,35,1,2,15,1,2,1,5,0.315819996329037,0.315809646789625
"1216",13,29,1,1,16,1,2,0,3,0.330949990813138,0.335576629190097
"1217",13,32,1,2,17,1,2,1,4,0.305463780358429,0.241261865951848
"1218",13,39,1,2,18,2,2,1,4,0.569678751873449,0.592866758805376
"1219",13,26,1,2,19,2,1,0,2,0.84810872189648,0.731729159791091
"1220",13,18,1,2,20,3,1,0,2,0.977926703931213,0.999602541025059
"1221",13,23,1,1,21,1,1,1,5,0.471325396931967,0.565601600161742
"1222",13,30,1,2,22,3,1,0,1,0.970141317612958,1.03667331549197
"1223",13,21,1,2,23,1,1,0,4,0.581612066969819,0.654044597952574
"1224",13,18,1,2,24,3,1,0,2,1.08099641915544,1.12171691799513
"1225",13,35,1,1,25,3,2,0,2,1.40858052292977,1.37762112820575
"1226",13,29,1,2,26,2,2,1,4,0.706750153919343,0.748378105789244
"1227",13,32,1,2,27,3,2,1,3,0.405920937285911,0.367361880047456
"1228",13,39,1,2,28,1,2,1,5,0.473810415103186,0.449647371007299
"1229",13,26,1,2,29,1,1,0,4,0.380035855164952,0.354450137284645
"1230",13,18,1,1,30,3,2,0,1,0.938860816292908,0.886222328930529
"1231",13,23,1,1,31,3,2,0,2,1.1672023502897,1.14704174951324
"1232",13,30,1,1,32,1,1,1,5,0.409088008711809,0.421899007283142
"1233",13,21,1,2,33,1,2,1,5,0.350966949934445,0.401239654659353
"1234",13,18,1,2,34,3,2,1,2,0.592972300046028,0.576655559337076
"1235",13,35,1,2,35,1,1,0,4,0.557070402405995,0.587210193305007
"1236",13,29,1,2,36,2,2,1,3,0.493436964887468,0.510191327894679
"1237",13,32,1,2,37,2,1,0,3,0.758873973747948,0.77435139220257
"1238",13,39,1,2,38,1,2,1,4,0.372661816873452,0.352639394069836
"1239",13,26,1,1,39,2,1,1,4,0.888855362829235,0.919162553704317
"1240",13,18,1,1,40,2,1,1,4,0.542831540284056,0.522576846415902
"1241",13,23,1,2,41,2,1,0,2,0.51374423759186,0.591509360907813
"1242",13,30,1,1,42,2,2,0,3,0.903624402159426,0.92192078002098
"1243",13,21,1,2,43,1,2,1,5,0.579982801237327,0.626211734785082
"1244",13,18,1,1,44,3,2,0,1,1.33518696315927,1.40541783166375
"1245",13,35,1,2,45,2,1,0,2,0.952749431213942,0.910158054999867
"1246",13,29,1,1,46,1,1,1,5,0.451817516818638,0.490240309168794
"1247",13,32,1,2,47,2,1,0,2,0.684039972980002,0.669444827034888
"1248",13,39,1,2,48,2,2,1,4,0.390666624694229,0.397188512133953
"1249",13,26,1,1,49,1,2,0,3,0.52613566646417,0.554195816495264
"1250",13,18,1,2,50,2,2,1,4,0.717432741207732,0.736633143579871
"1251",13,23,1,1,51,3,2,0,2,0.749000679199161,0.660714679264716
"1252",13,30,1,1,52,1,2,0,3,0.587327636082215,0.55772355701017
"1253",13,21,1,1,53,1,1,1,5,0.441623706183182,0.431810210619325
"1254",13,18,1,1,54,1,1,1,5,0.38619116411353,0.440827637342624
"1255",13,35,1,1,55,1,1,1,4,0.314196425790778,0.365311086397098
"1256",13,29,1,1,56,1,1,1,4,0.421001347143799,0.369717401319785
"1257",13,32,1,2,57,3,1,0,2,0.741100512768426,0.741353496638103
"1258",13,39,1,2,58,3,1,0,2,0.433541758021792,0.47110106675753
"1259",13,26,1,1,59,3,2,0,2,0.80866904188779,0.782032732445409
"1260",13,18,1,2,60,2,1,0,2,0.738280258478555,0.736209561325514
"1261",13,23,1,1,61,2,2,0,3,0.57843122756134,0.566328475378398
"1262",13,30,1,2,62,3,1,0,2,0.137327108452292,0.119853071132925
"1263",13,21,1,2,63,3,1,0,1,0.693675199872387,0.855048106505462
"1264",13,18,1,2,64,3,1,0,1,1.04380207941768,1.1144306506217
"1265",13,35,1,1,65,2,1,1,3,0.666781536792854,0.686473385216431
"1266",13,29,1,1,66,1,1,1,4,0.41148503342767,0.438486474687197
"1267",13,32,1,2,67,3,1,0,2,1.2388986592558,1.26981144845228
"1268",13,39,1,2,68,1,2,1,4,0.454842998260465,0.460232702195898
"1269",13,26,1,2,69,2,1,0,3,0.644235022562513,0.613397106970981
"1270",13,18,1,1,70,1,1,1,5,0.344708940811928,0.417623874510796
"1271",13,23,1,1,71,1,1,1,4,0.485189195792769,0.500644813758629
"1272",13,30,1,2,72,2,2,1,4,0.460559267530093,0.488846557169021
"1273",13,21,1,1,73,3,1,1,3,0.511667108130314,0.481534640071361
"1274",13,18,1,1,74,2,1,1,4,0.630415173219992,0.673820166569534
"1275",13,35,1,2,75,3,1,0,1,1.1546597526157,1.10640411360898
"1276",13,29,1,1,76,2,1,1,4,0.920990227607258,0.930098718711427
"1277",13,32,1,1,77,2,2,0,2,0.843305246098896,0.828862197627532
"1278",13,39,1,2,78,1,2,1,4,0.331913449632163,0.366128938083659
"1279",13,26,1,2,79,1,2,1,5,0.37065559165673,0.388166590745828
"1280",13,18,1,2,80,3,1,0,2,0.796480267576232,0.800803244539622
"1281",13,23,1,1,81,3,2,0,1,0.815410991061517,0.749784464657851
"1282",13,30,1,2,82,1,2,1,4,0.33989491453096,0.3153699407842
"1283",13,21,1,1,83,2,1,1,3,0.590172423312007,0.51001759075167
"1284",13,18,1,2,84,1,2,1,5,0.51475723952413,0.512278386983607
"1285",13,35,1,1,85,3,2,0,1,1.12601809962801,1.09764395988959
"1286",13,29,1,2,86,3,2,1,2,0.727185832222075,0.695480715879727
"1287",13,32,1,1,87,3,2,0,1,0.980744524154012,0.989840897838864
"1288",13,39,1,2,88,1,2,1,4,0.356970101312672,0.366960328602396
"1289",13,26,1,1,89,2,2,0,2,0.715420109995669,0.71600524198587
"1290",13,18,1,1,90,3,2,0,1,0.407697900449013,0.344353069112615
"1291",13,23,1,1,91,2,1,1,3,0.636609092187455,0.652523789285537
"1292",13,30,1,2,92,2,1,0,2,0.696095503850959,0.653399239184014
"1293",13,21,1,1,93,3,1,1,3,0.793630584977112,0.793541092880021
"1294",13,18,1,2,94,3,1,0,2,0.873967353250593,0.849877939714675
"1295",13,35,1,2,95,2,1,0,3,0.684706614217898,0.645246652806836
"1296",13,29,1,2,96,3,1,0,1,1.14709262765088,1.13125734996642
"1297",13,32,1,2,97,2,2,1,4,0.538040550939761,0.594032502210474
"1298",13,39,1,2,98,2,1,0,3,0.72290072684811,0.725179470775753
"1299",13,26,1,1,99,3,2,0,1,1.06937308120219,1.1207600506994
"1300",13,18,1,1,100,1,2,0,3,0.45576631773055,0.37560758005741
"1301",13,23,1,1,101,1,1,1,5,0.562778937911228,0.512537254247728
"1302",13,30,1,1,102,3,2,0,2,1.07086733590356,1.0096369250661
"1303",13,21,1,2,103,3,1,0,1,1.7663623548376,1.8149237449841
"1304",13,18,1,2,104,3,2,1,2,0.818915774609387,0.78642530388331
"1305",13,35,1,2,105,3,1,0,1,0.992914355368265,0.917182910842465
"1306",13,29,1,2,106,3,2,1,3,1.02713723598957,1.05971915719583
"1307",13,32,1,2,107,3,1,0,1,1.50266971221778,1.5628817746081
"1308",13,39,1,2,108,3,2,1,2,0.708773728084091,0.701691827925102
"1309",13,26,1,1,109,2,2,0,2,0.622989644029462,0.646331154053201
"1310",13,18,1,1,110,2,2,0,3,0.711280092319219,0.676211853404747
"1311",13,23,1,1,111,1,1,1,5,0.336144810115452,0.20576318622712
"1312",13,30,1,1,112,3,1,1,3,0.36155650200205,0.305028258267459
"1313",13,21,1,1,113,3,1,1,3,0.650912984351757,0.585277965172182
"1314",13,18,1,2,114,1,2,1,4,0.578333643515895,0.568067263046165
"1315",13,35,1,1,115,2,1,1,4,0.698482854592618,0.772937426699122
"1316",13,29,1,1,116,1,2,0,4,0.691244104918342,0.746617614598933
"1317",13,32,1,2,117,1,2,1,5,0.504527529621891,0.515745397997763
"1318",13,39,1,2,118,2,1,0,3,0.617320728828795,0.744989945589831
"1319",13,26,1,1,119,1,1,1,5,0.324115043663571,0.4093791444386
"1320",13,18,1,1,120,1,2,0,4,0.576403761357406,0.560329098980834
"1321",13,23,1,1,121,1,1,1,4,0.395465092027263,0.345213603750627
"1322",13,30,1,2,122,3,1,0,2,1.33997938674654,1.34864785598812
"1323",13,21,1,1,123,1,1,1,4,0.317773475582135,0.285152694471135
"1324",13,18,1,1,124,2,2,0,3,0.591060881719378,0.500286002038569
"1325",13,35,1,2,125,3,2,1,2,0.584979672960651,0.559471739970042
"1326",13,29,1,2,126,3,1,0,1,1.23771311217249,1.22784291844519
"1327",13,32,1,2,127,1,2,1,4,0.436552182486233,0.425695128196671
"1328",13,39,1,1,128,1,1,1,4,0.397412985429293,0.352880918985893
"1329",13,26,1,2,129,1,2,1,5,0.333926953779825,0.329496467280947
"1330",13,18,1,2,130,2,2,1,3,0.642095126511883,0.670889118956074
"1331",13,23,1,1,131,3,1,1,2,0.404868871392292,0.378059607510388
"1332",13,30,1,1,132,3,2,0,1,0.686714215056554,0.646944787663929
"1333",13,21,1,1,133,1,1,1,5,0.367074045885228,0.333077486520035
"1334",13,18,1,2,134,2,2,1,3,0.81112286721246,0.823927744185498
"1335",13,35,1,2,135,1,2,1,5,0.292784841856261,0.320170607141481
"1336",13,29,1,2,136,1,2,1,5,0.352038956234055,0.372811770279112
"1337",13,32,1,2,137,1,2,1,4,0.379791796871914,0.340766672925454
"1338",13,39,1,2,138,2,2,1,3,0.493975287644912,0.433458776232585
"1339",13,26,1,2,139,1,2,1,4,0.439524088386491,0.408223958455948
"1340",13,18,1,1,140,1,2,0,4,0.693151537430911,0.667993973808375
"1341",13,23,1,1,141,2,1,1,4,0.403924174578544,0.31117929436005
"1342",13,30,1,1,142,3,1,1,3,1.03347503279247,1.01342156210535
"1343",13,21,1,1,143,2,1,1,3,0.72474096015481,0.739218714141416
"1344",13,18,1,2,144,1,2,1,4,0.438550972713521,0.415711334946295
"1345",13,35,1,2,145,3,1,0,1,0.128455720854199,0.0488490171609987
"1346",13,29,1,1,146,3,2,0,2,0.136262621152977,0.12744631558152
"1347",13,32,1,1,147,3,2,0,2,1.29897624679005,1.30966746242703
"1348",13,39,1,1,148,3,2,0,2,0.487143172882349,0.474304732970021
"1349",13,26,1,2,149,3,2,1,3,0.749044407811845,0.687320168778444
"1350",13,18,1,2,150,3,2,1,3,0.938331443976903,0.90055318380532
"1351",13,23,1,1,151,3,1,1,2,0.974448300930571,0.890400644334149
"1352",13,30,1,1,152,1,1,1,4,0.426618764226799,0.45028957628957
"1353",13,21,1,2,153,3,1,0,1,1.34339454227865,1.39354217109183
"1354",13,18,1,1,154,3,1,1,3,0.681299614781615,0.643641053434082
"1355",13,35,1,1,155,1,1,1,5,0.292935858312778,0.348179549992814
"1356",13,29,1,1,156,1,2,0,4,0.616908744722006,0.651047004413507
"1357",13,32,1,2,157,3,1,0,1,0.438328408186384,0.446088281673605
"1358",13,39,1,1,158,1,1,1,4,0.359761714480727,0.375539447302389
"1359",13,26,1,1,159,1,1,1,4,0.282487493924439,0.357585622819057
"1360",13,18,1,1,160,1,1,1,5,0.277426320589576,0.27196449532308
"1361",13,23,1,1,161,3,1,1,3,0.859497790564514,0.834845701080697
"1362",13,30,1,1,162,1,1,1,4,0.298471507395767,0.3338993863129
"1363",13,21,1,2,163,1,2,1,4,0.481970891319669,0.455134028666577
"1364",13,18,1,1,164,2,1,1,3,0.378718930897276,0.333491982593652
"1365",13,35,1,2,165,3,2,1,2,0.703313928841895,0.679914832581636
"1366",13,29,1,2,166,1,2,1,4,0.45912170333933,0.494636591601442
"1367",13,32,1,2,167,2,2,1,3,0.867885330205463,0.841414602694172
"1368",13,39,1,1,168,2,2,0,3,0.789158312384576,0.854240259022183
"1369",13,26,1,1,169,1,1,1,4,0.504368032207219,0.487267495664889
"1370",13,18,1,2,170,3,2,1,3,0.978837925644516,0.963871144377957
"1371",13,23,1,2,171,3,2,1,3,0.746962972193621,0.691783454267034
"1372",13,30,1,2,172,2,2,1,4,0.503882015903239,0.501042985887012
"1373",13,21,1,2,173,3,1,0,1,0.514361654039919,0.468058203945774
"1374",13,18,1,1,174,1,1,1,5,0.519489685060501,0.432097868778889
"1375",13,35,1,1,175,1,1,1,4,0.206221287468921,0.169321405487107
"1376",13,29,1,2,176,2,1,0,3,0.823897614134126,0.782448725254539
"1377",13,32,1,1,177,1,1,1,5,0.390248901085506,0.355854835934408
"1378",13,39,1,2,178,2,2,1,4,0.622062335964133,0.610573986634688
"1379",13,26,1,1,179,1,1,1,4,0.457925779176773,0.407788887266584
"1380",13,18,1,1,180,2,2,0,3,0.732294261499379,0.759114439795214
"1381",13,23,1,2,181,2,2,1,3,0.558047139300679,0.620191400568718
"1382",13,30,1,2,182,2,2,1,3,0.406893746613416,0.443214212672847
"1383",13,21,1,1,183,2,2,0,2,0.656189295397677,0.648791369828293
"1384",13,18,1,2,184,2,2,1,4,0.538346770518032,0.610711210372274
"1385",13,35,1,1,185,2,1,1,4,0.624399660370234,0.62265019683231
"1386",13,29,1,1,186,2,1,1,3,0.576106861489193,0.549521494377542
"1387",13,32,1,1,187,2,1,1,4,0.520111015012204,0.629292750325727
"1388",13,39,1,1,188,2,1,1,4,0.529498364162808,0.461149628069273
"1389",13,26,1,1,189,3,2,0,2,1.04600602416782,1.08324537071738
"1390",13,18,1,1,190,2,1,1,4,0.414737136960849,0.361393783760999
"1391",13,23,1,1,191,3,2,0,2,1.1698701553325,1.14601381133326
"1392",13,30,1,1,192,2,2,0,3,0.670609122672923,0.667231236217969
"1393",13,21,1,2,193,2,1,0,3,1.02542200830766,0.985735320031557
"1394",13,18,1,2,194,2,2,1,4,0.732951569069617,0.729441300384218
"1395",13,35,1,1,195,3,2,0,2,1.26800141272469,1.25752651495192
"1396",13,29,1,1,196,3,2,0,1,0.792168447079492,0.817220620651043
"1397",13,32,1,1,197,2,1,1,4,0.479508072251821,0.500904364790697
"1398",13,39,1,2,198,3,1,0,1,0.635562601058843,0.576375108257436
"1399",13,26,1,2,199,2,2,1,4,0.734852384188314,0.747291976306541
"1400",13,18,1,2,200,3,1,0,1,0.741683100186554,0.729328370090877
"1401",13,23,1,2,201,2,2,1,3,0.666759550121874,0.69014850102653
"1402",13,30,1,1,202,2,1,1,4,0.556876093959954,0.466526246944101
"1403",13,21,1,1,203,3,2,0,1,0.603817482218085,0.613596279509771
"1404",13,18,1,1,204,1,1,1,5,0.30292137273104,0.261896574895939
"1405",13,35,1,1,205,2,1,1,4,0.58423468265386,0.56574636180624
"1406",13,29,1,2,206,1,2,1,5,0.424934071029045,0.429442023270871
"1407",13,32,1,1,207,3,2,0,1,0.407106409643843,0.402646780572487
"1408",13,39,1,1,208,2,1,1,4,0.39877666539798,0.484279043818617
"1409",13,26,1,2,209,1,2,1,4,0.365132010359326,0.300126778548454
"1410",13,18,1,2,210,3,2,1,3,0.856748519414449,0.834786748950926
"1411",13,23,1,1,211,1,1,1,4,0.371972829972654,0.367104817928021
"1412",13,30,1,1,212,3,2,0,1,0.706581675876315,0.779256156518221
"1413",13,21,1,1,213,1,1,1,5,0.438269360377398,0.530482234359578
"1414",13,18,1,1,214,2,1,1,4,0.596792195952633,0.603690558312627
"1415",13,35,1,2,215,2,2,1,3,0.679201937798037,0.721255806359426
"1416",13,29,1,1,216,2,1,1,4,0.740358123513377,0.74412911188927
"1417",13,32,1,2,217,2,2,1,3,0.69659900370101,0.738469431447027
"1418",13,39,1,2,218,1,1,0,3,0.621047638089712,0.661498660886044
"1419",13,26,1,1,219,1,1,1,5,0.549742271702307,0.616987077530669
"1420",13,18,1,1,220,2,2,0,2,0.60334836783728,0.484292681659003
"1421",13,23,1,2,221,2,1,0,3,0.596829645428255,0.557979947412567
"1422",13,30,1,2,222,3,2,1,2,0.600983758782822,0.57675175863903
"1423",13,21,1,2,223,2,2,1,4,0.55475709101757,0.57307708481106
"1424",13,18,1,2,224,3,1,0,2,1.37332203441881,1.45540201944681
"1425",13,35,1,2,225,3,2,1,2,0.716514718043445,0.687597775844042
"1426",13,29,1,1,226,2,1,1,3,0.556023932944376,0.640330933585567
"1427",13,32,1,2,227,1,1,0,3,0.444088767346714,0.442674982026104
"1428",13,39,1,1,228,3,1,1,2,0.801649490322217,0.802323508106083
"1429",13,26,1,1,229,3,2,0,1,0.676185506142432,0.639769470475866
"1430",13,18,1,2,230,2,1,0,2,0.498294478928806,0.460311238203653
"1431",13,23,1,2,231,2,2,1,4,0.495899999249549,0.560215563947861
"1432",13,30,1,2,232,2,1,0,2,0.899126041929886,0.828372664217931
"1433",13,21,1,2,233,1,1,0,3,0.436070984618238,0.416589331462886
"1434",13,18,1,2,234,3,1,0,2,1.37129038465993,1.39571008562786
"1435",13,35,1,1,235,2,2,0,2,0.556704777885833,0.596372702730046
"1436",13,29,1,1,236,2,1,1,3,0.50344101900386,0.546714554662819
"1437",13,32,1,1,237,1,1,1,5,0.375615349675757,0.387930673553243
"1438",13,39,1,1,238,2,1,1,3,0.5304992548614,0.497201559436658
"1439",13,26,1,2,239,2,1,0,3,0.573269209763527,0.564555049751851
"1440",13,18,1,1,240,3,2,0,1,1.1967518854289,1.20908465665479
"1441",12,30,2,2,1,2,1,0,2,0.69254013744217,0.699624161374553
"1442",12,18,2,1,2,1,1,1,4,0.366514027278789,0.371336670001635
"1443",12,28,2,2,3,2,2,1,4,0.621424637189876,0.562327968904109
"1444",12,24,2,1,4,3,2,0,1,1.15570285346568,1.14958346369311
"1445",12,25,2,2,5,2,2,1,3,0.70568468268595,0.730809139123876
"1446",12,21,2,2,6,2,1,0,3,0.918467186940805,0.888184883068289
"1447",12,23,2,2,7,2,1,0,2,0.858462805357796,0.830627627652877
"1448",12,36,2,2,8,2,2,1,4,0.57626143136053,0.573279438202423
"1449",12,26,2,1,9,3,1,1,2,1.12132446886142,1.126377136613
"1450",12,31,2,2,10,1,2,1,5,0.454713139182563,0.431113747429827
"1451",12,30,2,1,11,3,1,1,3,0.915589075840603,0.953383081951287
"1452",12,18,2,2,12,3,1,0,1,1.00212519736679,1.01891630189814
"1453",12,28,2,1,13,2,1,1,3,0.765038765624711,0.814140334060399
"1454",12,24,2,2,14,3,1,0,1,1.07939824116609,1.02441945780615
"1455",12,25,2,1,15,2,2,0,3,0.605918488886516,0.596991343186599
"1456",12,21,2,1,16,3,2,0,2,0.980467061727675,0.979207498017223
"1457",12,23,2,2,17,1,2,1,5,0.374464891154662,0.360123178333099
"1458",12,36,2,2,18,3,2,1,3,1.12556172508819,1.16544648102056
"1459",12,26,2,1,19,1,1,1,4,0.397934836659037,0.378162582291439
"1460",12,31,2,2,20,1,2,1,5,0.475737706668492,0.446481488866153
"1461",12,30,2,1,21,2,2,0,3,0.552687047580198,0.537305612421345
"1462",12,18,2,2,22,1,2,1,4,0.301748920149036,0.332036506335012
"1463",12,28,2,2,23,3,1,0,2,1.18177088946603,1.17399831038717
"1464",12,24,2,1,24,2,1,1,4,0.63123337031231,0.600405210074826
"1465",12,25,2,1,25,1,1,1,5,0.278102877514525,0.286380890706046
"1466",12,21,2,2,26,2,1,0,2,0.43406165005421,0.343416569926837
"1467",12,23,2,1,27,3,2,0,1,0.578878900054093,0.614862041936945
"1468",12,36,2,1,28,3,2,0,2,1.08230916377287,1.15875913795627
"1469",12,26,2,2,29,3,2,1,2,0.880922447538383,0.828457046749638
"1470",12,31,2,2,30,2,1,0,3,0.635727138938892,0.639878677649504
"1471",12,30,2,1,31,1,2,0,3,0.657083591740499,0.609254108720772
"1472",12,18,2,1,32,2,1,1,3,0.652503407289693,0.598359771673436
"1473",12,28,2,1,33,3,2,0,1,0.635448278068808,0.675420193131611
"1474",12,24,2,2,34,1,2,1,4,0.369464037776199,0.367298701022665
"1475",12,25,2,1,35,1,1,1,5,0.459954124486868,0.544325854315807
"1476",12,21,2,2,36,2,1,0,3,0.735844470581352,0.650998031615768
"1477",12,23,2,1,37,3,1,1,3,0.588449018819233,0.55969957349845
"1478",12,36,2,2,38,3,1,0,2,0.951442515433102,0.980687567142531
"1479",12,26,2,1,39,1,1,1,4,0.383086796227868,0.395752028062473
"1480",12,31,2,2,40,2,2,1,3,0.436242164277035,0.414301964019249
"1481",12,30,2,1,41,3,2,0,2,1.33598951746875,1.36410173737044
"1482",12,18,2,1,42,1,1,1,4,0.381349102602265,0.317774020594081
"1483",12,28,2,2,43,3,1,0,1,0.668610134328451,0.685834825285955
"1484",12,24,2,2,44,2,1,0,3,0.773510283239933,0.804150321214738
"1485",12,25,2,2,45,2,2,1,3,0.73237587798783,0.669446910323867
"1486",12,21,2,2,46,2,2,1,4,0.610619512713954,0.565807564223792
"1487",12,23,2,1,47,2,1,1,3,0.496410804841782,0.607985191049376
"1488",12,36,2,1,48,3,2,0,1,0.790808523121635,0.737930420873104
"1489",12,26,2,2,49,3,2,1,3,0.915341845273688,0.844437648628002
"1490",12,31,2,1,50,2,1,1,3,0.56739982182664,0.581844188769066
"1491",12,30,2,1,51,2,2,0,2,0.826811919538766,0.826310505739202
"1492",12,18,2,1,52,1,2,0,3,0.564900801114582,0.622015799666442
"1493",12,28,2,1,53,1,2,0,3,0.508489963528504,0.495879026200067
"1494",12,24,2,1,54,1,1,1,4,0.249119031828775,0.211137201666671
"1495",12,25,2,1,55,3,2,0,1,0.936506508022187,0.976205737935428
"1496",12,21,2,1,56,1,1,1,5,0.440931264277161,0.398925614314343
"1497",12,23,2,1,57,2,1,1,4,0.670649348050877,0.665738168263802
"1498",12,36,2,1,58,2,1,1,4,0.646719578623593,0.724201286108145
"1499",12,26,2,2,59,1,2,1,4,0.421234301151258,0.463432727913848
"1500",12,31,2,2,60,2,2,1,4,0.675527187482526,0.725568903582871
"1501",12,30,2,2,61,1,2,1,5,0.355793605232249,0.38469890157017
"1502",12,18,2,1,62,1,1,1,5,0.466599732824803,0.442476850082677
"1503",12,28,2,1,63,2,2,0,2,0.908346751285998,0.950593778818735
"1504",12,24,2,2,64,2,2,1,4,0.459754621794364,0.464185826673632
"1505",12,25,2,2,65,1,2,1,4,0.326661150912431,0.342912938891238
"1506",12,21,2,2,66,3,2,1,3,1.03294245994051,0.990952490641011
"1507",12,23,2,1,67,3,1,1,2,0.749778407085641,0.728799323669317
"1508",12,36,2,1,68,3,1,1,3,0.758366941081584,0.763774565040942
"1509",12,26,2,2,69,3,2,1,2,0.72053528679887,0.640621091959797
"1510",12,31,2,1,70,1,1,1,4,0.557437112051705,0.528571166550692
"1511",12,30,2,2,71,1,2,1,5,0.412617719712736,0.414702282219172
"1512",12,18,2,1,72,1,2,0,4,0.444185756721094,0.517589402527355
"1513",12,28,2,2,73,1,2,1,4,0.450219687840065,0.410349240677594
"1514",12,24,2,1,74,2,2,0,3,0.785713129243811,0.797323770353287
"1515",12,25,2,2,75,1,1,0,3,0.691812541657611,0.752714277440582
"1516",12,21,2,1,76,2,2,0,3,0.493055339126617,0.443159454628385
"1517",12,23,2,2,77,1,2,1,5,0.367845530977216,0.379787109744052
"1518",12,36,2,2,78,3,2,1,3,0.546324619219268,0.561592320732012
"1519",12,26,2,1,79,2,1,1,4,0.602381609264214,0.644926277784297
"1520",12,31,2,2,80,1,2,1,4,0.384455401395817,0.4490661293495
"1521",12,30,2,1,81,1,1,1,5,0.428972495845009,0.426858708184298
"1522",12,18,2,1,82,3,1,1,3,0.554898421448851,0.565236943116298
"1523",12,28,2,2,83,2,1,0,3,0.57632622150676,0.508077035924469
"1524",12,24,2,2,84,3,1,0,2,0.983514384193488,0.933798231680157
"1525",12,25,2,1,85,3,1,1,3,0.875167835882108,0.986035024372421
"1526",12,21,2,1,86,3,1,1,2,0.800797957416506,0.806489694261954
"1527",12,23,2,2,87,3,2,1,3,0.79431607246146,0.710939114852982
"1528",12,36,2,1,88,3,1,1,3,0.944229790820312,0.940926066946207
"1529",12,26,2,2,89,3,1,0,2,1.24101378986016,1.19926874841763
"1530",12,31,2,2,90,1,1,0,4,0.516252330853755,0.609610826731428
"1531",12,30,2,2,91,2,1,0,2,0.476654061014171,0.501379842988667
"1532",12,18,2,1,92,3,2,0,2,1.08783165493677,1.13680605697751
"1533",12,28,2,2,93,2,2,1,3,0.606009388156827,0.541452816774508
"1534",12,24,2,2,94,2,2,1,3,0.545670931619979,0.588861445622656
"1535",12,25,2,2,95,2,1,0,3,0.648150588076173,0.640103147648784
"1536",12,21,2,2,96,2,2,1,4,0.723460753378882,0.740084586572135
"1537",12,23,2,1,97,2,2,0,2,0.769745157898102,0.693232702010313
"1538",12,36,2,2,98,2,2,1,3,0.604427451956667,0.552763642751455
"1539",12,26,2,2,99,1,2,1,4,0.293362929313187,0.250255652073435
"1540",12,31,2,1,100,2,1,1,3,0.635744623942142,0.6179558350645
"1541",12,30,2,2,101,1,2,1,4,0.308573825221758,0.226093589681217
"1542",12,18,2,1,102,1,1,1,4,0.488002949785604,0.422526984202648
"1543",12,28,2,2,103,1,2,1,5,0.324769823337913,0.321614037508532
"1544",12,24,2,1,104,1,1,1,4,0.397792868474492,0.498742101868273
"1545",12,25,2,2,105,2,1,0,2,0.69127065028612,0.620476123490851
"1546",12,21,2,2,106,2,1,0,3,0.776693878269256,0.696809534048127
"1547",12,23,2,1,107,3,1,1,2,0.628039040097565,0.670596781585151
"1548",12,36,2,1,108,3,1,1,3,1.19372312063126,1.15337135637618
"1549",12,26,2,1,109,2,1,1,3,0.501195738499115,0.446527906517468
"1550",12,31,2,1,110,1,1,1,5,0.361147274496831,0.395216468307851
"1551",12,30,2,1,111,3,2,0,1,0.616250513274011,0.554858532802987
"1552",12,18,2,1,112,3,2,0,2,0.825959858535479,0.892116673370715
"1553",12,28,2,2,113,2,1,0,2,0.821083318633356,0.768923491127499
"1554",12,24,2,2,114,1,2,1,4,0.297974036791152,0.314893605482064
"1555",12,25,2,2,115,1,2,1,4,0.494027933860285,0.515533460528314
"1556",12,21,2,2,116,1,1,0,3,0.615780328084927,0.662626880826255
"1557",12,23,2,1,117,2,1,1,3,0.596990985618575,0.623847868884343
"1558",12,36,2,2,118,2,1,0,2,0.801561626666668,0.741531000546595
"1559",12,26,2,2,119,3,1,0,1,1.40442612212835,1.40014875245122
"1560",12,31,2,2,120,3,2,1,2,0.78346106261742,0.799823233847153
"1561",12,30,2,1,121,3,2,0,2,0.747587218570988,0.725385355449607
"1562",12,18,2,1,122,1,2,0,4,0.517028955912401,0.376123108898508
"1563",12,28,2,2,123,3,1,0,2,0.83346083392066,0.816955497489059
"1564",12,24,2,1,124,3,2,0,1,1.25867148058691,1.26988171714657
"1565",12,25,2,2,125,1,2,1,4,0.507931082143425,0.5958023055647
"1566",12,21,2,1,126,1,1,1,5,0.40826106107754,0.455362553417652
"1567",12,23,2,2,127,1,2,1,4,0.473891425678299,0.522715825923582
"1568",12,36,2,2,128,2,1,0,3,0.755069898747703,0.777574027069585
"1569",12,26,2,1,129,1,1,1,4,0.374065598991402,0.352734028467965
"1570",12,31,2,2,130,2,2,1,4,0.683793341908492,0.725557015210007
"1571",12,30,2,1,131,2,1,1,3,0.684706695607563,0.68206601144068
"1572",12,18,2,1,132,3,2,0,2,0.534905104007277,0.470130365344364
"1573",12,28,2,1,133,3,2,0,2,0.681746523923094,0.703227029124378
"1574",12,24,2,1,134,2,2,0,3,0.899544231353447,0.925703508510922
"1575",12,25,2,2,135,2,1,0,2,0.598318938912484,0.580891166698157
"1576",12,21,2,2,136,2,1,0,2,0.53413603412888,0.552880807461773
