"","subj_no","age","group","stim","trial","difficulty","resp","corr","conf","RT_day1","RT_day2"
"1",20,30,2,1,1,2,2,0,2,0.824339459669937,0.842230975815185
"2",20,22,2,2,2,2,1,0,3,0.817600912287059,0.823743448609853
"3",20,28,2,1,3,3,1,1,3,0.49897792382705,0.477198151129386
"4",20,30,2,1,4,2,1,1,4,0.539067559691124,0.518917533550054
"5",20,23,2,2,5,3,2,1,2,1.33980689416666,1.35914768950456
"6",20,38,2,1,6,2,1,1,3,0.664147804702696,0.761593934441336
"7",20,36,2,2,7,2,2,1,3,0.610526199110106,0.667811978326432
"8",20,39,2,2,8,3,1,0,2,1.37660580644855,1.44567946596679
"9",20,25,2,1,9,1,1,1,4,0.419510249773321,0.420176525783557
"10",20,32,2,1,10,2,2,0,2,0.795984173402457,0.851955910490164
"11",20,30,2,1,11,1,1,1,5,0.374450956828367,0.406570748080614
"12",20,22,2,1,12,3,2,0,1,0.750203205961421,0.714757241624125
"13",20,28,2,1,13,3,1,1,2,0.930228940311522,0.972601549217365
"14",20,30,2,1,14,3,1,1,3,0.764213455025938,0.772614259680042
"15",20,23,2,2,15,1,2,1,5,0.395681279985108,0.355586447690958
"16",20,38,2,2,16,2,1,0,3,0.64806131914951,0.700658022967587
"17",20,36,2,1,17,2,1,1,4,0.537511969784355,0.514842127235893
"18",20,39,2,1,18,2,1,1,4,0.48354477908096,0.405168956001604
"19",20,25,2,1,19,2,2,0,3,0.528663526609981,0.573634472591281
"20",20,32,2,2,20,1,2,1,4,0.562575828244162,0.555174633325676
"21",20,30,2,2,21,3,1,0,1,0.600142701039761,0.684138409296717
"22",20,22,2,1,22,2,1,1,4,0.733555190421884,0.695751559502281
"23",20,28,2,2,23,2,2,1,4,0.404088310405936,0.393064874588174
"24",20,30,2,1,24,2,2,0,2,0.831098465201805,0.778741682849535
"25",20,23,2,2,25,3,2,1,2,1.13591531221674,1.12528502867588
"26",20,38,2,1,26,1,2,0,4,0.676455592160083,0.728828069085501
"27",20,36,2,1,27,3,2,0,1,0.885938302880014,0.836469975505622
"28",20,39,2,2,28,3,1,0,2,1.51762395297551,1.54608406028186
"29",20,25,2,2,29,1,2,1,4,0.292739713475479,0.244290330523607
"30",20,32,2,1,30,3,2,0,2,0.80292680911735,0.776632399028561
"31",20,30,2,2,31,1,2,1,4,0.38464918262406,0.38278958526562
"32",20,22,2,1,32,1,1,1,4,0.457492113851111,0.450863630832011
"33",20,28,2,1,33,1,1,1,5,0.547399753016461,0.541722993778182
"34",20,30,2,1,34,3,2,0,2,0.858332186376965,0.86459103332188
"35",20,23,2,1,35,2,1,1,4,0.707578985806973,0.689598533335973
"36",20,38,2,1,36,3,1,1,2,0.568249247382219,0.602652463819745
"37",20,36,2,2,37,3,1,0,1,0.666997258477948,0.635900999209744
"38",20,39,2,2,38,2,2,1,3,0.621526465720395,0.626878694071494
"39",20,25,2,2,39,1,2,1,4,0.476451487505165,0.585852483098192
"40",20,32,2,2,40,2,1,0,3,0.579064034854685,0.546142962140439
"41",20,30,2,1,41,3,1,1,2,0.557956979356565,0.584533211028989
"42",20,22,2,2,42,3,2,1,2,0.742300758580421,0.732457878379454
"43",20,28,2,1,43,2,1,1,4,0.512114591185639,0.492284159469987
"44",20,30,2,2,44,3,1,0,2,0.848020313821258,0.821158290176572
"45",20,23,2,2,45,3,2,1,3,0.729555452591584,0.741584239470111
"46",20,38,2,1,46,1,1,1,4,0.502972054293717,0.487640190461385
"47",20,36,2,2,47,1,1,0,4,0.378385246576986,0.408149139577768
"48",20,39,2,1,48,3,1,1,3,0.48144993574352,0.414844383644246
"49",20,25,2,2,49,1,2,1,5,0.466189002076077,0.472072541267914
"50",20,32,2,1,50,2,2,0,2,0.918359462083417,0.961519259372329
"51",20,30,2,2,51,2,2,1,3,0.623164644092957,0.597249178148053
"52",20,22,2,1,52,2,2,0,3,0.614025502729214,0.595844926501827
"53",20,28,2,1,53,3,2,0,2,1.14875402850641,1.16000738410151
"54",20,30,2,1,54,3,2,0,2,1.34009170487056,1.31944296507059
"55",20,23,2,2,55,2,1,0,3,0.67595345619144,0.668598668755579
"56",20,38,2,2,56,3,1,0,2,0.549518308467455,0.445314334013979
"57",20,36,2,2,57,3,2,1,2,0.8230383993111,0.904851147502384
"58",20,39,2,2,58,1,2,1,5,0.379433488794809,0.383189925007782
"59",20,25,2,1,59,1,1,1,5,0.328797624110677,0.261733521483493
"60",20,32,2,2,60,1,2,1,4,0.379046163177503,0.407817433982497
"61",20,30,2,1,61,1,1,1,4,0.396432001462653,0.337985287138787
"62",20,22,2,2,62,3,1,0,2,0.624119425692037,0.652188339750134
"63",20,28,2,1,63,2,2,0,3,0.617471830377308,0.561909905381964
"64",20,30,2,2,64,3,1,0,1,1.32128843563479,1.28594323260007
"65",20,23,2,1,65,3,1,1,3,0.65235614662969,0.658130637352784
"66",20,38,2,2,66,2,2,1,3,0.724922382715156,0.663992599524525
"67",20,36,2,1,67,2,1,1,3,0.810308489777199,0.890526808943054
"68",20,39,2,1,68,3,2,0,2,1.47471374477342,1.42204168799824
"69",20,25,2,2,69,1,2,1,4,0.293648043186658,0.258898530856631
"70",20,32,2,1,70,3,2,0,2,1.45502374573811,1.54496152384645
"71",20,30,2,1,71,3,2,0,2,1.04882507288766,1.09517955588644
"72",20,22,2,1,72,2,2,0,2,0.552049068762157,0.549929613187008
"73",20,28,2,2,73,1,1,0,3,0.675039501257108,0.686206785777655
"74",20,30,2,2,74,3,1,0,2,1.15412889250219,1.12108772043227
"75",20,23,2,1,75,2,2,0,3,0.573409567848593,0.523830437002054
"76",20,38,2,1,76,1,1,1,5,0.446512917477243,0.433375895407655
"77",20,36,2,2,77,1,2,1,5,0.505105988355496,0.530680596683321
"78",20,39,2,2,78,2,2,1,4,0.577280064865189,0.599858378213074
"79",20,25,2,2,79,1,2,1,4,0.286927523716228,0.336748976822294
"80",20,32,2,2,80,1,2,1,4,0.370085738840504,0.357418074041362
"81",20,30,2,1,81,2,2,0,3,0.593950380580199,0.612728090648531
"82",20,22,2,2,82,3,1,0,2,1.13112530283772,1.17771387792447
"83",20,28,2,2,83,2,2,1,3,0.646219008503785,0.646220937165396
"84",20,30,2,2,84,1,2,1,5,0.263296926312951,0.353356111629393
"85",20,23,2,1,85,1,2,0,3,0.660763587485727,0.664837740086863
"86",20,38,2,2,86,3,1,0,2,0.942917086570372,0.950820989792759
"87",20,36,2,1,87,1,1,1,5,0.463791503337796,0.436130691854106
"88",20,39,2,1,88,2,1,1,3,0.621275688158559,0.685876250351913
"89",20,25,2,1,89,1,2,0,4,0.647438050902033,0.652239206232707
"90",20,32,2,2,90,3,1,0,2,0.666855283275555,0.708725280416658
"91",20,30,2,1,91,2,2,0,3,0.747048918685725,0.79451376989216
"92",20,22,2,1,92,1,1,1,5,0.245327857162004,0.202382488700889
"93",20,28,2,1,93,1,1,1,4,0.377868223955594,0.318367232442419
"94",20,30,2,2,94,2,1,0,2,0.776644677600845,0.743108027010565
"95",20,23,2,1,95,2,1,1,3,0.647502952235366,0.74511407030884
"96",20,38,2,2,96,2,2,1,4,0.577292096911177,0.534217019957997
"97",20,36,2,2,97,1,1,0,4,0.498306506287522,0.501092233011358
"98",20,39,2,1,98,2,1,1,3,0.776144589945087,0.786259538549057
"99",20,25,2,1,99,3,1,1,2,0.29049293812905,0.285870998431922
"100",20,32,2,1,100,1,1,1,5,0.472129969074856,0.376798064840645
"101",20,30,2,2,101,1,2,1,5,0.332040375117026,0.318698246286516
"102",20,22,2,2,102,3,2,1,2,0.67352780399002,0.71104084109669
"103",20,28,2,1,103,1,1,1,4,0.312526938708955,0.34624549319548
"104",20,30,2,1,104,3,1,1,3,0.692669621705722,0.705912489208288
"105",20,23,2,2,105,2,2,1,3,0.662379680794482,0.650764158039308
"106",20,38,2,1,106,3,1,1,3,0.685669728143197,0.719971542590001
"107",20,36,2,2,107,1,2,1,4,0.392490847842217,0.369822429489725
"108",20,39,2,1,108,3,2,0,1,0.60351705217392,0.593829429126006
"109",20,25,2,2,109,1,2,1,4,0.371107095180583,0.392157184270363
"110",20,32,2,2,110,3,2,1,2,0.694642553374836,0.680281194306369
"111",20,30,2,2,111,1,1,0,3,0.461341993443375,0.453311453343581
"112",20,22,2,1,112,2,2,0,3,0.79962494150136,0.855411002988407
"113",20,28,2,1,113,3,2,0,1,1.60230728044079,1.64838629688592
"114",20,30,2,1,114,1,1,1,5,0.367798945139201,0.274881540648416
"115",20,23,2,2,115,2,2,1,3,0.536089207746537,0.591664574212618
"116",20,38,2,2,116,1,2,1,4,0.399969925413706,0.359664784668046
"117",20,36,2,1,117,3,2,0,2,0.947249258691367,0.987561474115013
"118",20,39,2,2,118,2,1,0,3,0.674199557416175,0.565699623399642
"119",20,25,2,1,119,3,2,0,2,1.01399147650966,0.991565699204749
"120",20,32,2,2,120,1,2,1,4,0.588815287388056,0.501766395845394
"121",20,30,2,1,121,1,1,1,5,0.34473269607597,0.380854223582872
"122",20,22,2,2,122,3,1,0,2,0.815520382819423,0.76059040093953
"123",20,28,2,1,123,1,1,1,4,0.418447548629996,0.461717250181478
"124",20,30,2,2,124,2,2,1,3,0.45713743992998,0.442138613006055
"125",20,23,2,2,125,1,1,0,4,0.461980029706374,0.498190779652989
"126",20,38,2,1,126,3,1,1,3,0.796095379135023,0.831189679755674
"127",20,36,2,1,127,3,1,1,3,0.616481381629322,0.531120757435677
"128",20,39,2,2,128,1,2,1,5,0.329830981063327,0.345667898931281
"129",20,25,2,1,129,2,2,0,2,0.876376979783033,0.812654468506978
"130",20,32,2,1,130,3,1,1,2,0.834017480559091,0.909665261056924
"131",20,30,2,2,131,2,1,0,3,0.717227961649717,0.72619060997347
"132",20,22,2,2,132,1,2,1,5,0.453303020653923,0.463375671607309
"133",20,28,2,2,133,3,1,0,1,1.12994863326368,1.07297449376126
"134",20,30,2,2,134,2,1,0,2,0.661035924286971,0.604090957845178
"135",20,23,2,1,135,3,2,0,2,0.971956479855856,0.926452458996581
"136",20,38,2,1,136,1,2,0,4,0.603544499950802,0.602740081805713
"137",20,36,2,1,137,3,1,1,3,0.764303440028831,0.774201035622169
"138",20,39,2,2,138,2,2,1,3,0.914045529159515,0.906014698687028
"139",20,25,2,2,139,1,1,0,4,0.514989297751686,0.578020268830728
"140",20,32,2,2,140,3,1,0,1,0.886674078388081,0.864715989510898
"141",20,30,2,1,141,2,1,1,3,0.533286169871286,0.498224776575948
"142",20,22,2,2,142,3,1,0,1,1.29620374203015,1.30204274538617
"143",20,28,2,1,143,2,1,1,4,0.526590522640595,0.534317040528751
"144",20,30,2,1,144,3,1,1,2,0.719374128802757,0.750443801767491
"145",20,23,2,1,145,3,1,1,3,0.593884037873303,0.630533830298973
"146",20,38,2,1,146,2,1,1,4,0.770908683809438,0.642401964492957
"147",20,36,2,1,147,3,2,0,2,0.468319968009257,0.495259963567136
"148",20,39,2,1,148,2,2,0,3,0.712389089277952,0.667369373937749
"149",20,25,2,2,149,2,1,0,3,0.406596873316308,0.413974054021561
"150",20,32,2,2,150,2,1,0,2,0.684115981358407,0.753004819388449
"151",20,30,2,2,151,3,1,0,1,1.39644156841998,1.36856728589472
"152",20,22,2,1,152,3,2,0,1,1.52718783331346,1.50966936446919
"153",20,28,2,1,153,3,2,0,2,0.700166160053915,0.676120410727749
"154",20,30,2,2,154,1,2,1,5,0.461887999139396,0.366676775456474
"155",20,23,2,1,155,1,1,1,5,0.518811149468143,0.426752822980165
"156",20,38,2,2,156,2,2,1,4,0.528782037205776,0.506530703940105
"157",20,36,2,1,157,3,2,0,2,1.05502131366301,1.1004221460716
"158",20,39,2,1,158,1,2,0,4,0.336044308113592,0.41617790280371
"159",20,25,2,2,159,1,2,1,5,0.284544462496152,0.333753003539298
"160",20,32,2,2,160,1,2,1,5,0.369211395990128,0.294874591072217
"161",20,30,2,1,161,3,2,0,2,0.960850044139309,1.0086698865793
"162",20,22,2,2,162,2,1,0,2,0.632540808893116,0.71486353058478
"163",20,28,2,2,163,1,1,0,3,0.586989613981655,0.487439523485906
"164",20,30,2,2,164,2,2,1,4,0.622055689868904,0.590426481536318
"165",20,23,2,2,165,3,1,0,1,0.800228111673437,0.747007862559972
"166",20,38,2,2,166,1,2,1,5,0.364953135042869,0.365926126616167
"167",20,36,2,1,167,2,2,0,3,0.692828089821533,0.709459211480404
"168",20,39,2,1,168,3,2,0,1,1.87069380007407,1.79887762926435
"169",20,25,2,2,169,1,2,1,5,0.334470798312955,0.341208199813883
"170",20,32,2,1,170,2,2,0,3,0.805649069185905,0.792795982303576
"171",20,30,2,1,171,2,2,0,3,0.630837343414868,0.731336227023715
"172",20,22,2,2,172,1,2,1,5,0.375685975933737,0.28882589941779
"173",20,28,2,1,173,3,2,0,1,1.42264133768785,1.38787776612997
"174",20,30,2,2,174,2,2,1,3,0.881384926277528,0.846733985784779
"175",20,23,2,1,175,1,1,1,4,0.364415374467688,0.393398606496533
"176",20,38,2,2,176,3,2,1,3,0.714247483962728,0.725826319983775
"177",20,36,2,1,177,1,1,1,4,0.50697223832801,0.488426204909321
"178",20,39,2,2,178,1,2,1,5,0.470446379772548,0.520720508037821
"179",20,25,2,2,179,1,1,0,3,0.302805710066212,0.327375881250063
"180",20,32,2,1,180,2,1,1,3,0.641061034347969,0.573478456948136
"181",20,30,2,2,181,1,2,1,4,0.51046455339789,0.527383198895013
"182",20,22,2,1,182,1,2,0,3,0.62830181800797,0.590796665411401
"183",20,28,2,2,183,2,1,0,3,0.665447588637465,0.688995300313896
"184",20,30,2,2,184,2,1,0,2,0.819791482408888,0.795715554083142
"185",20,23,2,1,185,1,1,1,4,0.41118366608164,0.365297892091126
"186",20,38,2,2,186,2,2,1,4,0.393893840164372,0.454897356339944
"187",20,36,2,1,187,1,1,1,4,0.384235364738327,0.353886476358814
"188",20,39,2,1,188,3,2,0,2,0.810539780384826,0.834666377993805
"189",20,25,2,2,189,3,2,1,3,0.470487069591442,0.509317950752973
"190",20,32,2,1,190,2,1,1,3,0.407716832064416,0.39057833501476
"191",20,30,2,1,191,1,1,1,4,0.371189154353358,0.307937030549234
"192",20,22,2,1,192,2,1,1,3,0.809587922345055,0.785663102520544
"193",20,28,2,2,193,2,2,1,3,0.635669514556135,0.557661681862488
"194",20,30,2,1,194,3,2,0,1,0.80326590887811,0.76415009733885
"195",20,23,2,2,195,1,2,1,4,0.518275211125332,0.601051323212715
"196",20,38,2,2,196,3,2,1,2,1.17235383661447,1.21939444779046
"197",20,36,2,2,197,1,2,1,5,0.429092685566327,0.422750209961274
"198",20,39,2,2,198,1,2,1,4,0.413709878293393,0.493216983982891
"199",20,25,2,1,199,3,1,1,2,0.885161741989702,0.815762693680981
"200",20,32,2,1,200,1,1,1,5,0.222161038669368,0.197470699287885
"201",20,30,2,1,201,1,1,1,5,0.444566897419657,0.385417524830574
"202",20,22,2,2,202,3,2,1,2,0.825403471177539,0.758257676227107
"203",20,28,2,2,203,3,2,1,2,0.581732211013291,0.49463358048759
"204",20,30,2,2,204,1,2,1,5,0.362869832226446,0.401848795634481
"205",20,23,2,1,205,2,1,1,4,0.728931796391366,0.675005854778472
"206",20,38,2,1,206,2,1,1,3,0.569053375835441,0.548127840244989
"207",20,36,2,1,207,2,2,0,2,0.650946977793333,0.638165133451182
"208",20,39,2,1,208,2,1,1,3,0.412757310259591,0.476083293196051
"209",20,25,2,1,209,2,2,0,2,0.844025391104916,0.791461039070774
"210",20,32,2,2,210,1,2,1,5,0.372619253406727,0.46929535030823
"211",20,30,2,2,211,3,2,1,2,1.28299060892272,1.26660429040817
"212",20,22,2,2,212,1,2,1,5,0.518489555491071,0.434760817339015
"213",20,28,2,2,213,1,2,1,4,0.390537032509979,0.391885178651939
"214",20,30,2,2,214,3,1,0,2,1.79831448430757,1.90330313081054
"215",20,23,2,1,215,2,1,1,3,0.849285239204569,0.824722801992718
"216",20,38,2,2,216,3,2,1,3,0.619615220274735,0.685839463508789
"217",20,36,2,1,217,2,2,0,2,0.819477695515106,0.820687416863864
"218",20,39,2,2,218,1,2,1,4,0.377068084889116,0.338909856268806
"219",20,25,2,2,219,1,2,1,4,0.318095055731774,0.330988268400397
"220",20,32,2,2,220,3,1,0,1,1.48361148692163,1.51106951858008
"221",20,30,2,1,221,2,2,0,2,0.622085464814824,0.713906878190114
"222",20,22,2,2,222,1,2,1,5,0.346173702390003,0.295139836517619
"223",20,28,2,1,223,3,1,1,2,0.81547301640377,0.805502448636081
"224",20,30,2,2,224,2,1,0,2,0.865396413076009,0.816244424367312
"225",20,23,2,2,225,2,1,0,3,0.741368842699043,0.728635509709912
"226",20,38,2,2,226,2,1,0,3,0.558007639032261,0.563394609656131
"227",20,36,2,2,227,2,2,1,3,0.582060672499575,0.489871690952589
"228",20,39,2,1,228,3,1,1,2,0.72129262615069,0.646581757926047
"229",20,25,2,2,229,2,1,0,3,0.756435823859338,0.656895003606126
"230",20,32,2,1,230,2,1,1,3,0.572640569769565,0.550815567526403
"231",20,30,2,2,231,3,2,1,2,0.781756167941832,0.805743026576022
"232",20,22,2,1,232,3,2,0,1,0.949648117868065,0.99667758363506
"233",20,28,2,2,233,1,2,1,5,0.421712379705915,0.383496678135818
"234",20,30,2,1,234,3,1,1,3,0.922428707690597,0.950279844388308
"235",20,23,2,2,235,2,1,0,2,0.629704683222186,0.685889212423586
"236",20,38,2,1,236,3,1,1,2,1.1843876342278,1.16142250156979
"237",20,36,2,1,237,1,1,1,4,0.37380913171017,0.409301455127921
"238",20,39,2,2,238,1,2,1,5,0.461325955008921,0.495859473809044
"239",20,25,2,2,239,1,2,1,5,0.53737791564213,0.522479410338257
"240",20,32,2,1,240,2,1,1,4,0.605188144903941,0.58669954758661
"241",19,31,1,1,1,2,1,1,4,0.684224684194549,0.559322555237488
"242",19,39,1,2,2,1,2,1,4,0.224943692015209,0.298618639756188
"243",19,39,1,2,3,2,2,1,4,0.816127121148196,0.820263980644369
"244",19,29,1,1,4,2,1,1,3,0.505067976784613,0.474029955367569
"245",19,29,1,2,5,1,2,1,5,0.449287541540791,0.362451406368672
"246",19,32,1,2,6,2,2,1,3,0.586610960058194,0.570877189332425
"247",19,24,1,1,7,3,2,0,1,0.705994734457198,0.704064628803023
"248",19,36,1,1,8,3,1,1,3,0.623000900181553,0.601676649679935
"249",19,30,1,2,9,3,2,1,2,0.813861150267281,0.786311876990156
"250",19,36,1,2,10,1,2,1,4,0.333202309035002,0.326922210446413
"251",19,31,1,1,11,3,1,1,3,0.78426468839521,0.907641319283084
"252",19,39,1,2,12,1,2,1,5,0.403101696542534,0.436020199691125
"253",19,39,1,2,13,1,1,0,4,0.667187639578759,0.636467101383107
"254",19,29,1,1,14,1,1,1,5,0.434186664946021,0.556054114579033
"255",19,29,1,2,15,1,2,1,5,0.382765039386157,0.343662740193637
"256",19,32,1,2,16,1,2,1,4,0.477306557517536,0.450909324801501
"257",19,24,1,2,17,1,2,1,5,0.461723075337797,0.413831374628073
"258",19,36,1,2,18,3,2,1,2,0.941948988660609,0.947473417695873
"259",19,30,1,1,19,2,2,0,2,0.796278932184779,0.83730275780288
"260",19,36,1,1,20,3,2,0,2,0.626561466225983,0.663801334607281
"261",19,31,1,1,21,1,1,1,4,0.335286439439385,0.405570225744798
"262",19,39,1,2,22,3,1,0,2,1.35485037989841,1.29658781182912
"263",19,39,1,1,23,3,1,1,2,1.11240178067516,1.08292881689244
"264",19,29,1,2,24,3,2,1,3,0.686714156068954,0.699423323375422
"265",19,29,1,1,25,2,2,0,3,0.665923216781943,0.745590119691575
"266",19,32,1,1,26,3,2,0,2,1.22095967025728,1.22701327828635
"267",19,24,1,2,27,3,1,0,2,0.711787684836971,0.701314549227543
"268",19,36,1,1,28,1,1,1,4,0.40859464233854,0.400170113964148
"269",19,30,1,2,29,3,1,0,1,1.01512597902527,1.02529339548216
"270",19,36,1,1,30,2,1,1,3,0.505368219091508,0.480457205582477
"271",19,31,1,1,31,2,1,1,4,0.773879522719609,0.779468740609259
"272",19,39,1,1,32,1,2,0,3,0.678696492321423,0.710211460344342
"273",19,39,1,1,33,2,1,1,4,0.556264101516318,0.553211454260747
"274",19,29,1,2,34,3,2,1,3,0.748697156755427,0.805315402174928
"275",19,29,1,2,35,3,1,0,1,1.59951601073805,1.6460486575545
"276",19,32,1,2,36,3,2,1,3,0.787480716846919,0.708876052821837
"277",19,24,1,1,37,1,1,1,5,0.431488921805736,0.435868204034932
"278",19,36,1,2,38,3,2,1,3,0.331329652472056,0.375761754815654
"279",19,30,1,1,39,2,1,1,3,0.534133475749175,0.657367933067574
"280",19,36,1,1,40,1,1,1,4,0.384157543391926,0.330759333806712
"281",19,31,1,1,41,2,1,1,3,0.606907957303135,0.703756401970935
"282",19,39,1,1,42,1,1,1,4,0.372049618021333,0.387884723396671
"283",19,39,1,2,43,2,2,1,3,0.662188013367192,0.631566046490804
"284",19,29,1,2,44,3,1,0,2,0.713917062462172,0.766022608369464
"285",19,29,1,1,45,2,1,1,4,0.51926142421623,0.47595553354965
"286",19,32,1,1,46,2,2,0,2,0.732307514675096,0.765764764211679
"287",19,24,1,2,47,1,2,1,5,0.433880324405193,0.439202182375747
"288",19,36,1,1,48,1,1,1,5,0.302582053054259,0.343626485554177
"289",19,30,1,2,49,2,2,1,4,0.349682222317797,0.26288560850806
"290",19,36,1,2,50,2,1,0,2,0.518009399713844,0.472839246688458
"291",19,31,1,2,51,2,2,1,4,0.555302506741363,0.527267121162885
"292",19,39,1,1,52,3,2,0,2,0.840131788289857,0.807692521190661
"293",19,39,1,2,53,2,2,1,3,0.621774874354444,0.602078443967551
"294",19,29,1,2,54,2,2,1,4,0.599663556239344,0.54704028998259
"295",19,29,1,1,55,3,1,1,2,0.965146966126921,0.956098461871263
"296",19,32,1,2,56,1,2,1,4,0.429071659436283,0.438824255235735
"297",19,24,1,1,57,2,2,0,2,0.618184738665514,0.639093150958432
"298",19,36,1,2,58,3,1,0,1,0.951484303693778,0.930650143285604
"299",19,30,1,1,59,3,2,0,2,0.746396323707512,0.723723199870494
"300",19,36,1,1,60,1,1,1,5,0.370381910859887,0.347725186583628
"301",19,31,1,1,61,2,1,1,3,0.631038655768218,0.552950059233021
"302",19,39,1,1,62,2,1,1,4,0.589842394374896,0.482290130769562
"303",19,39,1,1,63,2,1,1,4,0.742272138323444,0.743610976647987
"304",19,29,1,1,64,1,2,0,3,0.471450403641625,0.393167621327009
"305",19,29,1,1,65,1,1,1,4,0.403003431727459,0.40121886240771
"306",19,32,1,1,66,3,1,1,2,0.771484281023982,0.745398757689368
"307",19,24,1,2,67,3,2,1,3,0.833533845967914,0.869491328428542
"308",19,36,1,2,68,1,2,1,4,0.414363175000511,0.385854632969234
"309",19,30,1,1,69,1,2,0,4,0.699218978786691,0.704496149100547
"310",19,36,1,2,70,1,2,1,4,0.460104899962176,0.520255975129767
"311",19,31,1,1,71,2,1,1,3,0.688369578925179,0.674627233270394
"312",19,39,1,1,72,3,2,0,2,0.264852068195128,0.182131642553322
"313",19,39,1,1,73,2,1,1,4,0.337100538488247,0.371331432402602
"314",19,29,1,2,74,2,2,1,3,0.552046155884668,0.527446965631628
"315",19,29,1,1,75,1,2,0,3,0.527464984102374,0.530750940529614
"316",19,32,1,2,76,3,1,0,2,1.36474774840166,1.35702328586667
"317",19,24,1,1,77,3,1,1,3,0.822175941871046,0.714294246236616
"318",19,36,1,1,78,2,2,0,2,0.411147954191659,0.516521510795327
"319",19,30,1,2,79,3,1,0,2,0.722064307765257,0.720228925045807
"320",19,36,1,2,80,1,1,0,4,0.48610107231737,0.484012593631078
"321",19,31,1,1,81,3,2,0,2,0.919554639440359,0.955718087171463
"322",19,39,1,2,82,1,2,1,5,0.479300309248889,0.435130409159516
"323",19,39,1,1,83,1,1,1,5,0.324866669318989,0.297397584063734
"324",19,29,1,1,84,2,2,0,3,0.788872974426654,0.791542731593307
"325",19,29,1,2,85,1,1,0,4,0.45513433914798,0.419815733473042
"326",19,32,1,2,86,1,2,1,5,0.334499386833568,0.327788062405177
"327",19,24,1,2,87,2,1,0,2,0.529818166523449,0.530951896837159
"328",19,36,1,2,88,2,2,1,3,0.636528213789405,0.659899701497711
"329",19,30,1,1,89,2,1,1,4,0.595470743903319,0.626166778264797
"330",19,36,1,2,90,3,1,0,2,0.707366312720227,0.715839981738848
"331",19,31,1,1,91,3,1,1,3,0.439242846083932,0.449980990208075
"332",19,39,1,2,92,2,1,0,3,0.939847925373776,0.8504577683105
"333",19,39,1,2,93,2,2,1,3,0.262332598218744,0.231867327072907
"334",19,29,1,2,94,2,1,0,2,0.820027253138739,0.836038857348791
"335",19,29,1,2,95,2,1,0,2,0.841431268043764,0.829485381401466
"336",19,32,1,2,96,2,1,0,2,0.511431148571603,0.517345457215586
"337",19,24,1,1,97,1,1,1,4,0.41183457866872,0.370982263551352
"338",19,36,1,1,98,1,1,1,4,0.505436478258554,0.440220972739673
"339",19,30,1,2,99,3,1,0,2,1.35064343416929,1.3686114088649
"340",19,36,1,2,100,3,2,1,3,1.04299953102999,1.05512232830795
"341",19,31,1,1,101,2,1,1,3,0.552502508396548,0.609474794651157
"342",19,39,1,1,102,1,1,1,5,0.453352915545171,0.476426648751587
"343",19,39,1,1,103,3,2,0,1,0.923025632309588,0.879900615931907
"344",19,29,1,2,104,3,2,1,2,0.795795843368672,0.669833571204058
"345",19,29,1,2,105,3,1,0,2,1.32618739615771,1.30319103819462
"346",19,32,1,1,106,1,1,1,4,0.402717085958039,0.348909477359666
"347",19,24,1,2,107,3,1,0,2,1.49855411186849,1.37374717365167
"348",19,36,1,2,108,1,2,1,5,0.376349043585915,0.384759956703324
"349",19,30,1,2,109,3,2,1,2,1.1222964315472,1.0947989495075
"350",19,36,1,1,110,2,1,1,3,0.812021660818678,0.796813731728868
"351",19,31,1,1,111,1,1,1,4,0.484200433735146,0.441351241152234
"352",19,39,1,2,112,2,1,0,2,0.409864468524187,0.398540217675845
"353",19,39,1,2,113,1,2,1,5,0.307444054867774,0.27781221531458
"354",19,29,1,2,114,3,1,0,1,1.73986448888108,1.732108994922
"355",19,29,1,2,115,2,1,0,2,0.666058902291999,0.675492984147593
"356",19,32,1,2,116,3,2,1,3,1.14502304739743,1.11788097451604
"357",19,24,1,1,117,1,1,1,5,0.390006594699963,0.451784451960797
"358",19,36,1,1,118,2,1,1,3,0.706412503132187,0.74153386480398
"359",19,30,1,1,119,1,2,0,3,0.440431774180736,0.551275645753538
"360",19,36,1,2,120,1,2,1,5,0.524243015854861,0.457729625585341
"361",19,31,1,2,121,1,2,1,4,0.373707757700136,0.332109182715002
"362",19,39,1,1,122,1,1,1,4,0.362985021361567,0.381937609417667
"363",19,39,1,2,123,3,1,0,2,0.936453952139737,0.861114911975223
"364",19,29,1,2,124,3,1,0,1,1.32093998584285,1.26670901528546
"365",19,29,1,1,125,1,1,1,4,0.300948056004084,0.239212369319616
"366",19,32,1,2,126,3,1,0,1,1.75748441682464,1.76774473464809
"367",19,24,1,1,127,2,2,0,2,0.588739043170277,0.514632851590544
"368",19,36,1,2,128,1,2,1,5,0.341464115207942,0.339106730174464
"369",19,30,1,1,129,2,1,1,4,0.363329985352366,0.345298910989445
"370",19,36,1,1,130,2,2,0,2,0.655733361504222,0.698836930944897
"371",19,31,1,2,131,2,1,0,3,0.26150321191576,0.295054542688009
"372",19,39,1,2,132,2,1,0,2,0.831309715629147,0.817581061810393
"373",19,39,1,2,133,3,2,1,3,0.462405597962697,0.490378217348035
"374",19,29,1,2,134,3,2,1,2,0.700024153299266,0.794621713387983
"375",19,29,1,1,135,3,2,0,1,0.990800457889074,0.936415649271894
"376",19,32,1,2,136,2,2,1,3,0.7207456106999,0.711109420422653
"377",19,24,1,2,137,1,2,1,5,0.279747880499746,0.28760576638295
"378",19,36,1,2,138,2,1,0,3,0.628225750425012,0.745421149142778
"379",19,30,1,1,139,2,2,0,2,0.939221095096057,0.964027101233158
"380",19,36,1,1,140,3,2,0,2,1.69661824570584,1.75746086849005
"381",19,31,1,2,141,3,2,1,3,1.11618970049597,1.16194317800874
"382",19,39,1,1,142,1,1,1,5,0.352706084439704,0.308580816704033
"383",19,39,1,2,143,1,1,0,3,0.663111455707572,0.672159361416317
"384",19,29,1,2,144,2,2,1,4,0.649261681699378,0.643969128791231
"385",19,29,1,2,145,2,2,1,3,0.742247293818971,0.765110701474898
"386",19,32,1,2,146,2,2,1,3,0.595064431430805,0.597433663901926
"387",19,24,1,1,147,3,1,1,3,0.531134013424794,0.593201712270715
"388",19,36,1,1,148,2,2,0,3,0.534697980454168,0.638771380170188
"389",19,30,1,2,149,1,2,1,5,0.382488658534356,0.412936273704292
"390",19,36,1,2,150,3,2,1,3,0.40313337445248,0.376101937074843
"391",19,31,1,1,151,3,2,0,1,0.499440840536894,0.563535830711314
"392",19,39,1,1,152,1,1,1,5,0.502161430454545,0.467667920096034
"393",19,39,1,1,153,1,1,1,4,0.423242038877402,0.48302959199781
"394",19,29,1,1,154,1,1,1,5,0.474917407479497,0.496193199523048
"395",19,29,1,2,155,1,2,1,4,0.285527754091715,0.266013866015234
"396",19,32,1,2,156,1,2,1,4,0.382447918936939,0.363133588466169
"397",19,24,1,2,157,3,1,0,2,0.972101078843392,0.925742550633828
"398",19,36,1,1,158,2,2,0,2,0.886616101866211,0.875279277822823
"399",19,30,1,1,159,1,2,0,4,0.589942462605737,0.553762481400188
"400",19,36,1,1,160,2,2,0,2,0.663084271434595,0.690222777003034
"401",19,31,1,1,161,2,1,1,3,0.476237239425049,0.473048531724261
"402",19,39,1,2,162,2,2,1,3,0.43531905305535,0.455804389879328
"403",19,39,1,2,163,3,2,1,3,0.945617677087145,0.952196154927465
"404",19,29,1,1,164,2,1,1,4,0.494391843539019,0.587525613029044
"405",19,29,1,1,165,1,1,1,5,0.409073777168102,0.453299818692818
"406",19,32,1,2,166,1,2,1,5,0.474014942906828,0.497920828655078
"407",19,24,1,2,167,1,2,1,4,0.362352792473515,0.396583677624505
"408",19,36,1,2,168,1,1,0,3,0.260653918288807,0.430422568837279
"409",19,30,1,1,169,3,1,1,2,0.815001749313645,0.878395914362369
"410",19,36,1,1,170,3,2,0,2,1.14585727290049,1.03223848252356
"411",19,31,1,1,171,2,1,1,3,0.654835252830363,0.623364141784362
"412",19,39,1,1,172,1,1,1,4,0.408633662749152,0.447987881132536
"413",19,39,1,1,173,2,1,1,4,0.510589189604822,0.528186032270054
"414",19,29,1,1,174,2,2,0,3,0.741946972263623,0.754806155114876
"415",19,29,1,1,175,1,1,1,5,0.366128280584625,0.375154539698891
"416",19,32,1,2,176,3,2,1,3,1.11344649843319,1.16623487881359
"417",19,24,1,2,177,3,2,1,3,0.959915576726317,0.981865171325986
"418",19,36,1,2,178,1,2,1,5,0.328452047878526,0.296785137946156
"419",19,30,1,1,179,1,1,1,5,0.330247317130308,0.293830050060548
"420",19,36,1,2,180,3,1,0,2,1.14225063982614,1.11277284749398
"421",19,31,1,2,181,1,2,1,4,0.403873604246471,0.485622214687519
"422",19,39,1,1,182,2,1,1,3,0.659930094498188,0.616657223214366
"423",19,39,1,2,183,2,2,1,4,0.499242967692098,0.451083718037543
"424",19,29,1,1,184,3,1,1,2,0.574813842030719,0.527220731804833
"425",19,29,1,1,185,3,1,1,3,0.507601966053658,0.522861733748521
"426",19,32,1,2,186,3,1,0,1,0.562219676778555,0.558919073694097
"427",19,24,1,2,187,3,1,0,2,0.759649367667242,0.766909422175039
"428",19,36,1,1,188,1,1,1,5,0.495350491104336,0.541029842824656
"429",19,30,1,1,189,2,2,0,3,0.721929696394875,0.748193130104081
"430",19,36,1,2,190,1,2,1,4,0.456306580345101,0.491846448736669
"431",19,31,1,1,191,1,1,1,5,0.435312525355355,0.397331485123913
"432",19,39,1,1,192,2,1,1,3,0.552006333002714,0.553691643486886
"433",19,39,1,2,193,2,2,1,3,0.460528811172403,0.466648331059611
"434",19,29,1,1,194,2,1,1,4,0.454133045272933,0.462757221645119
"435",19,29,1,2,195,3,1,0,2,1.09874220798571,1.03953001330768
"436",19,32,1,2,196,1,2,1,4,0.526922724675394,0.521257178652468
"437",19,24,1,2,197,3,2,1,3,0.831913266466564,0.907695286298504
"438",19,36,1,2,198,3,2,1,2,0.547793030295953,0.572707132620912
"439",19,30,1,1,199,3,1,1,3,1.19106405688801,1.22619497235261
"440",19,36,1,1,200,1,1,1,4,0.533913558371438,0.519412922033787
"441",19,31,1,1,201,2,1,1,3,0.710187712537362,0.731856844975938
"442",19,39,1,2,202,1,1,0,3,0.53568478422336,0.435550920033027
"443",19,39,1,1,203,1,1,1,4,0.361640184193658,0.438472304893997
"444",19,29,1,1,204,2,1,1,3,0.844134435465386,0.807895479303851
"445",19,29,1,1,205,1,1,1,5,0.548004522342638,0.551113672984321
"446",19,32,1,2,206,2,1,0,3,0.719023416331804,0.697023157558476
"447",19,24,1,1,207,1,2,0,3,0.574352600269293,0.615218204463394
"448",19,36,1,1,208,3,2,0,2,0.967634465886382,0.925900394107912
"449",19,30,1,1,209,1,1,1,5,0.317218669636479,0.223736774729734
"450",19,36,1,1,210,3,2,0,1,1.38728232501687,1.29134982339032
"451",19,31,1,2,211,2,2,1,4,0.420397534473842,0.364579458558644
"452",19,39,1,1,212,1,1,1,5,0.32399787946719,0.366506437990131
"453",19,39,1,1,213,2,1,1,4,0.422079824995028,0.31425176077447
"454",19,29,1,2,214,3,1,0,2,1.17066851240277,1.18466881476978
"455",19,29,1,1,215,2,2,0,2,0.710660002667359,0.733368491378848
"456",19,32,1,1,216,3,1,1,2,0.730596056261674,0.758932724926198
"457",19,24,1,2,217,2,1,0,2,0.45161519487144,0.433908785583118
"458",19,36,1,1,218,3,2,0,2,0.985036138265636,1.0364839840425
"459",19,30,1,1,219,3,1,1,2,0.69963197049353,0.731017068978515
"460",19,36,1,2,220,3,2,1,3,1.01298073872502,1.01886705674382
"461",19,31,1,1,221,2,2,0,2,0.671151846301741,0.688244766968176
"462",19,39,1,2,222,1,2,1,4,0.533818018384599,0.404668494433818
"463",19,39,1,2,223,1,2,1,5,0.374172866314949,0.335187603498538
"464",19,29,1,2,224,3,2,1,3,0.794512976509991,0.794130570753421
"465",19,29,1,2,225,1,2,1,5,0.37209609741537,0.48634293454722
"466",19,32,1,1,226,2,2,0,2,0.787460728117087,0.747926529417259
"467",19,24,1,1,227,1,1,1,5,0.464965046683724,0.366902983644167
"468",19,36,1,1,228,3,2,0,1,1.10764775253705,1.03694416641206
"469",19,30,1,2,229,3,1,0,1,1.01413457212023,1.0230655123483
"470",19,36,1,1,230,2,2,0,3,0.449879823706868,0.419847240708325
"471",19,31,1,2,231,2,2,1,3,0.706633622289211,0.771823935486536
"472",19,39,1,1,232,3,2,0,2,1.71780363290804,1.70541024308443
"473",19,39,1,2,233,3,1,0,2,1.25437953357485,1.25157330635294
"474",19,29,1,2,234,2,2,1,3,0.594413968990947,0.61098583952583
"475",19,29,1,1,235,3,2,0,1,0.482725649516966,0.556595004309203
"476",19,32,1,2,236,1,2,1,4,0.365122505213561,0.390095539905001
"477",19,24,1,2,237,1,1,0,4,0.542172727061147,0.461331285390407
"478",19,36,1,2,238,2,2,1,4,0.592265430129596,0.57845136871469
"479",19,30,1,1,239,3,2,0,1,1.03783564780078,1.00450116657212
"480",19,36,1,2,240,3,1,0,2,0.453519036862824,0.416079919565937
"481",18,19,2,2,1,3,1,0,1,0.583959984397133,0.579540432574434
"482",18,22,2,2,2,2,2,1,4,0.572264142521651,0.584237685790597
"483",18,20,2,2,3,1,2,1,4,0.427260434244839,0.436249381943101
"484",18,34,2,1,4,3,2,0,2,0.899601688932103,0.786017738852375
"485",18,32,2,2,5,2,1,0,2,0.567925970731267,0.572048452015653
"486",18,33,2,2,6,1,2,1,5,0.342476741993821,0.334503250001231
"487",18,18,2,2,7,1,2,1,5,0.431548227062327,0.416527169789329
"488",18,36,2,1,8,3,1,1,3,0.599705955590283,0.536804559011358
"489",18,26,2,2,9,1,2,1,4,0.399392959352026,0.420830979733422
"490",18,23,2,2,10,1,1,0,4,0.576556386490251,0.568659006498118
"491",18,19,2,1,11,3,2,0,1,0.883011825220108,0.866932522685613
"492",18,22,2,1,12,2,1,1,3,0.880073615949815,0.877887905044861
"493",18,20,2,2,13,1,2,1,5,0.297693006945106,0.345267210471252
"494",18,34,2,2,14,1,2,1,4,0.352638216699052,0.429043743111422
"495",18,32,2,1,15,2,2,0,2,0.83765546361971,0.82442574901013
"496",18,33,2,2,16,2,2,1,4,0.681364350738443,0.690438524346701
"497",18,18,2,1,17,1,1,1,5,0.471304561874198,0.448270476690307
"498",18,36,2,2,18,3,2,1,2,0.819876703276811,0.823724464928418
"499",18,26,2,1,19,3,2,0,1,0.977906348223861,0.964419539393329
"500",18,23,2,1,20,3,2,0,1,1.07644860925403,0.998604729950736
"501",18,19,2,1,21,2,1,1,3,0.626509061698935,0.697820213824866
"502",18,22,2,1,22,1,2,0,4,0.43696375178903,0.373783956768574
"503",18,20,2,1,23,3,1,1,2,0.562625547899705,0.518011043672003
"504",18,34,2,1,24,1,2,0,4,0.553482071048995,0.593426520219277
"505",18,32,2,1,25,3,2,0,1,1.23963012463927,1.25507536764782
"506",18,33,2,2,26,1,2,1,4,0.448028723931122,0.485241360131209
"507",18,18,2,2,27,3,2,1,2,0.732843754155411,0.706877488426648
"508",18,36,2,1,28,1,1,1,4,0.351899332160348,0.406345168433006
"509",18,26,2,1,29,3,2,0,2,0.408918382219282,0.372377595771438
"510",18,23,2,1,30,2,1,1,3,0.853609126361689,0.864457178719646
"511",18,19,2,2,31,1,2,1,4,0.258502944188333,0.246718757597848
"512",18,22,2,2,32,3,1,0,1,0.933485234080526,0.869473954697236
"513",18,20,2,2,33,3,2,1,2,0.847006110553148,0.78642727717669
"514",18,34,2,1,34,3,2,0,2,1.06264252046373,1.08563842646333
"515",18,32,2,1,35,1,1,1,5,0.425962020655418,0.367262314638953
"516",18,33,2,2,36,3,2,1,2,1.07921642805466,1.18188923944466
"517",18,18,2,1,37,1,2,0,4,0.530865273958526,0.476407847131961
"518",18,36,2,1,38,1,1,1,5,0.205042721377359,0.251747094958215
"519",18,26,2,2,39,1,2,1,5,0.379873360293476,0.394354735044682
"520",18,23,2,2,40,3,2,1,3,0.487363714831442,0.447897806169055
"521",18,19,2,1,41,3,2,0,1,0.851479262846116,0.726966135430448
"522",18,22,2,2,42,1,1,0,4,0.289300863497712,0.364511145142097
"523",18,20,2,2,43,2,1,0,2,0.802892472390785,0.780267051226456
"524",18,34,2,2,44,3,2,1,2,0.955575897638659,0.939675146778257
"525",18,32,2,1,45,3,2,0,2,0.893482983646162,0.974493883987572
"526",18,33,2,2,46,2,1,0,3,0.857689595471681,0.855864542587394
"527",18,18,2,1,47,2,2,0,3,0.677131213046638,0.730463684159333
"528",18,36,2,1,48,2,1,1,3,0.573148772542309,0.590567212030816
"529",18,26,2,1,49,2,1,1,4,0.701153998084675,0.749469144001071
"530",18,23,2,2,50,3,1,0,2,1.33228561623473,1.33929098434856
"531",18,19,2,2,51,2,2,1,3,0.518872063979804,0.4827492244891
"532",18,22,2,2,52,2,1,0,2,0.762886551847406,0.727103142787758
"533",18,20,2,2,53,2,2,1,3,0.513780465763272,0.584280887754625
"534",18,34,2,1,54,3,1,1,2,0.728516653072728,0.681408928395236
"535",18,32,2,1,55,1,2,0,4,0.515822241318972,0.497049672171224
"536",18,33,2,1,56,3,2,0,2,0.488421582374783,0.544626823928786
"537",18,18,2,1,57,2,1,1,4,0.77683491813222,0.787424030838374
"538",18,36,2,2,58,3,2,1,3,0.91307962571399,0.93483988130654
"539",18,26,2,2,59,3,2,1,3,0.572319418208517,0.581892758292292
"540",18,23,2,1,60,3,1,1,2,0.987559401344132,1.04385946954535
"541",18,19,2,2,61,2,2,1,4,0.817499516905794,0.902219577533074
"542",18,22,2,1,62,3,1,1,3,0.752113797249282,0.757701264487979
"543",18,20,2,2,63,1,2,1,4,0.42076451646448,0.365273952549532
"544",18,34,2,1,64,3,2,0,2,0.626470289778558,0.619152093079148
"545",18,32,2,2,65,1,2,1,4,0.441283837593036,0.375781846033549
"546",18,33,2,1,66,1,2,0,3,0.562706254140436,0.528151957503357
"547",18,18,2,1,67,2,1,1,3,0.646554279867834,0.711359725460046
"548",18,36,2,2,68,3,1,0,2,1.06925576499222,1.07562173905105
"549",18,26,2,2,69,1,2,1,5,0.434859795150832,0.421405808377408
"550",18,23,2,1,70,3,2,0,1,1.09875409673577,1.16244013735873
"551",18,19,2,1,71,3,2,0,2,1.23840417126864,1.22377820491013
"552",18,22,2,1,72,2,1,1,3,0.538891930592441,0.542348247906533
"553",18,20,2,2,73,2,2,1,3,0.547159364192431,0.651322013114011
"554",18,34,2,2,74,2,2,1,4,0.744083970994038,0.78488324572297
"555",18,32,2,1,75,3,2,0,1,1.11462510483746,1.1092965703264
"556",18,33,2,2,76,2,2,1,3,0.658272587617611,0.715039578124002
"557",18,18,2,1,77,1,2,0,4,0.695379982812837,0.700882887614532
"558",18,36,2,2,78,3,1,0,2,0.878806932652267,0.90793240424849
"559",18,26,2,1,79,2,2,0,2,0.722116118175312,0.762066486811789
"560",18,23,2,2,80,1,2,1,5,0.525472832837991,0.584345018930748
"561",18,19,2,2,81,3,1,0,1,0.584432261646037,0.567368856930518
"562",18,22,2,2,82,1,2,1,5,0.266053753133199,0.306787974580934
"563",18,20,2,2,83,3,1,0,1,1.13384821061382,1.03739546494753
"564",18,34,2,2,84,1,1,0,4,0.655208365813508,0.596522053937983
"565",18,32,2,1,85,2,2,0,2,0.613728869683276,0.584044265742914
"566",18,33,2,1,86,1,1,1,5,0.478870047619629,0.549617873021681
"567",18,18,2,1,87,2,2,0,2,1.03740914181631,1.05100934389828
"568",18,36,2,2,88,1,1,0,4,0.636742721993091,0.64058293673922
"569",18,26,2,2,89,3,2,1,3,1.0149229300287,1.0924268574795
"570",18,23,2,2,90,2,2,1,4,0.519448966766514,0.396530541711093
"571",18,19,2,2,91,1,2,1,5,0.462275680456869,0.500380325336738
"572",18,22,2,1,92,3,1,1,3,0.616846209112869,0.672943979876335
"573",18,20,2,2,93,1,2,1,4,0.278416808324453,0.273168475337304
"574",18,34,2,2,94,2,2,1,3,0.296515029774887,0.231695821999716
"575",18,32,2,1,95,1,1,1,4,0.395191160099811,0.387479945467546
"576",18,33,2,1,96,3,1,1,2,1.06814223861426,1.04479031738949
"577",18,18,2,2,97,3,2,1,2,0.661477853124545,0.631876728452796
"578",18,36,2,1,98,2,2,0,3,0.655437108509656,0.628603234620268
"579",18,26,2,2,99,2,1,0,2,0.65687922300726,0.656259963181715
"580",18,23,2,1,100,3,1,1,2,1.00503791688511,0.999044827369779
"581",18,19,2,1,101,3,1,1,3,1.11347748500916,1.04150597211181
"582",18,22,2,2,102,2,1,0,3,1.20498972872731,1.15569677026437
"583",18,20,2,1,103,1,1,1,5,0.412648531611503,0.425010849121666
"584",18,34,2,2,104,1,2,1,4,0.48136495209365,0.533749799855485
"585",18,32,2,1,105,1,2,0,4,0.519203475815085,0.536613353192389
"586",18,33,2,2,106,1,2,1,4,0.488583917348753,0.565835348216458
"587",18,18,2,2,107,2,1,0,3,0.715894285159639,0.647268831322876
"588",18,36,2,2,108,3,2,1,3,0.792427726066904,0.839903188993528
"589",18,26,2,1,109,2,2,0,2,0.712286768612904,0.746705819510961
"590",18,23,2,1,110,3,1,1,2,0.574713443048974,0.623739852242522
"591",18,19,2,2,111,3,1,0,1,1.00179791992763,1.0267359281423
"592",18,22,2,1,112,2,2,0,3,0.581764501763076,0.54059289715395
"593",18,20,2,1,113,3,2,0,2,0.919068424622308,0.873172873008957
"594",18,34,2,1,114,2,2,0,2,0.535905266489685,0.62386698943768
"595",18,32,2,2,115,1,2,1,4,0.449219123545965,0.479412756886465
"596",18,33,2,2,116,2,1,0,3,0.41875581484358,0.392066758950904
"597",18,18,2,2,117,1,2,1,5,0.454967329040326,0.422003179990542
"598",18,36,2,1,118,2,1,1,3,0.77252320341803,0.821038504324913
"599",18,26,2,1,119,2,1,1,4,0.528816685455531,0.495345432036939
"600",18,23,2,1,120,1,1,1,4,0.497884607063767,0.534058008509333
"601",18,19,2,1,121,1,1,1,5,0.465688222427799,0.471087515644889
"602",18,22,2,1,122,2,1,1,3,0.802405174986149,0.69265064693894
"603",18,20,2,1,123,1,1,1,5,0.505209294097749,0.484693440124529
"604",18,34,2,2,124,2,1,0,3,0.525487065778495,0.534745386408928
"605",18,32,2,2,125,2,2,1,3,0.506882465637567,0.546301927192724
"606",18,33,2,1,126,1,1,1,5,0.505010666537817,0.489634305004276
"607",18,18,2,1,127,1,2,0,4,0.394981886831904,0.501233408479359
"608",18,36,2,1,128,3,1,1,3,0.886638583167571,0.837921356770426
"609",18,26,2,1,129,2,1,1,4,0.470099830510426,0.524781021509604
"610",18,23,2,2,130,2,2,1,3,0.60319834116523,0.482110692398761
"611",18,19,2,2,131,3,2,1,2,1.05070841582915,1.10211487638566
"612",18,22,2,2,132,1,2,1,5,0.328252097356721,0.386348449374756
"613",18,20,2,2,133,1,1,0,3,0.595421292715224,0.681512641566146
"614",18,34,2,1,134,3,1,1,3,0.506726727966882,0.500290375654557
"615",18,32,2,2,135,1,2,1,5,0.449927345527352,0.417805767850787
"616",18,33,2,2,136,2,2,1,3,0.569041160443709,0.646454600937813
"617",18,18,2,1,137,1,1,1,4,0.438753818310547,0.397795735978893
"618",18,36,2,1,138,2,2,0,3,0.48830458722936,0.465619114081908
"619",18,26,2,2,139,1,2,1,4,0.646988096795127,0.733156633862397
"620",18,23,2,2,140,1,2,1,4,0.401681376560781,0.343951025481852
"621",18,19,2,2,141,1,2,1,5,0.550046564920919,0.574176204955527
"622",18,22,2,1,142,2,2,0,3,0.573947261452889,0.650615511737444
"623",18,20,2,1,143,3,1,1,2,0.904776528996671,0.848928904680189
"624",18,34,2,2,144,2,2,1,4,0.473687205280144,0.471723680196348
"625",18,32,2,2,145,3,1,0,1,1.54109074209754,1.58027915914251
"626",18,33,2,1,146,2,1,1,3,0.658672750653138,0.670263065816707
"627",18,18,2,1,147,1,2,0,4,0.635655041325251,0.630153045000062
"628",18,36,2,1,148,1,1,1,5,0.308870700582219,0.334074108371517
"629",18,26,2,1,149,2,1,1,3,0.430839072773834,0.464612101380677
"630",18,23,2,2,150,3,1,0,2,0.978653740634109,0.996853245750423
"631",18,19,2,2,151,1,2,1,4,0.356404111734542,0.305070759450586
"632",18,22,2,1,152,3,1,1,3,0.829746629273513,0.822684521769392
"633",18,20,2,2,153,2,2,1,4,0.86336943723494,0.805039311225994
"634",18,34,2,1,154,3,1,1,2,0.765312153985592,0.796043565069698
"635",18,32,2,2,155,2,1,0,3,0.80442633521256,0.725118784251083
"636",18,33,2,1,156,1,1,1,5,0.41949707136294,0.454124659830334
"637",18,18,2,2,157,2,2,1,3,0.625384865558441,0.527205132842642
"638",18,36,2,2,158,3,2,1,2,0.827689537814022,0.814362096977851
"639",18,26,2,2,159,2,1,0,3,0.413730693829375,0.376367190323687
"640",18,23,2,2,160,2,2,1,4,0.80731867998565,0.794105385021315
"641",18,19,2,2,161,3,2,1,2,1.07499337832488,1.06134824567144
"642",18,22,2,1,162,3,2,0,1,1.35660623199009,1.31861451542561
"643",18,20,2,2,163,3,1,0,2,0.85589004869935,0.860087682175443
"644",18,34,2,1,164,2,1,1,3,0.479012938067598,0.457401332439943
"645",18,32,2,2,165,1,2,1,4,0.311434366302256,0.364821189951554
"646",18,33,2,2,166,1,2,1,5,0.485614073324306,0.458462425778006
"647",18,18,2,2,167,2,2,1,3,0.646262382578155,0.659087382345855
"648",18,36,2,1,168,2,1,1,4,0.59388789996375,0.587039079048515
"649",18,26,2,1,169,3,2,0,1,0.613110546556908,0.683277441211215
"650",18,23,2,2,170,3,1,0,2,1.4293822126767,1.34619957028906
"651",18,19,2,2,171,1,2,1,5,0.388525308567616,0.541524114938419
"652",18,22,2,1,172,2,1,1,4,0.584177789632137,0.588507795644982
"653",18,20,2,1,173,1,1,1,5,0.331830445965441,0.419851350716866
"654",18,34,2,2,174,1,1,0,3,0.519310701364087,0.432399470433838
"655",18,32,2,1,175,1,1,1,4,0.482788437110345,0.543003292204146
"656",18,33,2,1,176,3,2,0,1,1.21251930715342,1.24040159951385
"657",18,18,2,1,177,1,1,1,5,0.382018341365635,0.47466660087865
"658",18,36,2,1,178,3,2,0,2,1.60877148609755,1.61538193577677
"659",18,26,2,1,179,3,1,1,2,0.527996712612773,0.471171685235901
"660",18,23,2,2,180,3,1,0,1,1.61062662622328,1.55144653249315
"661",18,19,2,2,181,3,2,1,2,1.03023793383473,1.04256204687397
"662",18,22,2,2,182,3,1,0,1,1.15790290276204,1.17138905509818
"663",18,20,2,2,183,1,1,0,3,0.720765152014686,0.795178576976695
"664",18,34,2,2,184,3,2,1,2,0.765966196234362,0.757171826192251
"665",18,32,2,2,185,1,2,1,4,0.409843048250479,0.468124164979131
"666",18,33,2,1,186,1,2,0,3,0.429433628453302,0.47148924299926
"667",18,18,2,2,187,2,2,1,4,0.570026770060274,0.565317227019279
"668",18,36,2,1,188,3,1,1,2,0.942538326946837,0.941868168078968
"669",18,26,2,2,189,3,1,0,1,1.11231394646022,1.12426787965437
"670",18,23,2,2,190,1,2,1,5,0.362185170545244,0.405344784276376
"671",18,19,2,1,191,3,1,1,2,0.916335723711163,0.943010425186707
"672",18,22,2,2,192,2,2,1,4,0.734215689706179,0.706958223464363
"673",18,20,2,1,193,1,1,1,5,0.453452897884429,0.496999570292647
"674",18,34,2,2,194,3,2,1,2,0.77743802075046,0.721294890377209
"675",18,32,2,1,195,1,1,1,4,0.456139524606257,0.468743853020893
"676",18,33,2,1,196,3,2,0,2,1.06426702690568,1.10431495527047
"677",18,18,2,2,197,1,2,1,4,0.513036492774288,0.463013426987751
"678",18,36,2,1,198,2,2,0,2,0.696927415353586,0.746139804984179
"679",18,26,2,1,199,1,2,0,3,0.423720470627541,0.419854766827626
"680",18,23,2,2,200,3,1,0,2,0.857551687456715,0.782360706687623
"681",18,19,2,2,201,2,2,1,3,0.443244977922507,0.478723846453066
"682",18,22,2,2,202,2,1,0,3,0.450838928721936,0.427693354276292
"683",18,20,2,2,203,2,1,0,2,0.645655009776988,0.652992934690844
"684",18,34,2,2,204,1,2,1,5,0.26401434459451,0.264563483441527
"685",18,32,2,1,205,1,1,1,4,0.227680381387837,0.231321554234844
"686",18,33,2,2,206,1,2,1,4,0.346023089498852,0.250323880488086
"687",18,18,2,1,207,3,1,1,2,0.814327211844264,0.832236950189435
"688",18,36,2,1,208,3,1,1,3,0.819527200160184,0.857104455873683
"689",18,26,2,2,209,1,1,0,4,0.689010340245491,0.639869635665121
"690",18,23,2,1,210,2,1,1,4,0.506124460194217,0.624168566306241
"691",18,19,2,1,211,1,1,1,4,0.345874030513792,0.25755937102936
"692",18,22,2,1,212,3,2,0,2,0.816924280824068,0.90268553414028
"693",18,20,2,2,213,3,2,1,3,0.677890917080825,0.693523494733076
"694",18,34,2,2,214,3,1,0,1,0.916051698910131,0.882940012097394
"695",18,32,2,1,215,2,1,1,3,0.673865276560363,0.696296487942672
"696",18,33,2,1,216,2,1,1,4,0.4581714675163,0.438157566456162
"697",18,18,2,2,217,3,2,1,3,0.573476501231275,0.515216346732301
"698",18,36,2,1,218,1,1,1,5,0.447203057397958,0.447661624835774
"699",18,26,2,1,219,2,1,1,4,0.656122352946258,0.685662772371312
"700",18,23,2,1,220,1,1,1,5,0.438696686162024,0.513948327907324
"701",18,19,2,1,221,2,1,1,3,0.614022288184107,0.613317499722325
"702",18,22,2,1,222,2,2,0,2,0.636670854744297,0.648967282087372
"703",18,20,2,1,223,3,1,1,2,1.09903409543544,1.06150268871156
"704",18,34,2,2,224,3,1,0,2,0.907457767155532,0.933327491255467
"705",18,32,2,2,225,2,1,0,2,0.498234217463524,0.485241795483752
"706",18,33,2,1,226,2,1,1,3,0.716776555440195,0.707293913455085
"707",18,18,2,1,227,2,1,1,3,0.665215858019675,0.679287522505691
"708",18,36,2,2,228,2,2,1,4,0.676716036207926,0.654034027844069
"709",18,26,2,2,229,2,1,0,2,0.795200423329253,0.804086840643156
"710",18,23,2,1,230,2,1,1,4,0.594072694139507,0.645447103699486
"711",18,19,2,2,231,3,2,1,3,0.984993733596544,1.01628568529402
"712",18,22,2,1,232,2,1,1,4,0.45149602693427,0.393652542926987
"713",18,20,2,1,233,1,1,1,4,0.467720814673642,0.5446630023363
"714",18,34,2,1,234,2,1,1,4,0.733752049730622,0.666784352840722
"715",18,32,2,2,235,2,1,0,2,0.53499739452199,0.548975425875865
"716",18,33,2,1,236,1,1,1,4,0.309862321602071,0.270485357923521
"717",18,18,2,1,237,2,1,1,3,0.758118102949508,0.759049167514517
"718",18,36,2,2,238,1,1,0,4,0.426250898926693,0.378905371224073
"719",18,26,2,1,239,1,1,1,4,0.597864384966644,0.584115891640623
"720",18,23,2,2,240,2,1,0,2,0.692994775237372,0.71529152144465
"721",17,37,1,1,1,2,1,1,4,0.886095270702589,0.882411317473846
"722",17,30,1,1,2,2,1,1,4,0.465129016106487,0.417891187062543
"723",17,39,1,1,3,2,2,0,2,0.726624565665347,0.762866306568498
"724",17,21,1,1,4,3,2,0,2,0.631617954937451,0.694367427984579
"725",17,33,1,2,5,1,2,1,4,0.451487438325242,0.431168479006737
"726",17,20,1,1,6,1,1,1,5,0.380127304950464,0.382479948440928
"727",17,22,1,1,7,2,1,1,3,0.620464392508267,0.552225576670987
"728",17,20,1,2,8,2,1,0,2,0.773118519370476,0.787596684896618
"729",17,25,1,2,9,2,2,1,3,0.563519400317249,0.596057803311838
"730",17,31,1,2,10,1,1,0,4,0.457482587826066,0.51621980994654
"731",17,37,1,2,11,1,2,1,4,0.386693448928123,0.444299119389028
"732",17,30,1,2,12,3,1,0,2,1.15952919503828,1.26537750885902
"733",17,39,1,2,13,3,2,1,2,0.746567942145692,0.736633712514956
"734",17,21,1,2,14,2,1,0,3,0.777151895136143,0.845550322723462
"735",17,33,1,2,15,3,1,0,1,0.628586718915319,0.621014006583248
"736",17,20,1,1,16,1,1,1,5,0.393470020273109,0.401674993625056
"737",17,22,1,1,17,3,1,1,2,0.356810017087633,0.462018081133906
"738",17,20,1,2,18,3,1,0,2,0.483327830639245,0.298270658664283
"739",17,25,1,1,19,3,1,1,3,0.986396126473356,0.93539698307853
"740",17,31,1,1,20,3,1,1,3,0.594807363956789,0.571639773176197
"741",17,37,1,1,21,2,1,1,4,0.689736754692579,0.662411977198862
"742",17,30,1,2,22,2,2,1,4,0.498931304184352,0.401919863623363
"743",17,39,1,1,23,3,1,1,2,1.06632022651903,1.05407960341126
"744",17,21,1,2,24,3,2,1,3,0.871758160352543,0.882051302941197
"745",17,33,1,2,25,3,1,0,1,1.08838135782835,1.12835422509841
"746",17,20,1,1,26,2,2,0,2,0.618205254448094,0.562916078980476
"747",17,22,1,2,27,2,2,1,3,0.579838857458442,0.618201447831218
"748",17,20,1,2,28,1,1,0,3,0.345609059249305,0.332364777154085
"749",17,25,1,2,29,3,1,0,2,0.883767658603514,0.833395905021437
"750",17,31,1,2,30,1,2,1,5,0.46504308836244,0.470553636130393
"751",17,37,1,2,31,1,2,1,5,0.320029810114188,0.310908022111009
"752",17,30,1,2,32,1,2,1,4,0.338092716401789,0.278076791487253
"753",17,39,1,1,33,2,1,1,4,0.706580015696609,0.677986073688656
"754",17,21,1,1,34,2,1,1,3,0.545218306290007,0.513575269539927
"755",17,33,1,2,35,2,2,1,4,0.544397251367513,0.453935397846642
"756",17,20,1,1,36,2,2,0,2,0.582214144533377,0.530847545287057
"757",17,22,1,2,37,1,2,1,5,0.295729229316978,0.311857844934358
"758",17,20,1,2,38,1,2,1,4,0.41568025394808,0.439225117041296
"759",17,25,1,1,39,2,2,0,3,0.603761532337038,0.600890813988725
"760",17,31,1,2,40,2,1,0,2,0.457740827172808,0.481016461563137
"761",17,37,1,2,41,3,2,1,2,1.23229619638866,1.21635455313297
"762",17,30,1,2,42,1,2,1,5,0.335721448170347,0.325307750319951
"763",17,39,1,1,43,3,1,1,2,0.825680253585004,0.790704965849124
"764",17,21,1,1,44,1,1,1,5,0.244172509346108,0.188530335704003
"765",17,33,1,2,45,3,2,1,3,0.67901793218221,0.60619244589722
"766",17,20,1,2,46,3,2,1,3,0.838136243620384,0.856290028703158
"767",17,22,1,1,47,1,2,0,4,0.372490443662397,0.371461186954349
"768",17,20,1,2,48,2,1,0,3,0.777421365935441,0.769526507401488
"769",17,25,1,1,49,3,1,1,3,0.470763713506456,0.458498551472065
"770",17,31,1,2,50,3,1,0,2,0.78243032590679,0.70939815328977
"771",17,37,1,2,51,1,2,1,4,0.35794435088179,0.271971564896745
"772",17,30,1,2,52,2,2,1,3,0.575977147878135,0.525486854566222
"773",17,39,1,2,53,3,2,1,3,0.967978763588,0.977285630179076
"774",17,21,1,1,54,3,2,0,1,0.868021275560344,0.865797698697962
"775",17,33,1,1,55,3,1,1,3,0.676066818534179,0.657020555566682
"776",17,20,1,2,56,1,2,1,5,0.178446062841931,0.127746437482021
"777",17,22,1,1,57,1,1,1,5,0.4039250896163,0.399412974291288
"778",17,20,1,2,58,2,1,0,2,0.874029081896628,0.860958296753172
"779",17,25,1,1,59,2,2,0,2,0.557232618988148,0.563449258803276
"780",17,31,1,1,60,1,2,0,3,0.560681981391746,0.657224567731051
"781",17,37,1,1,61,3,1,1,2,1.0150367979747,1.01419852452423
"782",17,30,1,2,62,1,2,1,5,0.329719517057887,0.357320377024244
"783",17,39,1,2,63,2,2,1,3,0.679466139626006,0.70650854140436
"784",17,21,1,2,64,2,2,1,3,0.75501479191848,0.6742452807995
"785",17,33,1,1,65,1,1,1,5,0.449976845022069,0.40745662756508
"786",17,20,1,1,66,1,2,0,3,0.39796176177661,0.405932198319502
"787",17,22,1,1,67,2,2,0,2,0.679220426910925,0.71853025727487
"788",17,20,1,1,68,2,1,1,3,0.776357172942892,0.687184449967858
"789",17,25,1,2,69,2,1,0,3,0.637932955067777,0.598333919382249
"790",17,31,1,2,70,3,1,0,2,0.305593194312483,0.26593246933592
"791",17,37,1,2,71,2,1,0,3,0.806706787907415,0.831281716245315
"792",17,30,1,1,72,1,1,1,4,0.499076229058365,0.559007240907958
"793",17,39,1,1,73,1,1,1,4,0.280378357528483,0.279122343862283
"794",17,21,1,2,74,2,1,0,2,0.628865483636208,0.696419854140837
"795",17,33,1,1,75,3,1,1,2,0.939363241175775,0.875218994748892
"796",17,20,1,1,76,3,1,1,3,0.961179596609684,0.959341919987226
"797",17,22,1,1,77,2,1,1,3,0.544481458983994,0.506929072421167
"798",17,20,1,2,78,2,1,0,2,0.662670811757518,0.709363245290687
"799",17,25,1,2,79,3,2,1,2,0.614109365573837,0.552954490341715
"800",17,31,1,1,80,1,2,0,4,0.602812893366479,0.586048246088414
"801",17,37,1,2,81,3,2,1,2,1.03565660887807,1.01931464359527
"802",17,30,1,2,82,2,1,0,3,1.00174048516389,0.952543723388404
"803",17,39,1,2,83,1,1,0,4,0.606443951951165,0.646169695029497
"804",17,21,1,1,84,1,1,1,4,0.319646958565444,0.320003883381725
"805",17,33,1,2,85,1,2,1,5,0.441011132137483,0.426889889931395
"806",17,20,1,2,86,3,2,1,2,1.20404263899614,1.23400285260052
"807",17,22,1,2,87,3,2,1,2,0.665618370199776,0.62401473063229
"808",17,20,1,2,88,3,1,0,1,0.822243384643862,0.798976612096975
"809",17,25,1,1,89,2,2,0,2,0.650509472604797,0.586290116804257
"810",17,31,1,2,90,2,2,1,3,0.536088676454014,0.521335710922067
"811",17,37,1,1,91,1,1,1,4,0.44105564620883,0.403042719351207
"812",17,30,1,2,92,1,1,0,4,0.631178990130572,0.567499146454986
"813",17,39,1,1,93,2,1,1,4,0.452668086574024,0.553575828496396
"814",17,21,1,1,94,1,1,1,4,0.455432757709037,0.429382323392953
"815",17,33,1,2,95,3,1,0,2,1.45340408151634,1.50575033150355
"816",17,20,1,2,96,2,1,0,3,0.729636771515807,0.779031523636798
"817",17,22,1,2,97,2,2,1,3,0.680341656758213,0.721493594382648
"818",17,20,1,1,98,3,1,1,2,0.652646863332561,0.730565529196235
"819",17,25,1,1,99,1,1,1,5,0.437630992696934,0.397059421462665
"820",17,31,1,1,100,2,2,0,2,0.662135729339072,0.620694662075001
"821",17,37,1,2,101,1,2,1,5,0.289847485093959,0.315013679042392
"822",17,30,1,2,102,1,1,0,4,0.615159160487593,0.588377507744722
"823",17,39,1,1,103,1,1,1,4,0.36258248405853,0.312261292960628
"824",17,21,1,2,104,2,1,0,3,0.733138409913243,0.69190685920051
"825",17,33,1,2,105,1,2,1,4,0.448974352368828,0.374646771772068
"826",17,20,1,1,106,3,2,0,2,1.3031235281121,1.32534715937305
"827",17,22,1,2,107,1,2,1,5,0.418639260555681,0.432436086249885
"828",17,20,1,1,108,3,1,1,2,0.654516856476989,0.587418612336212
"829",17,25,1,1,109,3,2,0,2,0.758377467688176,0.772376719469337
"830",17,31,1,1,110,2,2,0,2,0.882228568590927,0.854377375706835
"831",17,37,1,1,111,2,2,0,3,0.771402641562407,0.806942735768965
"832",17,30,1,1,112,3,2,0,1,0.601800910185075,0.525995703522496
"833",17,39,1,1,113,2,2,0,3,0.777640194374839,0.754118362795386
"834",17,21,1,1,114,1,1,1,4,0.448946022530504,0.452134409333373
"835",17,33,1,2,115,3,1,0,1,0.680229344870412,0.633628446334267
"836",17,20,1,1,116,2,1,1,4,0.684604291630598,0.571739186029922
"837",17,22,1,2,117,3,1,0,2,1.14559481687898,1.26371496172148
"838",17,20,1,1,118,1,1,1,5,0.388624964632776,0.445804019084257
"839",17,25,1,2,119,2,1,0,2,0.849776672241963,0.813636837654217
"840",17,31,1,1,120,2,1,1,4,0.362046952459778,0.485680297925949
"841",17,37,1,1,121,2,1,1,4,0.682606015389001,0.639485194139363
"842",17,30,1,2,122,3,1,0,1,1.34622375473836,1.38172611202875
"843",17,39,1,2,123,1,2,1,5,0.465209387417304,0.386290571055379
"844",17,21,1,2,124,2,2,1,4,0.461994650117339,0.34593982028939
"845",17,33,1,1,125,2,1,1,3,0.371515263962131,0.364522889511545
"846",17,20,1,1,126,3,1,1,2,0.790441996719225,0.782711605768847
"847",17,22,1,1,127,3,2,0,2,0.67271263686025,0.595654217108505
"848",17,20,1,2,128,2,1,0,3,1.0367226313292,1.05201488683191
"849",17,25,1,1,129,1,1,1,5,0.556839240389413,0.58168114810953
"850",17,31,1,2,130,2,2,1,3,0.600944557328888,0.674467713768691
"851",17,37,1,1,131,2,1,1,3,0.699547259285781,0.75978182571526
"852",17,30,1,2,132,3,2,1,3,1.02663618376143,1.00187215288458
"853",17,39,1,2,133,1,2,1,4,0.265080824701403,0.272011666706483
"854",17,21,1,2,134,1,2,1,5,0.343434930243373,0.345192784414948
"855",17,33,1,1,135,3,2,0,2,1.02816554026009,1.04601858174888
"856",17,20,1,1,136,3,2,0,1,1.78455159769027,1.76327541759793
"857",17,22,1,1,137,3,2,0,1,0.310221481954864,0.274556945202673
"858",17,20,1,1,138,1,2,0,3,0.442956512933906,0.323371512408454
"859",17,25,1,1,139,3,1,1,2,0.629081653225939,0.593057147702691
"860",17,31,1,1,140,3,2,0,2,0.630001310874953,0.63876120093802
"861",17,37,1,2,141,1,2,1,4,0.333704459614199,0.438381148081849
"862",17,30,1,2,142,3,2,1,2,0.761970834621062,0.760468719851527
"863",17,39,1,2,143,2,2,1,3,0.584323672644154,0.593952247203061
"864",17,21,1,2,144,3,2,1,3,0.805440119411071,0.805599381707272
"865",17,33,1,2,145,3,1,0,2,1.16505388913099,1.08901580037005
"866",17,20,1,1,146,2,2,0,2,0.57799092812052,0.563122554652512
"867",17,22,1,1,147,2,2,0,3,0.838633146644324,0.768951912508544
"868",17,20,1,2,148,3,1,0,1,0.547833554415622,0.528719512726714
"869",17,25,1,2,149,1,1,0,4,0.605688643533365,0.519542804061751
"870",17,31,1,2,150,3,1,0,1,0.718889615387956,0.714439966271421
"871",17,37,1,2,151,3,1,0,2,1.2598101242676,1.21409544887043
"872",17,30,1,1,152,3,2,0,2,0.285898493347324,0.310293031331984
"873",17,39,1,1,153,1,1,1,4,0.508290450614936,0.491738145576284
"874",17,21,1,1,154,2,1,1,4,0.542061402907872,0.487810756256844
"875",17,33,1,2,155,2,2,1,4,0.532542417090339,0.532006297755777
"876",17,20,1,1,156,1,1,1,4,0.363586256470991,0.393878551191754
"877",17,22,1,2,157,2,1,0,3,0.563353052803874,0.531310121352873
"878",17,20,1,1,158,3,1,1,3,0.791848609770276,0.694486938814954
"879",17,25,1,1,159,2,2,0,2,0.611443740718078,0.612873096254255
"880",17,31,1,2,160,3,1,0,2,0.48914734918504,0.550586749390193
"881",17,37,1,2,161,2,2,1,3,0.745842009868564,0.780252266686959
"882",17,30,1,1,162,3,1,1,3,1.25222718256066,1.22991424870775
"883",17,39,1,2,163,1,2,1,5,0.46425910319742,0.545198109258726
"884",17,21,1,1,164,1,1,1,4,0.631166726234641,0.705302387545012
"885",17,33,1,1,165,1,1,1,5,0.373548391834532,0.438916639245071
"886",17,20,1,2,166,1,2,1,5,0.447993849415968,0.488886195185567
"887",17,22,1,1,167,1,1,1,4,0.341404701865453,0.345163806449744
"888",17,20,1,1,168,1,1,1,5,0.474770063313332,0.503065907308755
"889",17,25,1,2,169,3,1,0,1,0.903608059299807,0.957274185714662
"890",17,31,1,1,170,1,1,1,5,0.4609131452937,0.385756570951752
"891",17,37,1,1,171,3,2,0,1,0.892222512384508,0.974196059543439
"892",17,30,1,2,172,2,2,1,4,0.509442169090814,0.577821181627868
"893",17,39,1,2,173,3,2,1,2,0.920847223015964,0.954012712947081
"894",17,21,1,2,174,1,1,0,4,0.477543642939878,0.462484264702419
"895",17,33,1,2,175,1,2,1,4,0.388880392105253,0.402426517462934
"896",17,20,1,2,176,3,1,0,1,1.49086810491924,1.55498205275246
"897",17,22,1,1,177,2,2,0,2,0.658191905345815,0.728407426763675
"898",17,20,1,2,178,2,2,1,3,0.78618927134936,0.832853903953817
"899",17,25,1,1,179,3,2,0,1,0.713530964128466,0.792004362111929
"900",17,31,1,1,180,2,1,1,4,0.564920955087982,0.56136344231077
"901",17,37,1,2,181,3,1,0,1,1.14585400622008,1.22832013269127
"902",17,30,1,1,182,1,2,0,3,0.485671381138098,0.501494377086639
"903",17,39,1,1,183,3,2,0,2,0.712629227196372,0.671356813568495
"904",17,21,1,1,184,3,1,1,3,0.977578613821567,0.950011235149858
"905",17,33,1,2,185,2,2,1,3,0.475604570604455,0.445334054919837
"906",17,20,1,2,186,1,1,0,4,0.624477483787638,0.61172811889103
"907",17,22,1,1,187,2,1,1,3,0.255847609295889,0.215517342508094
"908",17,20,1,2,188,1,1,0,3,0.488875953899023,0.421741185872924
"909",17,25,1,2,189,1,2,1,4,0.380166353806923,0.393937728750575
"910",17,31,1,1,190,1,1,1,4,0.442060824265381,0.416977547497187
"911",17,37,1,2,191,3,2,1,2,0.888118563617223,0.906737305438683
"912",17,30,1,1,192,3,2,0,1,1.46245412364671,1.47784938629037
"913",17,39,1,2,193,2,1,0,2,0.76973689023438,0.817993614747721
"914",17,21,1,2,194,3,1,0,1,0.73276754894037,0.755752305012746
"915",17,33,1,1,195,3,1,1,2,0.589123412587202,0.613020093287448
"916",17,20,1,2,196,3,1,0,1,0.490466337734729,0.478576134901515
"917",17,22,1,1,197,2,1,1,3,0.605841699389878,0.630185465577568
"918",17,20,1,1,198,3,1,1,3,0.970348526873618,0.959061682811226
"919",17,25,1,2,199,1,2,1,4,0.370789663885201,0.359443281511976
"920",17,31,1,2,200,2,2,1,4,0.65216811767046,0.675550160449987
"921",17,37,1,1,201,1,1,1,5,0.345591109182826,0.354774223412465
"922",17,30,1,1,202,1,2,0,3,0.59028716371771,0.647596921920042
"923",17,39,1,1,203,2,2,0,2,0.832177663121298,0.877837491866057
"924",17,21,1,2,204,2,2,1,4,0.608205792549989,0.583993082764521
"925",17,33,1,1,205,3,1,1,3,0.737768569911005,0.670597311116065
"926",17,20,1,2,206,3,2,1,3,0.895580122355381,0.84051187526498
"927",17,22,1,2,207,1,2,1,4,0.557776693543329,0.589240735094289
"928",17,20,1,1,208,1,1,1,4,0.395064456948477,0.416916843078428
"929",17,25,1,1,209,2,2,0,2,0.796370493318457,0.763636782698948
"930",17,31,1,1,210,2,2,0,3,0.955819857583194,0.994514105047495
"931",17,37,1,2,211,3,1,0,1,0.505194394955901,0.484066253790181
"932",17,30,1,2,212,3,1,0,1,1.285507139486,1.30631600193481
"933",17,39,1,2,213,1,1,0,3,0.446679605202584,0.569679466562621
"934",17,21,1,1,214,3,1,1,3,0.977715282482795,0.983435213728032
"935",17,33,1,1,215,3,1,1,3,0.618202259872045,0.612427129112562
"936",17,20,1,1,216,2,1,1,4,0.577645157654629,0.571954780917617
"937",17,22,1,2,217,1,2,1,5,0.400861059972731,0.425021490908638
"938",17,20,1,1,218,3,1,1,2,0.760602328025268,0.734253068002212
"939",17,25,1,1,219,1,2,0,4,0.522440468927163,0.596157959686652
"940",17,31,1,2,220,2,2,1,3,0.569026898448164,0.579169658593835
"941",17,37,1,1,221,1,2,0,3,0.390064047237647,0.417801012189679
"942",17,30,1,2,222,1,2,1,5,0.373866841252917,0.324731892068815
"943",17,39,1,2,223,1,2,1,4,0.358106720743706,0.39264436283428
"944",17,21,1,2,224,2,2,1,4,0.535653838724489,0.560659812379662
"945",17,33,1,2,225,2,1,0,3,0.651918134525889,0.77395446586023
"946",17,20,1,2,226,1,2,1,5,0.458240749819599,0.50285861063162
"947",17,22,1,2,227,3,1,0,1,1.61195287249176,1.68720551746044
"948",17,20,1,1,228,2,1,1,4,0.672448582723093,0.648935579794422
"949",17,25,1,2,229,2,1,0,3,0.169467194151346,0.146753334536654
"950",17,31,1,2,230,1,2,1,5,0.411554877535441,0.480554645095453
"951",17,37,1,1,231,1,1,1,4,0.451309087739514,0.367841758248502
"952",17,30,1,1,232,3,1,1,2,0.709824237996904,0.744677108039115
"953",17,39,1,1,233,1,1,1,5,0.295002098705115,0.363115870934407
"954",17,21,1,1,234,1,1,1,5,0.434029839952006,0.369061002710501
"955",17,33,1,1,235,2,2,0,2,0.501897728445414,0.466195944739053
"956",17,20,1,1,236,1,1,1,4,0.429832112033326,0.376879033106128
"957",17,22,1,1,237,1,1,1,5,0.327206253886356,0.25963784308298
"958",17,20,1,1,238,2,2,0,2,0.685037828591094,0.723079489869031
"959",17,25,1,1,239,2,1,1,3,0.585498821126212,0.536413611382026
"960",17,31,1,1,240,1,1,1,4,0.364914874573991,0.355705053034917
"961",16,23,2,2,1,3,2,1,3,0.571775487489231,0.615912918223546
"962",16,31,2,1,2,3,2,0,2,1.42551744678311,1.34457793058396
"963",16,34,2,2,3,3,1,0,1,1.226817579567,1.20900647047412
"964",16,37,2,2,4,3,1,0,2,1.0997667471299,1.12052535921278
"965",16,26,2,1,5,3,2,0,2,1.0613945223487,1.1702977979995
"966",16,24,2,1,6,2,1,1,3,0.596385055455093,0.575579156625424
"967",16,22,2,2,7,2,1,0,2,0.445823833608925,0.44701484198564
"968",16,40,2,1,8,2,1,1,4,0.505210197307005,0.517090724774143
"969",16,25,2,1,9,2,1,1,3,0.654160794174586,0.581125730053701
"970",16,34,2,2,10,3,1,0,1,1.30540950788014,1.35546255974162
"971",16,23,2,2,11,1,2,1,5,0.383213585280867,0.414029884643334
"972",16,31,2,2,12,3,1,0,2,0.733046366413291,0.735905753891831
"973",16,34,2,2,13,2,2,1,3,0.767090025522118,0.749951445342085
"974",16,37,2,2,14,3,2,1,2,0.96105282186542,0.965835877858286
"975",16,26,2,2,15,1,2,1,5,0.435683343487977,0.392037497326164
"976",16,24,2,2,16,1,2,1,4,0.437192808815089,0.418465845104083
"977",16,22,2,2,17,1,2,1,4,0.404827491521439,0.375427613718292
"978",16,40,2,1,18,2,1,1,4,0.556972824693092,0.551448219773993
"979",16,25,2,1,19,2,2,0,2,0.623379074969989,0.579640155530531
"980",16,34,2,2,20,3,2,1,2,0.721655246370749,0.59081256780566
"981",16,23,2,1,21,3,1,1,2,0.542309795684505,0.607167838132435
"982",16,31,2,1,22,3,1,1,3,0.810435734446952,0.871085734291154
"983",16,34,2,2,23,1,1,0,3,0.503852491332699,0.513729176417373
"984",16,37,2,2,24,2,1,0,2,0.699330517773224,0.714739779912289
"985",16,26,2,1,25,2,2,0,3,0.805459862296424,0.88516433342639
"986",16,24,2,1,26,1,1,1,4,0.459284934878356,0.473107106391437
"987",16,22,2,1,27,1,2,0,3,0.640130323336675,0.684142211678441
"988",16,40,2,1,28,3,1,1,3,0.427638124057225,0.508183315604797
"989",16,25,2,2,29,1,2,1,4,0.444883042875464,0.449112445509177
"990",16,34,2,2,30,2,1,0,2,0.737593094551342,0.701554801939074
"991",16,23,2,2,31,2,2,1,3,0.652343530302887,0.692528176117188
"992",16,31,2,1,32,1,1,1,5,0.334645851711645,0.338950515448546
"993",16,34,2,1,33,1,1,1,4,0.354120530960244,0.424952266336295
"994",16,37,2,2,34,1,1,0,3,0.49903904127409,0.495101683714517
"995",16,26,2,2,35,1,2,1,5,0.450121797361222,0.35479202284055
"996",16,24,2,2,36,3,1,0,2,0.814484217777623,0.820702374828764
"997",16,22,2,1,37,2,2,0,2,0.66739945999663,0.750018244668806
"998",16,40,2,1,38,1,1,1,5,0.498546420444739,0.464239636455483
"999",16,25,2,2,39,3,1,0,2,0.451364369992772,0.473326844018446
"1000",16,34,2,2,40,1,2,1,5,0.60817718219166,0.44571454505501
"1001",16,23,2,2,41,1,1,0,4,0.49404296768692,0.442176008493802
"1002",16,31,2,1,42,3,1,1,3,0.983227653977609,1.02127342205208
"1003",16,34,2,1,43,2,1,1,4,0.433094498791652,0.440921837774012
"1004",16,37,2,2,44,1,2,1,5,0.358680661143806,0.301554452544688
"1005",16,26,2,2,45,3,2,1,2,0.632271152101262,0.632530057884764
"1006",16,24,2,1,46,3,2,0,1,1.42075953110119,1.4023318141312
"1007",16,22,2,1,47,1,1,1,4,0.390173579081167,0.443250193741917
"1008",16,40,2,1,48,2,1,1,4,0.47467114418032,0.554361402074025
"1009",16,25,2,1,49,3,2,0,2,1.10942225496127,1.12809170936556
"1010",16,34,2,2,50,2,2,1,4,0.462945381293339,0.526831478178831
"1011",16,23,2,1,51,1,1,1,4,0.475206276958157,0.516159023839174
"1012",16,31,2,2,52,3,2,1,2,1.04619833547253,1.03359773293403
"1013",16,34,2,2,53,1,2,1,4,0.433460735128723,0.408506002629023
"1014",16,37,2,1,54,3,1,1,3,0.791445101230773,0.705343360822699
"1015",16,26,2,2,55,1,1,0,3,0.776119863406876,0.783432547201985
"1016",16,24,2,2,56,1,2,1,4,0.32447685164256,0.374408716959648
"1017",16,22,2,1,57,1,1,1,4,0.375092163504112,0.410163048728564
"1018",16,40,2,2,58,2,2,1,3,0.692273778526611,0.731219639053608
"1019",16,25,2,2,59,3,2,1,3,0.791872302223317,0.822981305240645
"1020",16,34,2,1,60,1,1,1,4,0.385070524492737,0.425984573924616
"1021",16,23,2,2,61,2,2,1,3,0.598006613813432,0.597437894842127
"1022",16,31,2,1,62,3,1,1,2,0.871475797232685,0.819806374476199
"1023",16,34,2,2,63,3,1,0,2,1.1749021841987,1.1419880929452
"1024",16,37,2,1,64,2,1,1,3,0.699190993070674,0.683494367250617
"1025",16,26,2,1,65,1,1,1,5,0.432343255672905,0.420532341707221
"1026",16,24,2,1,66,3,1,1,2,0.764305098933713,0.855532051146615
"1027",16,22,2,2,67,2,1,0,2,0.905049864359047,0.913267803409465
"1028",16,40,2,1,68,3,1,1,2,0.766207150484264,0.746274100839746
"1029",16,25,2,1,69,2,1,1,4,0.611774643543071,0.565644334811961
"1030",16,34,2,2,70,2,1,0,2,0.8529697104136,0.908411238606175
"1031",16,23,2,2,71,2,2,1,4,0.678615842369157,0.724664852766667
"1032",16,31,2,2,72,3,2,1,3,1.34145926860453,1.32505457803808
"1033",16,34,2,1,73,2,2,0,2,0.754081756564491,0.746382725237002
"1034",16,37,2,2,74,3,2,1,2,0.728139954610851,0.664773527807958
"1035",16,26,2,2,75,1,2,1,5,0.370600938272102,0.313091518279144
"1036",16,24,2,1,76,2,2,0,2,0.484531299103236,0.448622815070155
"1037",16,22,2,1,77,1,1,1,5,0.429851647389031,0.444708617480328
"1038",16,40,2,1,78,2,2,0,2,0.809142069030247,0.885741604746355
"1039",16,25,2,2,79,1,2,1,4,0.483958563301356,0.527413613243549
"1040",16,34,2,2,80,3,1,0,2,0.740276778415283,0.738477880547362
"1041",16,23,2,2,81,1,2,1,5,0.430998870585116,0.463229053587992
"1042",16,31,2,2,82,1,2,1,4,0.484403469173573,0.506936963040835
"1043",16,34,2,1,83,2,2,0,3,0.544511097713625,0.50308666243227
"1044",16,37,2,2,84,2,2,1,4,0.758262062642267,0.732188896185467
"1045",16,26,2,1,85,1,1,1,4,0.404528017327112,0.400228557536145
"1046",16,24,2,1,86,3,1,1,2,0.758767941965602,0.777456935756211
"1047",16,22,2,1,87,1,2,0,4,0.727815023367514,0.770699201691189
"1048",16,40,2,1,88,3,1,1,2,0.914812672664397,0.886616581516938
"1049",16,25,2,1,89,1,1,1,4,0.468292684188046,0.524417734283958
"1050",16,34,2,2,90,1,2,1,4,0.444716649816192,0.521965118912275
"1051",16,23,2,1,91,1,1,1,4,0.459483595079655,0.506047728123058
"1052",16,31,2,1,92,2,1,1,4,0.698325308241163,0.609379189299574
"1053",16,34,2,2,93,2,1,0,3,0.846855318658979,0.883783067336613
"1054",16,37,2,2,94,3,2,1,2,0.918925996290041,0.839717900460147
"1055",16,26,2,2,95,3,1,0,2,0.88558498710002,0.844080593838908
"1056",16,24,2,1,96,2,1,1,3,0.498645340187118,0.42742698834487
"1057",16,22,2,2,97,2,2,1,4,0.60754812999192,0.605446708396467
"1058",16,40,2,1,98,3,2,0,1,1.20648514609414,1.24865215541915
"1059",16,25,2,1,99,3,1,1,3,1.2260902371177,1.20562482751322
"1060",16,34,2,1,100,2,1,1,3,0.457826127349963,0.420720549878046
"1061",16,23,2,2,101,2,2,1,4,0.425150300148583,0.421955048645644
"1062",16,31,2,2,102,3,2,1,3,0.753500606557177,0.658499223152383
"1063",16,34,2,1,103,2,2,0,3,0.702256627856924,0.745605917954456
"1064",16,37,2,1,104,1,2,0,4,0.647893993510909,0.608803751346239
"1065",16,26,2,1,105,1,2,0,4,0.607482462562781,0.573467162417526
"1066",16,24,2,2,106,3,1,0,1,1.267798767757,1.34680939847881
"1067",16,22,2,1,107,3,1,1,3,0.717402947415567,0.703619154982604
"1068",16,40,2,1,108,1,1,1,4,0.358138427956275,0.398463486295048
"1069",16,25,2,2,109,3,1,0,1,0.803078609821418,0.884367657088314
"1070",16,34,2,1,110,1,1,1,4,0.360697090847192,0.370427815172573
"1071",16,23,2,2,111,2,2,1,3,0.660204717834242,0.663878368114772
"1072",16,31,2,2,112,2,2,1,4,0.377574884931798,0.31228536002371
"1073",16,34,2,2,113,2,1,0,3,0.616426670319106,0.596666565442457
"1074",16,37,2,1,114,1,1,1,5,0.489187054500539,0.498574743643422
"1075",16,26,2,1,115,3,2,0,2,0.831349550830137,0.934359024029753
"1076",16,24,2,1,116,1,1,1,4,0.453649502894803,0.461481901399971
"1077",16,22,2,2,117,3,2,1,3,0.575286654485389,0.565696441559764
"1078",16,40,2,1,118,2,1,1,3,0.693379346790313,0.679566800728501
"1079",16,25,2,2,119,2,2,1,4,0.637012050182595,0.565359144261441
"1080",16,34,2,1,120,2,1,1,3,0.618114517696247,0.591081958537769
"1081",16,23,2,2,121,1,2,1,5,0.501809492242868,0.447278877708179
"1082",16,31,2,2,122,3,1,0,2,1.00851101522057,1.06780310132108
"1083",16,34,2,1,123,2,1,1,4,0.521674091589682,0.608541697102508
"1084",16,37,2,1,124,3,2,0,1,1.13430480160144,1.11823767293929
"1085",16,26,2,2,125,2,2,1,4,0.489233113927372,0.509525176975459
"1086",16,24,2,1,126,2,2,0,2,0.53178585772523,0.444622027413929
"1087",16,22,2,1,127,1,1,1,5,0.380057403483739,0.275479589686507
"1088",16,40,2,1,128,2,2,0,3,0.518770215323218,0.468113377194598
"1089",16,25,2,1,129,1,1,1,5,0.223753268051493,0.248494022693402
"1090",16,34,2,2,130,3,1,0,2,0.603567441148656,0.577776958631412
"1091",16,23,2,1,131,2,1,1,4,0.46598690982852,0.570959202126874
"1092",16,31,2,1,132,3,2,0,2,1.15036327377177,1.16219861828972
"1093",16,34,2,1,133,3,1,1,2,1.03925229796704,1.08238919969495
"1094",16,37,2,1,134,1,2,0,4,0.594501069129587,0.559693654562928
"1095",16,26,2,2,135,3,2,1,2,0.614163642673432,0.641507873577918
"1096",16,24,2,2,136,2,2,1,4,0.630954779993955,0.684264068306778
"1097",16,22,2,2,137,3,1,0,1,1.70967033845855,1.71819733300398
"1098",16,40,2,2,138,1,2,1,5,0.28349278899389,0.139100419130156
"1099",16,25,2,2,139,1,1,0,3,0.521877923863943,0.539929929763484
"1100",16,34,2,2,140,1,2,1,4,0.42830329595067,0.481504149817609
"1101",16,23,2,2,141,2,1,0,3,1.00810419951772,1.06503522427357
"1102",16,31,2,2,142,3,1,0,1,1.05683122844833,1.08033860756042
"1103",16,34,2,2,143,3,1,0,2,1.03276739565707,1.05508524010393
"1104",16,37,2,2,144,1,1,0,3,0.565193207719509,0.627568200964884
"1105",16,26,2,2,145,3,2,1,3,0.820103762476838,0.793070512692959
"1106",16,24,2,2,146,1,2,1,5,0.389763305771167,0.395599128703477
"1107",16,22,2,2,147,1,2,1,4,0.319458851746511,0.346361837857608
"1108",16,40,2,2,148,2,2,1,3,0.679612396596027,0.698848944266735
"1109",16,25,2,2,149,1,2,1,4,0.503289871613373,0.490785742884065
"1110",16,34,2,2,150,3,2,1,2,0.816280009195836,0.83904830637983
"1111",16,23,2,1,151,2,1,1,4,0.687792037653346,0.676373111573857
"1112",16,31,2,1,152,1,2,0,3,0.539561487640943,0.572614341768963
"1113",16,34,2,2,153,2,2,1,4,0.63934279803486,0.58315335529607
"1114",16,37,2,1,154,3,1,1,3,0.824751597411209,0.838190444673893
"1115",16,26,2,2,155,2,1,0,3,0.719570454178777,0.719458614378814
"1116",16,24,2,1,156,2,2,0,3,0.773942878500302,0.758865192855887
"1117",16,22,2,1,157,1,1,1,5,0.406920186209536,0.466393996895594
"1118",16,40,2,2,158,3,1,0,1,1.90922546389849,1.87977563909891
"1119",16,25,2,1,159,1,1,1,5,0.421782769054211,0.371945687761522
"1120",16,34,2,2,160,2,1,0,3,1.03889704962425,1.01903160128836
"1121",16,23,2,1,161,2,1,1,4,0.479045525953806,0.559356750539131
"1122",16,31,2,1,162,3,1,1,3,0.851684865625793,0.758464905263095
"1123",16,34,2,1,163,1,2,0,4,0.39754383062063,0.351859807485545
"1124",16,37,2,1,164,1,1,1,5,0.350134043977637,0.37005054056885
"1125",16,26,2,2,165,3,1,0,2,1.01282702732851,0.989073046182582
"1126",16,24,2,1,166,3,1,1,3,0.73386462848792,0.765511055692275
"1127",16,22,2,1,167,2,2,0,3,0.684742562523779,0.662927489532407
"1128",16,40,2,1,168,2,1,1,4,0.652399727462434,0.645354025812734
"1129",16,25,2,2,169,3,1,0,1,1.41836545055196,1.45941031035035
"1130",16,34,2,1,170,3,2,0,2,1.07122330704148,0.992159688507503
"1131",16,23,2,2,171,2,2,1,3,0.654257282137122,0.640384258383203
"1132",16,31,2,1,172,1,1,1,5,0.367394361750469,0.358956734489302
"1133",16,34,2,2,173,3,1,0,2,0.951255915188255,0.9380588510334
"1134",16,37,2,2,174,1,2,1,4,0.498277849313378,0.411633286754662
"1135",16,26,2,2,175,2,2,1,4,0.485106465743329,0.449346514019362
"1136",16,24,2,2,176,2,2,1,4,0.670731977504047,0.683916452913648
"1137",16,22,2,2,177,3,1,0,2,0.527358724936395,0.520080996760853
"1138",16,40,2,2,178,1,2,1,5,0.338526015787775,0.406455286991004
"1139",16,25,2,1,179,3,1,1,3,0.582485223095156,0.6222141055318
"1140",16,34,2,2,180,1,2,1,5,0.397629073876368,0.354385432704601
"1141",16,23,2,2,181,1,2,1,4,0.534402306244723,0.451922615592966
"1142",16,31,2,1,182,1,2,0,4,0.485009985491732,0.441507969257265
"1143",16,34,2,1,183,1,1,1,4,0.395063328948029,0.446679168766984
"1144",16,37,2,1,184,2,1,1,4,0.782719192923513,0.776198875182972
"1145",16,26,2,1,185,1,1,1,4,0.255947585285277,0.260391811961516
"1146",16,24,2,1,186,2,2,0,2,0.763827905852926,0.698209587335705
"1147",16,22,2,1,187,2,2,0,3,0.96177766456694,0.994402238220909
"1148",16,40,2,2,188,1,1,0,4,0.63206287123504,0.539817231754676
"1149",16,25,2,1,189,1,1,1,4,0.395122362848691,0.37493430512591
"1150",16,34,2,1,190,1,1,1,5,0.482810719150406,0.548554889722389
"1151",16,23,2,1,191,2,2,0,3,0.444294849708819,0.336593518198555
"1152",16,31,2,2,192,1,2,1,4,0.591211295481819,0.64721804740502
"1153",16,34,2,2,193,2,1,0,3,0.655346252992032,0.698104624436243
"1154",16,37,2,1,194,3,2,0,1,0.849995209231931,0.868780516516034
"1155",16,26,2,2,195,3,2,1,3,0.710231308720537,0.793122236793556
"1156",16,24,2,2,196,3,1,0,1,0.955105158212377,0.877970025397345
"1157",16,22,2,1,197,3,2,0,2,0.806098653475367,0.766536125100327
"1158",16,40,2,1,198,2,2,0,2,0.764747180774752,0.749699176867389
"1159",16,25,2,1,199,2,2,0,2,0.620514241198722,0.662786121474812
"1160",16,34,2,2,200,2,1,0,2,0.660941970191526,0.654193427176276
"1161",16,23,2,2,201,2,2,1,3,0.516555215941867,0.515849982420287
"1162",16,31,2,2,202,3,1,0,2,0.868162245309484,0.832600339427623
"1163",16,34,2,1,203,2,1,1,3,0.807316283596983,0.786249626609089
"1164",16,37,2,2,204,2,1,0,3,0.822508650618521,0.864056156887058
"1165",16,26,2,2,205,3,1,0,2,1.25085204269776,1.23480994107913
"1166",16,24,2,2,206,2,1,0,2,0.638773539851572,0.621728216873489
"1167",16,22,2,1,207,1,1,1,4,0.463544102119545,0.437718233036981
"1168",16,40,2,1,208,1,1,1,5,0.298837693664294,0.368886461688457
"1169",16,25,2,1,209,3,1,1,3,1.0265190846744,1.07472473662713
"1170",16,34,2,1,210,1,1,1,4,0.383466455099768,0.328319183962725
"1171",16,23,2,2,211,1,2,1,4,0.600979707318716,0.644419666358982
"1172",16,31,2,1,212,3,2,0,2,0.553787515084616,0.497465641746261
"1173",16,34,2,2,213,3,2,1,3,0.968379711540569,0.970777831838731
"1174",16,37,2,1,214,1,2,0,4,0.557241907459931,0.63048006053089
"1175",16,26,2,1,215,2,1,1,3,0.670346571849597,0.589220878391475
"1176",16,24,2,1,216,3,1,1,2,0.642701970791989,0.727102220906216
"1177",16,22,2,1,217,2,1,1,3,0.757682044906611,0.805026389006096
"1178",16,40,2,2,218,1,2,1,5,0.389684130317722,0.35393207783914
"1179",16,25,2,1,219,2,1,1,4,0.639703174778673,0.611810640984404
"1180",16,34,2,2,220,2,2,1,4,0.72047224517856,0.691215193236085
"1181",16,23,2,1,221,1,1,1,5,0.397902381518028,0.449653790055929
"1182",16,31,2,1,222,1,1,1,5,0.356140849426501,0.342967018141355
"1183",16,34,2,2,223,2,2,1,3,0.582172107723675,0.5507122361156
"1184",16,37,2,1,224,3,1,1,3,0.535591833697537,0.563850149879569
"1185",16,26,2,2,225,3,2,1,2,0.62459113319908,0.642043454258657
"1186",16,24,2,2,226,3,1,0,2,1.71813967399327,1.64117277654529
"1187",16,22,2,1,227,3,2,0,2,1.50642119272891,1.51131305278432
"1188",16,40,2,1,228,3,1,1,2,0.647651052047744,0.659895630700563
"1189",16,25,2,2,229,2,2,1,3,0.657641068760213,0.665660762647678
"1190",16,34,2,2,230,2,2,1,4,0.632771455101681,0.595775961907752
"1191",16,23,2,2,231,3,1,0,2,1.38358117370608,1.36513858028809
"1192",16,31,2,1,232,1,1,1,5,0.453478436527745,0.561041542701106
"1193",16,34,2,2,233,1,2,1,4,0.518797659600891,0.584701438384642
"1194",16,37,2,2,234,3,1,0,2,1.01326409911117,0.957218130305576
"1195",16,26,2,1,235,3,2,0,2,1.1937407182356,1.24162571422276
"1196",16,24,2,1,236,3,2,0,1,1.05670337795575,1.05649230570812
"1197",16,22,2,2,237,1,1,0,3,0.419866336722125,0.397704693616136
"1198",16,40,2,1,238,1,1,1,5,0.471930544199626,0.456128538788396
"1199",16,25,2,2,239,2,1,0,3,0.72342529860203,0.733404183083267
"1200",16,34,2,1,240,2,1,1,4,0.641900958000729,0.6364349778015
"1201",15,34,1,2,1,2,1,0,2,0.624847029734484,0.59268992863748
"1202",15,31,1,1,2,2,1,1,3,0.384542970092436,0.308839469829842
"1203",15,25,1,1,3,3,2,0,2,0.955308240036842,0.962654047455321
"1204",15,28,1,2,4,1,2,1,4,0.38470014061519,0.413581937269268
"1205",15,39,1,2,5,2,1,0,3,0.906828043752625,0.805953979614155
"1206",15,32,1,2,6,1,2,1,4,0.461397586712439,0.447971682353053
"1207",15,25,1,1,7,1,1,1,4,0.511813233016276,0.576838327506783
"1208",15,26,1,1,8,3,2,0,1,0.891683678065202,0.84947195984577
"1209",15,18,1,2,9,2,2,1,3,0.556983253130506,0.473117531907904
"1210",15,23,1,2,10,2,2,1,4,0.693697714634829,0.697933977432065
"1211",15,34,1,1,11,2,1,1,4,0.909239105959382,0.894993306144298
"1212",15,31,1,2,12,1,1,0,4,0.571461676897537,0.658381661383728
"1213",15,25,1,2,13,1,1,0,4,0.533568835206532,0.508108269690842
"1214",15,28,1,2,14,3,1,0,1,1.2299390087579,1.18282159601063
"1215",15,39,1,2,15,3,1,0,2,0.615154320095988,0.678193975733758
"1216",15,32,1,2,16,1,2,1,4,0.462189173178206,0.422824798920551
"1217",15,25,1,1,17,2,2,0,3,0.458915873318793,0.48824226709843
"1218",15,26,1,1,18,3,1,1,3,0.451987179496541,0.448690683565762
"1219",15,18,1,2,19,1,2,1,5,0.324009921753908,0.34120616650123
"1220",15,23,1,2,20,2,1,0,2,0.495868020571645,0.598783097372363
"1221",15,34,1,1,21,1,2,0,3,0.534499151287718,0.552148340312707
"1222",15,31,1,1,22,1,1,1,5,0.422235025815462,0.486034017374946
"1223",15,25,1,2,23,3,1,0,1,0.728756101885601,0.720279096987106
"1224",15,28,1,1,24,1,1,1,4,0.502132194248776,0.529860678635943
"1225",15,39,1,1,25,3,2,0,2,0.818397513441663,0.865829543929378
"1226",15,32,1,2,26,2,2,1,4,0.575986371863941,0.538913094720348
"1227",15,25,1,2,27,1,2,1,4,0.311063043877377,0.358329595672093
"1228",15,26,1,1,28,3,1,1,3,0.740186949836283,0.792220150569771
"1229",15,18,1,2,29,2,2,1,4,0.801940986196282,0.83758097777099
"1230",15,23,1,1,30,1,1,1,5,0.485265629222263,0.598248399489761
"1231",15,34,1,1,31,1,1,1,4,0.264497551138744,0.315318421821948
"1232",15,31,1,1,32,1,1,1,4,0.292226516896807,0.309289353790558
"1233",15,25,1,1,33,2,2,0,3,0.599681360713334,0.635355032158446
"1234",15,28,1,1,34,3,1,1,2,0.457902145962814,0.387955486622995
"1235",15,39,1,2,35,2,2,1,4,0.431532398052566,0.466760465986695
"1236",15,32,1,2,36,2,1,0,3,0.76251789828514,0.73217931288685
"1237",15,25,1,2,37,3,1,0,2,1.35213699720827,1.38013204457976
"1238",15,26,1,2,38,1,2,1,4,0.52018260679378,0.469292228871417
"1239",15,18,1,1,39,2,1,1,4,0.56608036803077,0.538502991164621
"1240",15,23,1,1,40,2,2,0,3,0.527006787781084,0.531116851324621
"1241",15,34,1,1,41,2,2,0,2,1.0070994508407,0.997464529509816
"1242",15,31,1,1,42,1,1,1,4,0.386510695312257,0.394469632214098
"1243",15,25,1,1,43,2,1,1,3,0.5887120713502,0.583509235761597
"1244",15,28,1,1,44,1,1,1,4,0.495035043578132,0.445423559488067
"1245",15,39,1,1,45,3,2,0,1,1.39905911295366,1.33243933588077
"1246",15,32,1,1,46,1,2,0,4,0.611308993764046,0.614629818917236
"1247",15,25,1,2,47,3,1,0,2,0.703773699603792,0.659033274298695
"1248",15,26,1,2,48,1,2,1,4,0.362604630423952,0.338667245493198
"1249",15,18,1,2,49,2,2,1,4,0.599729129073286,0.564245401335048
"1250",15,23,1,1,50,1,1,1,5,0.416691792938286,0.363591814490329
"1251",15,34,1,2,51,2,1,0,3,0.569422729602822,0.55045243063136
"1252",15,31,1,1,52,3,1,1,2,0.221256793897079,0.150049204467628
"1253",15,25,1,2,53,3,1,0,1,1.36985670849528,1.35357997597014
"1254",15,28,1,1,54,2,1,1,4,0.771034767923941,0.710794070480783
"1255",15,39,1,2,55,2,2,1,3,0.703923221844001,0.738005812518765
"1256",15,32,1,2,56,1,2,1,5,0.370297309048556,0.273089604192449
"1257",15,25,1,2,57,2,2,1,4,0.517940567557657,0.534538147340621
"1258",15,26,1,2,58,3,1,0,1,1.09214959225691,1.11743175829516
"1259",15,18,1,2,59,1,2,1,4,0.481172468149433,0.485209549933531
"1260",15,23,1,2,60,1,2,1,4,0.287815224206739,0.336596013322463
"1261",15,34,1,1,61,3,2,0,2,1.24014177743338,1.23453086258103
"1262",15,31,1,2,62,2,1,0,2,0.676725094977058,0.609065843272625
"1263",15,25,1,1,63,3,1,1,2,0.961887139273886,0.986916638148552
"1264",15,28,1,1,64,3,2,0,2,0.800115635620089,0.780470413758878
"1265",15,39,1,1,65,1,1,1,4,0.292000500995376,0.271339641946361
"1266",15,32,1,1,66,2,1,1,4,0.663555788802665,0.621003714666164
"1267",15,25,1,1,67,2,1,1,3,0.583335241739718,0.603847326140076
"1268",15,26,1,1,68,1,1,1,5,0.522437723106748,0.606324721017353
"1269",15,18,1,1,69,3,1,1,2,1.00180149642248,0.982562252371067
"1270",15,23,1,2,70,3,2,1,2,0.808522158363261,0.784722661559129
"1271",15,34,1,1,71,2,2,0,3,1.00640551216103,0.996102303450829
"1272",15,31,1,2,72,1,2,1,5,0.430991986227688,0.382165629919167
"1273",15,25,1,1,73,3,2,0,2,0.777707076667128,0.88532983450817
"1274",15,28,1,2,74,1,2,1,5,0.475169892170199,0.427362050581189
"1275",15,39,1,1,75,1,2,0,4,0.610623690486665,0.572079734134028
"1276",15,32,1,2,76,3,1,0,1,0.645695322929919,0.655237555940321
"1277",15,25,1,1,77,3,2,0,2,0.873061010985808,0.871471426038728
"1278",15,26,1,1,78,3,2,0,1,1.36415585915688,1.34822249230342
"1279",15,18,1,2,79,1,2,1,4,0.446209052508267,0.450884780013513
"1280",15,23,1,2,80,3,1,0,2,1.1827847503098,1.20127420846063
"1281",15,34,1,2,81,1,2,1,5,0.418180299080938,0.42064891973676
"1282",15,31,1,2,82,1,2,1,5,0.328495069005,0.307774898347724
"1283",15,25,1,2,83,3,1,0,2,0.939584630966516,1.02941537864682
"1284",15,28,1,2,84,2,1,0,3,0.567266320961787,0.621489886827046
"1285",15,39,1,2,85,3,2,1,2,0.637450709004525,0.55777016205213
"1286",15,32,1,1,86,1,2,0,4,0.517756409258417,0.561649368307827
"1287",15,25,1,2,87,2,2,1,3,0.469842735438137,0.445473719031137
"1288",15,26,1,1,88,2,1,1,4,0.60527770471513,0.585583598076468
"1289",15,18,1,1,89,1,1,1,4,0.514931310930766,0.568973936443194
"1290",15,23,1,2,90,1,2,1,5,0.483307259259796,0.475255008763192
"1291",15,34,1,2,91,1,2,1,5,0.372358769766662,0.354972439194338
"1292",15,31,1,2,92,3,1,0,2,1.19022021322689,1.26540933514485
"1293",15,25,1,1,93,1,1,1,5,0.38225712128152,0.308874853315201
"1294",15,28,1,2,94,1,1,0,4,0.494792308720234,0.468882540304469
"1295",15,39,1,2,95,1,2,1,4,0.404719020094195,0.327227154335247
"1296",15,32,1,2,96,2,2,1,3,0.679390650152235,0.686146848908079
"1297",15,25,1,2,97,3,1,0,2,1.09190766265634,1.16536527824908
"1298",15,26,1,1,98,2,2,0,3,0.838863947037633,0.852819696381014
"1299",15,18,1,1,99,3,2,0,1,0.824419012372341,0.868090146123092
"1300",15,23,1,2,100,3,1,0,1,0.601763047714695,0.675732207347225
"1301",15,34,1,2,101,3,2,1,3,0.727655867387032,0.715789100017251
"1302",15,31,1,1,102,2,2,0,2,0.471302471667245,0.560203329538022
"1303",15,25,1,2,103,2,1,0,2,0.62171365182376,0.541497263439311
"1304",15,28,1,1,104,2,1,1,4,0.400126913608917,0.362990605221329
"1305",15,39,1,1,105,3,1,1,2,0.711165179380797,0.725982953392196
"1306",15,32,1,2,106,2,1,0,2,0.612491012664505,0.510753628024024
"1307",15,25,1,2,107,1,1,0,4,0.398385442846964,0.291541739983267
"1308",15,26,1,2,108,3,1,0,2,0.959968323556133,0.929416081245371
"1309",15,18,1,1,109,1,1,1,5,0.410737445747423,0.405066367591438
"1310",15,23,1,2,110,2,2,1,4,0.682439282015223,0.676434530399023
"1311",15,34,1,2,111,2,2,1,4,0.53550479967097,0.485230287702929
"1312",15,31,1,2,112,2,1,0,3,0.739398639976458,0.779476732003556
"1313",15,25,1,1,113,3,2,0,2,0.762119091279564,0.801255337011064
"1314",15,28,1,2,114,2,2,1,4,0.750750392438859,0.721141347538204
"1315",15,39,1,2,115,2,2,1,3,0.428463699873626,0.398734078973488
"1316",15,32,1,2,116,2,1,0,3,0.749184481261282,0.758896037171587
"1317",15,25,1,1,117,3,1,1,3,1.01218747865251,0.971430899400886
"1318",15,26,1,1,118,3,1,1,3,0.695604377656813,0.636437424746742
"1319",15,18,1,1,119,2,2,0,2,0.642730323785251,0.727557131536308
"1320",15,23,1,1,120,2,1,1,4,0.603696125686537,0.5285253572025
"1321",15,34,1,1,121,2,2,0,3,0.70915321015336,0.75264887913958
"1322",15,31,1,2,122,3,2,1,2,0.732801798092675,0.709622560191482
"1323",15,25,1,1,123,1,2,0,3,0.577308681288848,0.564482631100458
"1324",15,28,1,1,124,3,1,1,2,0.45123920016742,0.39420969342125
"1325",15,39,1,2,125,3,1,0,2,1.18270167562796,1.23773143766586
"1326",15,32,1,2,126,1,1,0,4,0.612609577011457,0.567750738116192
"1327",15,25,1,1,127,1,1,1,5,0.237541150699226,0.275199834552455
"1328",15,26,1,2,128,1,2,1,4,0.486186320805699,0.477965179520271
"1329",15,18,1,2,129,1,2,1,5,0.393396989221176,0.294896567738994
"1330",15,23,1,2,130,1,2,1,5,0.567243646021475,0.591945075061782
"1331",15,34,1,1,131,1,1,1,5,0.416523856303808,0.412436338439029
"1332",15,31,1,1,132,2,1,1,3,0.680146595956468,0.678195321553952
"1333",15,25,1,1,133,3,2,0,1,1.21088043201095,1.29963908929746
"1334",15,28,1,1,134,3,2,0,1,1.06529209478809,1.13640298982077
"1335",15,39,1,1,135,1,2,0,4,0.618394184940402,0.627756488855055
"1336",15,32,1,2,136,3,2,1,2,0.850849318384496,0.924948988262539
"1337",15,25,1,1,137,3,2,0,1,1.74476341865153,1.78361463748618
"1338",15,26,1,2,138,2,2,1,3,0.600586514966811,0.641429631338847
"1339",15,18,1,2,139,3,1,0,1,0.719685507037841,0.675521534262699
"1340",15,23,1,1,140,2,1,1,4,0.517833060578142,0.549696107498277
"1341",15,34,1,1,141,3,1,1,2,0.647489770737824,0.599232940636918
"1342",15,31,1,1,142,2,1,1,4,0.639264524130478,0.580750017538746
"1343",15,25,1,1,143,2,2,0,3,0.364001762279118,0.350990616105789
"1344",15,28,1,1,144,1,1,1,5,0.432382272129571,0.400016906243876
"1345",15,39,1,1,145,3,2,0,2,0.473282875251274,0.437015425630115
"1346",15,32,1,1,146,3,2,0,1,0.574163278246409,0.556440284683364
"1347",15,25,1,1,147,1,1,1,4,0.40145471612578,0.410050067438813
"1348",15,26,1,1,148,1,1,1,4,0.414301815748737,0.366431120524756
"1349",15,18,1,2,149,3,1,0,2,1.01462435790149,0.996715513219776
"1350",15,23,1,2,150,3,1,0,1,1.11753678402594,1.04274702027794
"1351",15,34,1,1,151,2,1,1,4,0.67608036617307,0.716576394101619
"1352",15,31,1,1,152,1,1,1,5,0.420837361237565,0.370611528382061
"1353",15,25,1,1,153,1,1,1,5,0.448247016199953,0.44923445588714
"1354",15,28,1,1,154,1,2,0,4,0.677644882496547,0.741867090441836
"1355",15,39,1,2,155,1,2,1,4,0.308615664766805,0.377874504537823
"1356",15,32,1,2,156,2,1,0,2,0.682742821673286,0.766244376166392
"1357",15,25,1,1,157,3,2,0,2,1.54217239633135,1.49654847337422
"1358",15,26,1,1,158,1,1,1,4,0.446448105150032,0.481827761131414
"1359",15,18,1,2,159,3,2,1,2,0.92637682390828,0.926000677179089
"1360",15,23,1,2,160,1,1,0,3,0.57481784552329,0.609940877186553
"1361",15,34,1,2,161,2,1,0,2,0.719965507601044,0.704307667681081
"1362",15,31,1,2,162,1,2,1,5,0.425767037418206,0.48938687838632
"1363",15,25,1,1,163,2,1,1,4,0.691668933016796,0.659717603886908
"1364",15,28,1,2,164,2,1,0,3,0.63389690721956,0.550632545213393
"1365",15,39,1,1,165,1,2,0,3,0.588429479466745,0.647084588837714
"1366",15,32,1,2,166,1,2,1,5,0.405600554746318,0.475189437692519
"1367",15,25,1,1,167,3,2,0,1,1.16279564052266,1.18377404269785
"1368",15,26,1,2,168,1,2,1,5,0.488525566342378,0.488179056944899
"1369",15,18,1,2,169,3,2,1,3,0.722682727684455,0.722823982158007
"1370",15,23,1,2,170,2,2,1,3,0.598843820121551,0.537666271152873
"1371",15,34,1,2,171,3,2,1,2,0.931927643830176,0.89528931175485
"1372",15,31,1,1,172,2,1,1,3,0.64039011326335,0.629550459699676
"1373",15,25,1,2,173,2,2,1,4,0.478652863259659,0.497787881481421
"1374",15,28,1,1,174,3,2,0,1,1.44182539474825,1.56485887959912
"1375",15,39,1,2,175,3,2,1,2,0.505677345220421,0.499161455355191
"1376",15,32,1,1,176,2,1,1,4,0.508473964763236,0.48777025650341
"1377",15,25,1,2,177,3,2,1,2,0.831334434440672,0.768542120408968
"1378",15,26,1,1,178,3,1,1,3,0.689661527161898,0.642886858826069
"1379",15,18,1,2,179,3,1,0,2,1.06635616666492,1.06170170799637
"1380",15,23,1,1,180,3,1,1,2,0.72961680398648,0.777015568461888
"1381",15,34,1,1,181,2,1,1,3,0.295285224567901,0.280405176418218
"1382",15,31,1,1,182,2,2,0,2,0.833321089546502,0.827753838758924
"1383",15,25,1,1,183,3,1,1,3,0.669158217952384,0.60903796355709
"1384",15,28,1,2,184,2,2,1,3,0.544631395258853,0.653429413250776
"1385",15,39,1,1,185,3,1,1,2,0.552017213235914,0.512689480952038
"1386",15,32,1,1,186,2,1,1,4,0.482217699041378,0.469236334311437
"1387",15,25,1,1,187,2,1,1,3,0.761005056100936,0.76199627695129
"1388",15,26,1,2,188,3,2,1,2,0.809217253539028,0.882396516523189
"1389",15,18,1,1,189,3,2,0,2,1.08382580989202,1.03170815579217
"1390",15,23,1,2,190,1,2,1,4,0.340490253421221,0.317374833279375
"1391",15,34,1,2,191,3,2,1,2,0.856633435935637,0.864544817728942
"1392",15,31,1,1,192,1,1,1,4,0.311929455578994,0.379184919463352
"1393",15,25,1,2,193,1,1,0,4,0.538629372126974,0.616395100412436
"1394",15,28,1,1,194,1,2,0,4,0.545242546262126,0.52147192231559
"1395",15,39,1,2,195,1,1,0,4,0.599875277973464,0.523673934934355
"1396",15,32,1,2,196,2,1,0,2,0.520867623084909,0.494423399013978
"1397",15,25,1,1,197,2,2,0,3,0.568003872211231,0.597232382149992
"1398",15,26,1,2,198,2,2,1,3,0.759183523909645,0.766970266590013
"1399",15,18,1,1,199,2,2,0,3,0.839200051034304,0.74787360275787
"1400",15,23,1,2,200,3,2,1,3,0.669234053517767,0.679496938484343
"1401",15,34,1,1,201,1,1,1,4,0.218426333548115,0.235755691897313
"1402",15,31,1,2,202,1,2,1,5,0.448864487436469,0.448992830647801
"1403",15,25,1,2,203,2,2,1,4,0.538738983522091,0.596872092303486
"1404",15,28,1,2,204,1,2,1,4,0.382944036914085,0.337235674238897
"1405",15,39,1,1,205,2,2,0,3,0.512824779232641,0.531384361944906
"1406",15,32,1,1,206,3,1,1,2,0.719492212039827,0.68636774190847
"1407",15,25,1,1,207,3,2,0,2,1.13620598596193,1.12419981903823
"1408",15,26,1,2,208,3,1,0,2,0.849150295740364,0.840643290684292
"1409",15,18,1,2,209,1,2,1,4,0.366705916832122,0.395723252104474
"1410",15,23,1,2,210,2,1,0,2,0.203883314247602,0.234175486098214
"1411",15,34,1,1,211,2,2,0,2,0.953561716041103,0.857042495323791
"1412",15,31,1,2,212,3,1,0,2,1.27430323716611,1.23641963649004
"1413",15,25,1,2,213,3,2,1,3,0.995192685401546,0.947224518944684
"1414",15,28,1,2,214,2,1,0,2,0.894582883531078,0.953638133027314
"1415",15,39,1,1,215,1,1,1,4,0.491384285351402,0.516667136005394
"1416",15,32,1,1,216,1,1,1,5,0.411561454105526,0.370579820560405
"1417",15,25,1,2,217,2,2,1,3,0.284974290216688,0.307663157147279
"1418",15,26,1,1,218,2,1,1,4,0.663783250398531,0.691470582918685
"1419",15,18,1,2,219,2,2,1,3,0.254612956392688,0.224373796514014
"1420",15,23,1,2,220,2,1,0,3,0.92985469493718,1.01469172651785
"1421",15,34,1,2,221,1,1,0,3,0.483109619906382,0.425947467346624
"1422",15,31,1,1,222,1,1,1,5,0.399034299624653,0.337184472942341
"1423",15,25,1,1,223,2,2,0,2,0.851772085388866,0.882741639922577
"1424",15,28,1,1,224,3,1,1,3,0.730952706771038,0.753840110648543
"1425",15,39,1,1,225,3,2,0,1,0.574749484929041,0.511240528292099
"1426",15,32,1,2,226,3,1,0,2,1.66121270159057,1.56656738493915
"1427",15,25,1,2,227,3,2,1,2,0.755848755773997,0.813146506246636
"1428",15,26,1,2,228,1,1,0,4,0.506158719438557,0.467866481851362
"1429",15,18,1,1,229,1,1,1,5,0.468911339257934,0.478460780469023
"1430",15,23,1,1,230,1,1,1,5,0.473098797134378,0.474735172799053
"1431",15,34,1,1,231,1,1,1,4,0.417786410531361,0.410479899584516
"1432",15,31,1,2,232,1,2,1,5,0.490414878759692,0.549297321766329
"1433",15,25,1,2,233,3,1,0,2,0.838011945825075,0.827577671700924
"1434",15,28,1,1,234,2,1,1,4,0.734166138536067,0.791629654246074
"1435",15,39,1,2,235,2,2,1,4,0.661984243860816,0.625553439406913
"1436",15,32,1,1,236,2,1,1,3,0.605818320100489,0.538799912139724
"1437",15,25,1,1,237,3,2,0,2,1.04428195353378,1.17977970336747
"1438",15,26,1,2,238,3,2,1,3,0.865094206023618,0.874147845892859
"1439",15,18,1,1,239,3,2,0,1,1.11713858787646,1.12689280899675
"1440",15,23,1,1,240,1,1,1,5,0.474932746522666,0.413105854708627
"1441",14,34,2,2,1,2,1,0,3,0.676222163649528,0.686250377958745
"1442",14,22,2,2,2,3,1,0,2,1.46449202452015,1.50127345178408
"1443",14,20,2,1,3,1,2,0,4,0.737773064454582,0.710828100529507
"1444",14,28,2,2,4,2,1,0,2,0.505792833158553,0.546273691754599
"1445",14,33,2,1,5,1,1,1,4,0.533902326959933,0.581326689078307
"1446",14,36,2,2,6,3,2,1,2,0.4261041070099,0.436613049882128
"1447",14,19,2,1,7,1,2,0,3,0.451132965796705,0.479910537694296
"1448",14,35,2,1,8,1,1,1,4,0.321478022817468,0.376964089898471
"1449",14,23,2,1,9,2,1,1,3,0.632058043625546,0.707879958135527
"1450",14,24,2,2,10,2,2,1,3,0.39056347433689,0.336118812519525
"1451",14,34,2,2,11,2,2,1,3,0.670703413754894,0.71015591309994
"1452",14,22,2,2,12,3,1,0,1,0.55717089585579,0.596054362538989
"1453",14,20,2,1,13,2,1,1,4,0.636547540971471,0.68197122126585
"1454",14,28,2,1,14,3,1,1,3,1.04114288834397,1.07257614829396
"1455",14,33,2,2,15,3,2,1,3,0.817783931988472,0.764720705951985
"1456",14,36,2,1,16,2,1,1,3,0.329975233821,0.418932476593285
"1457",14,19,2,1,17,2,2,0,3,0.739409517664663,0.850211612427391
"1458",14,35,2,1,18,3,1,1,2,0.901358188781832,0.844063541432991
"1459",14,23,2,2,19,3,1,0,2,1.14294926670525,1.12464425007988
"1460",14,24,2,1,20,1,1,1,4,0.473371784058291,0.443718972586786
"1461",14,34,2,1,21,3,2,0,2,1.22870367877102,1.35139452491729
"1462",14,22,2,2,22,1,2,1,5,0.375958729245602,0.38589605470905
"1463",14,20,2,1,23,3,1,1,3,0.597993194397545,0.569604530067753
"1464",14,28,2,2,24,2,2,1,3,0.504198535686437,0.55104614870509
"1465",14,33,2,1,25,2,1,1,3,0.506872612187973,0.502458631455422
"1466",14,36,2,1,26,1,1,1,4,0.458025001991163,0.532961786022852
"1467",14,19,2,2,27,2,2,1,4,0.65692015921395,0.70746156178015
"1468",14,35,2,2,28,2,1,0,2,0.591397316324095,0.582942202615116
"1469",14,23,2,2,29,3,2,1,2,0.49566369251466,0.428695081696787
"1470",14,24,2,1,30,2,1,1,4,0.455372647421335,0.382292268197529
"1471",14,34,2,2,31,1,2,1,4,0.490531199310817,0.510397844201176
"1472",14,22,2,2,32,3,1,0,2,1.38728270286845,1.39845943259486
"1473",14,20,2,1,33,1,1,1,4,0.438904724182585,0.344050601468808
"1474",14,28,2,1,34,3,2,0,2,1.70632408328342,1.72415176158417
"1475",14,33,2,1,35,1,1,1,4,0.381582318919569,0.396947970377505
"1476",14,36,2,1,36,2,1,1,3,0.719379743711912,0.731801268512527
"1477",14,19,2,2,37,3,2,1,3,0.552974701476457,0.521961087313458
"1478",14,35,2,1,38,1,2,0,4,0.544046226372774,0.529067897908975
"1479",14,23,2,1,39,1,1,1,5,0.423151292584198,0.330737456965045
"1480",14,24,2,1,40,3,2,0,2,1.10394050776692,1.12938668155659
"1481",14,34,2,2,41,2,2,1,4,0.657031605950255,0.73095682660674
"1482",14,22,2,1,42,2,2,0,2,0.946381177045281,1.03386380083248
"1483",14,20,2,1,43,2,1,1,3,0.662117327195727,0.740976596620356
"1484",14,28,2,2,44,1,2,1,5,0.448931740017589,0.510304771369136
"1485",14,33,2,2,45,1,2,1,4,0.525590317721064,0.552454771721481
"1486",14,36,2,2,46,2,2,1,3,0.677976519141809,0.735579540503566
"1487",14,19,2,1,47,1,1,1,4,0.351003927150739,0.343716055167088
"1488",14,35,2,2,48,1,2,1,4,0.597591145998426,0.610706419923295
"1489",14,23,2,1,49,2,1,1,3,0.626175480935865,0.54269505541044
"1490",14,24,2,1,50,2,2,0,2,0.711379994311308,0.720944867304046
"1491",14,34,2,2,51,1,2,1,4,0.299028628939635,0.238354363510819
"1492",14,22,2,1,52,3,2,0,1,0.176879253978467,0.1170415379984
"1493",14,20,2,1,53,1,2,0,4,0.594022418343982,0.580154355387668
"1494",14,28,2,2,54,1,2,1,4,0.400890100058016,0.427887896233562
"1495",14,33,2,1,55,3,1,1,3,0.495162721236378,0.559369211928386
"1496",14,36,2,1,56,2,1,1,4,0.818727658754082,0.831957527046806
"1497",14,19,2,2,57,3,1,0,2,0.926451151187085,0.966102174220494
"1498",14,35,2,1,58,1,2,0,4,0.641854481378336,0.613030448499839
"1499",14,23,2,2,59,2,1,0,3,0.688970289114347,0.732763343177521
"1500",14,24,2,1,60,1,1,1,4,0.270447767095294,0.335570546387064
"1501",14,34,2,1,61,2,1,1,3,0.589569678327073,0.58940365517202
"1502",14,22,2,1,62,3,2,0,2,1.33898315443665,1.35089393773733
"1503",14,20,2,2,63,3,2,1,3,0.579181593088335,0.620010216514059
"1504",14,28,2,1,64,3,2,0,1,0.855081652915177,0.837543025795552
"1505",14,33,2,1,65,3,1,1,2,0.842608554260023,0.852703685207638
"1506",14,36,2,1,66,1,1,1,5,0.55436034363033,0.556121859254408
"1507",14,19,2,1,67,2,2,0,3,0.862174421815203,0.843993701635138
"1508",14,35,2,2,68,2,2,1,3,0.745501610962876,0.729356098400575
"1509",14,23,2,2,69,3,2,1,3,0.588599098607499,0.532977048983027
"1510",14,24,2,1,70,3,2,0,2,0.831282667205712,0.839060934587554
"1511",14,34,2,1,71,2,2,0,2,0.713829041428248,0.726054296318414
"1512",14,22,2,1,72,1,1,1,4,0.408626544200098,0.370542293763611
"1513",14,20,2,1,73,3,2,0,2,1.17299067413106,1.24958528900986
"1514",14,28,2,1,74,3,1,1,2,0.709817912609012,0.768416990959134
"1515",14,33,2,1,75,3,2,0,1,1.20335492787077,1.21268176656754
"1516",14,36,2,2,76,1,1,0,3,0.594729536369983,0.594705059608137
"1517",14,19,2,2,77,3,1,0,2,0.908571945915207,0.876815314735353
"1518",14,35,2,1,78,2,2,0,3,0.598852728009542,0.634616572416607
"1519",14,23,2,2,79,3,1,0,1,0.418336651844952,0.390798580649734
"1520",14,24,2,2,80,2,2,1,3,0.504362801892975,0.550091860774109
"1521",14,34,2,2,81,2,1,0,2,0.900844668811645,0.964881194896025
"1522",14,22,2,2,82,1,2,1,4,0.325500445934638,0.191254638976915
"1523",14,20,2,2,83,2,1,0,2,0.91252520693158,0.959940092381836
"1524",14,28,2,2,84,3,2,1,2,0.548475154314445,0.514561013138827
"1525",14,33,2,2,85,2,1,0,3,0.348418559111676,0.384070646544074
"1526",14,36,2,1,86,1,2,0,4,0.496972005136886,0.41726165358047
"1527",14,19,2,2,87,3,2,1,3,0.743841412907481,0.682786749478407
"1528",14,35,2,2,88,1,1,0,3,0.62944744927605,0.608017263453322
"1529",14,23,2,1,89,1,1,1,5,0.30789880104851,0.269180720628387
"1530",14,24,2,1,90,3,1,1,3,0.697589645643565,0.723170265383557
"1531",14,34,2,1,91,2,1,1,4,0.828253656189095,0.80358710240043
"1532",14,22,2,1,92,1,1,1,4,0.607463819756203,0.620369026538721
"1533",14,20,2,2,93,2,2,1,4,0.503696449714568,0.460786686540211
"1534",14,28,2,1,94,2,1,1,3,0.79672278649383,0.696687721391319
"1535",14,33,2,2,95,3,2,1,3,0.592100729874133,0.621194136371914
"1536",14,36,2,1,96,1,1,1,5,0.42749618833484,0.413781113918473
"1537",14,19,2,1,97,3,1,1,2,0.848775440135805,0.871859149065136
"1538",14,35,2,1,98,3,1,1,3,0.88532566625895,0.974357475230783
"1539",14,23,2,2,99,3,1,0,2,2.71783592361957,2.71363884193952
"1540",14,24,2,1,100,1,1,1,4,0.403254470888793,0.424367440037606
"1541",14,34,2,1,101,3,1,1,3,0.821338365956689,0.842134173102915
"1542",14,22,2,1,102,3,2,0,2,0.122909172861706,0.0741251282059734
"1543",14,20,2,1,103,1,1,1,4,0.377451008595994,0.322918408070949
"1544",14,28,2,2,104,2,2,1,3,0.718892579289739,0.747585926780694
"1545",14,33,2,1,105,2,2,0,2,0.876346630614234,0.932400257640198
"1546",14,36,2,2,106,3,1,0,2,1.51096146769537,1.53842901701182
"1547",14,19,2,2,107,2,2,1,4,0.673552219620241,0.753080834730269
"1548",14,35,2,1,108,2,2,0,2,0.781523605339033,0.91117299550297
"1549",14,23,2,2,109,1,2,1,5,0.423880909310764,0.434314320038121
"1550",14,24,2,1,110,1,1,1,5,0.34115773411026,0.290078696708785
"1551",14,34,2,2,111,1,1,0,3,0.477719423264527,0.534020141338338
"1552",14,22,2,2,112,2,2,1,3,0.735165517430192,0.746671729392781
"1553",14,20,2,2,113,1,2,1,4,0.323416104353816,0.290731694685594
"1554",14,28,2,2,114,2,2,1,4,0.770693174054276,0.792777312685671
"1555",14,33,2,2,115,3,1,0,1,1.52730102177717,1.63126337443664
"1556",14,36,2,2,116,1,1,0,4,0.500308903307678,0.527671261830305
"1557",14,19,2,1,117,1,1,1,4,0.546026849587463,0.446784706939303
"1558",14,35,2,2,118,3,1,0,1,0.752131646540653,0.760594411458243
"1559",14,23,2,2,119,1,2,1,5,0.36852573400143,0.446624711318348
"1560",14,24,2,2,120,2,2,1,4,0.631696465403622,0.622382023416487
"1561",14,34,2,2,121,1,1,0,4,0.577996624596016,0.498299798683847
"1562",14,22,2,2,122,3,1,0,2,1.14701328687303,1.08209090398793
"1563",14,20,2,1,123,1,1,1,4,0.432763499232382,0.490520138919011
"1564",14,28,2,1,124,2,2,0,2,0.960088214208586,0.894194608648901
"1565",14,33,2,2,125,2,1,0,2,0.840203801791335,0.842541597495963
"1566",14,36,2,2,126,3,1,0,1,0.654750305262063,0.59522553175113
"1567",14,19,2,1,127,2,2,0,3,0.518150966065722,0.45378721320193
"1568",14,35,2,1,128,2,1,1,4,0.706115292364274,0.707562641297915
"1569",14,23,2,2,129,2,1,0,2,0.709283332358051,0.709505752474482
"1570",14,24,2,2,130,3,1,0,1,0.67472499453779,0.656214570788103
"1571",14,34,2,2,131,3,1,0,1,1.0762354281775,1.06709924008072
"1572",14,22,2,1,132,3,1,1,3,0.773883049215836,0.816331519869815
"1573",14,20,2,1,133,3,2,0,1,0.561088664576455,0.581849680914748
"1574",14,28,2,1,134,3,2,0,2,1.30546475732522,1.2553919783834
"1575",14,33,2,1,135,3,2,0,1,1.11048405712163,1.03419157452443
"1576",14,36,2,2,136,1,2,1,4,0.357168024372574,0.3062077148771
