"","subj_no","age","group","stim","trial","difficulty","resp","corr","conf","RT_day1","RT_day2"
"1",21,26,1,2,1,3,2,1,3,0.741085167347784,0.645581909915182
"2",21,34,1,2,2,3,2,1,3,0.600584303321001,0.519208935205966
"3",21,24,1,1,3,3,1,1,2,0.852047014506837,0.81040414947972
"4",21,19,1,2,4,3,1,0,1,0.833526302814717,0.807086695350563
"5",21,38,1,1,5,3,1,1,2,0.889916439577888,0.835928211026502
"6",21,35,1,1,6,1,1,1,4,0.308384712998421,0.365552943189338
"7",21,21,1,2,7,1,2,1,4,0.371840002022067,0.331769922207177
"8",21,19,1,1,8,3,2,0,1,1.04276411503646,1.0023875885345
"9",21,23,1,1,9,2,2,0,2,0.875204429357557,0.85589299836784
"10",21,29,1,2,10,2,2,1,4,0.832712112716213,0.844754190056825
"11",21,26,1,2,11,3,2,1,3,0.708235124743015,0.733161161142997
"12",21,34,1,1,12,3,2,0,2,0.437024380880592,0.454308691292302
"13",21,24,1,2,13,2,2,1,4,0.676157723341658,0.608183597717906
"14",21,19,1,1,14,2,1,1,3,0.54885186210078,0.544632926795612
"15",21,38,1,1,15,3,1,1,3,0.847609098950703,0.818680043110978
"16",21,35,1,2,16,1,2,1,4,0.502402004617772,0.52873398303239
"17",21,21,1,2,17,2,2,1,4,0.603982848931876,0.523064188357818
"18",21,19,1,2,18,1,2,1,5,0.466293513558702,0.480477980358121
"19",21,23,1,2,19,1,1,0,4,0.472040449528924,0.434247748664259
"20",21,29,1,1,20,1,2,0,3,0.506793199579414,0.528641195636217
"21",21,26,1,2,21,3,1,0,2,1.47078951117439,1.4726950216017
"22",21,34,1,1,22,1,1,1,5,0.541093544724325,0.598729682822406
"23",21,24,1,1,23,2,2,0,2,0.752621500101958,0.809591505591406
"24",21,19,1,2,24,2,2,1,3,0.600915970300735,0.604518426242792
"25",21,38,1,2,25,1,2,1,5,0.404109644407304,0.442713228596459
"26",21,35,1,2,26,3,1,0,2,1.20129366475662,1.20989429863092
"27",21,21,1,1,27,2,2,0,3,0.56014982191013,0.537470789227043
"28",21,19,1,1,28,2,1,1,3,0.630509226543864,0.521325014930061
"29",21,23,1,1,29,2,1,1,4,0.52417351799345,0.472663096494102
"30",21,29,1,1,30,2,2,0,3,0.820824141564799,0.768459300537563
"31",21,26,1,1,31,3,1,1,2,0.723702256483957,0.641710324839492
"32",21,34,1,1,32,1,1,1,5,0.334094204481895,0.285126537619484
"33",21,24,1,2,33,1,2,1,5,0.277486771560722,0.285113744041988
"34",21,19,1,2,34,1,2,1,4,0.435670939526186,0.485577674604398
"35",21,38,1,1,35,2,2,0,3,0.916574204260798,0.917647242491639
"36",21,35,1,2,36,2,2,1,4,0.651500859281101,0.736934284785822
"37",21,21,1,1,37,3,2,0,2,1.58632948938541,1.64205354364117
"38",21,19,1,2,38,1,2,1,5,0.587229246839633,0.593558620548435
"39",21,23,1,2,39,3,2,1,3,0.830871004238574,0.806361005057487
"40",21,29,1,1,40,2,1,1,4,0.598246209815559,0.660673748245144
"41",21,26,1,2,41,2,2,1,3,0.43048081254266,0.340320372626517
"42",21,34,1,2,42,2,2,1,4,0.640418244185496,0.679760230036672
"43",21,24,1,1,43,2,2,0,3,0.611245550208996,0.690451793657041
"44",21,19,1,1,44,1,1,1,5,0.533839722851672,0.460308556246294
"45",21,38,1,1,45,3,1,1,3,0.565827261115781,0.603877413875469
"46",21,35,1,1,46,3,1,1,2,1.00587617838221,1.03612129588749
"47",21,21,1,2,47,3,1,0,1,1.20607447321301,1.16135759089487
"48",21,19,1,2,48,2,1,0,3,0.76086773203347,0.723894435408108
"49",21,23,1,1,49,1,1,1,5,0.369042218426625,0.374960931593019
"50",21,29,1,1,50,2,2,0,2,1.01057247061795,0.930823558410796
"51",21,26,1,2,51,3,1,0,2,1.75675969366807,1.67358858788817
"52",21,34,1,1,52,3,2,0,2,1.17204891975699,1.14521123972123
"53",21,24,1,1,53,2,1,1,4,0.672109198614731,0.698415828051786
"54",21,19,1,1,54,2,1,1,3,0.585304473333351,0.662674959028483
"55",21,38,1,1,55,3,1,1,2,0.951722614764135,0.971441748797498
"56",21,35,1,2,56,3,1,0,2,0.989492202559257,0.991318399139308
"57",21,21,1,1,57,2,2,0,3,0.620103158853988,0.684907200754257
"58",21,19,1,1,58,2,1,1,3,0.592827984103687,0.557034500183492
"59",21,23,1,1,59,1,2,0,4,0.573722208332706,0.606997442511855
"60",21,29,1,2,60,2,1,0,2,0.61005995015939,0.634344010078118
"61",21,26,1,1,61,1,1,1,4,0.277467367183405,0.299053058405531
"62",21,34,1,1,62,1,1,1,4,0.29969891260679,0.286397936543267
"63",21,24,1,1,63,3,1,1,2,0.808810483535939,0.79701313247941
"64",21,19,1,2,64,2,2,1,3,0.759829352989261,0.860867636791617
"65",21,38,1,2,65,2,1,0,2,0.883876799169199,0.837243366455826
"66",21,35,1,1,66,2,1,1,3,0.3604737155688,0.317627406384754
"67",21,21,1,1,67,2,1,1,3,0.710114639417652,0.669118767182139
"68",21,19,1,2,68,2,1,0,3,0.681452973417924,0.711752294038488
"69",21,23,1,1,69,1,1,1,4,0.37182345800457,0.40982166016465
"70",21,29,1,2,70,3,2,1,2,0.783214137994336,0.828862221206549
"71",21,26,1,1,71,3,1,1,2,0.990558763153481,0.994141168870683
"72",21,34,1,2,72,3,1,0,2,0.766977516951211,0.846952737115844
"73",21,24,1,1,73,1,2,0,3,0.590002133019945,0.624680491640226
"74",21,19,1,1,74,3,1,1,3,0.57784694118683,0.514466220108036
"75",21,38,1,2,75,2,1,0,3,0.599348144240223,0.658474188991536
"76",21,35,1,1,76,1,1,1,4,0.309084443975534,0.343072411025951
"77",21,21,1,1,77,1,1,1,5,0.355847282531535,0.349811821500231
"78",21,19,1,2,78,3,2,1,2,0.745318556025591,0.700543742832861
"79",21,23,1,1,79,1,2,0,3,0.651206837900356,0.610616746008135
"80",21,29,1,2,80,2,2,1,3,0.630202736309324,0.594249524447009
"81",21,26,1,1,81,2,2,0,3,0.689906237083869,0.731123064797741
"82",21,34,1,2,82,1,2,1,4,0.483028089249755,0.478580193186744
"83",21,24,1,2,83,1,2,1,5,0.39413634378352,0.388581622002641
"84",21,19,1,1,84,2,1,1,4,0.522039920037108,0.511253384865803
"85",21,38,1,1,85,3,1,1,3,0.714811284459626,0.769652163294949
"86",21,35,1,2,86,2,1,0,2,0.553836611588767,0.565497822198038
"87",21,21,1,2,87,1,2,1,5,0.433194515471834,0.388185569102007
"88",21,19,1,1,88,3,2,0,2,0.850182059344063,0.873921506951192
"89",21,23,1,2,89,3,1,0,1,1.09850982755891,1.12137116717302
"90",21,29,1,1,90,1,2,0,4,0.480442417136769,0.529942161626811
"91",21,26,1,1,91,3,1,1,2,1.18084329939724,1.17108473154546
"92",21,34,1,2,92,3,1,0,2,0.944410128184944,0.87734517438796
"93",21,24,1,1,93,2,2,0,2,0.609950329820411,0.606917629000829
"94",21,19,1,2,94,2,2,1,3,0.630495832538602,0.625615451020353
"95",21,38,1,2,95,3,1,0,1,0.526459588469446,0.532027356820783
"96",21,35,1,2,96,2,2,1,3,0.482247748856978,0.443315835250151
"97",21,21,1,2,97,2,2,1,4,0.578298959084919,0.474628610991532
"98",21,19,1,2,98,3,2,1,3,0.737084728105201,0.812694853003542
"99",21,23,1,2,99,1,2,1,5,0.397983950004132,0.362289726682779
"100",21,29,1,2,100,1,2,1,4,0.453497233293304,0.527847979810006
"101",21,26,1,1,101,3,2,0,1,1.32737262537993,1.32650098934995
"102",21,34,1,1,102,1,2,0,4,0.456431527731981,0.42712897039556
"103",21,24,1,1,103,3,1,1,2,0.698869993134332,0.643874263088414
"104",21,19,1,1,104,1,2,0,3,0.552866499464612,0.530670856451761
"105",21,38,1,1,105,3,1,1,3,0.691160653745031,0.738234941043865
"106",21,35,1,2,106,3,1,0,2,1.57249946716841,1.6957539838163
"107",21,21,1,1,107,2,2,0,3,0.397944305744585,0.43455027270977
"108",21,19,1,2,108,2,2,1,4,0.590308165611837,0.495755216436532
"109",21,23,1,1,109,3,1,1,3,0.6005456246233,0.618740293067667
"110",21,29,1,1,110,3,2,0,1,1.1057480044356,1.11279535989111
"111",21,26,1,1,111,1,1,1,4,0.428406968256541,0.450432652232547
"112",21,34,1,1,112,1,1,1,4,0.321996711047614,0.280636944255725
"113",21,24,1,2,113,2,1,0,3,0.844054861928867,0.857991038210081
"114",21,19,1,2,114,1,2,1,4,0.334059798978997,0.35790825061517
"115",21,38,1,2,115,1,2,1,4,0.276833726687754,0.282236792726775
"116",21,35,1,2,116,3,2,1,2,0.702204288428471,0.755076388774529
"117",21,21,1,2,117,1,2,1,4,0.366350939522292,0.401234725389932
"118",21,19,1,2,118,1,2,1,4,0.372550346487576,0.41802295435676
"119",21,23,1,1,119,1,1,1,5,0.312515820996668,0.28631610003796
"120",21,29,1,1,120,2,2,0,3,0.835610512248275,0.869004894512309
"121",21,26,1,2,121,2,1,0,2,0.729424092385047,0.810104650579925
"122",21,34,1,1,122,3,1,1,2,1.16008256122208,1.19287931152087
"123",21,24,1,2,123,3,1,0,2,1.55538095605097,1.57482337743236
"124",21,19,1,2,124,3,1,0,1,0.552778593447815,0.528836279209002
"125",21,38,1,2,125,1,1,0,4,0.634814315705194,0.572873140234451
"126",21,35,1,2,126,1,2,1,4,0.409107002027872,0.387341269572201
"127",21,21,1,1,127,3,2,0,1,0.909082564425989,0.910655107361
"128",21,19,1,1,128,3,2,0,1,1.21221496635555,1.18385344147377
"129",21,23,1,2,129,1,2,1,5,0.304882591661561,0.26393525950488
"130",21,29,1,1,130,1,1,1,4,0.484553482866897,0.456934744871332
"131",21,26,1,1,131,1,1,1,5,0.459275356921127,0.502366805906152
"132",21,34,1,1,132,2,1,1,4,0.555240154850291,0.464694222192568
"133",21,24,1,2,133,1,2,1,4,0.333763158648932,0.321462642278364
"134",21,19,1,1,134,3,1,1,3,0.77152127210979,0.794239721059567
"135",21,38,1,2,135,3,1,0,2,1.19745013612112,1.18546363015905
"136",21,35,1,1,136,3,1,1,3,1.00336696330026,0.965345327433586
"137",21,21,1,2,137,2,1,0,2,0.67078032850452,0.615752661911763
"138",21,19,1,2,138,2,1,0,3,0.814850102430062,0.779761976266307
"139",21,23,1,2,139,1,2,1,4,0.40198009134155,0.466243930518329
"140",21,29,1,2,140,1,2,1,5,0.412828336187726,0.37835729214089
"141",21,26,1,2,141,2,2,1,3,0.503697363876901,0.442120150108083
"142",21,34,1,2,142,3,2,1,2,0.482445247167788,0.586656640739977
"143",21,24,1,2,143,2,2,1,4,0.729658396901966,0.794198522184282
"144",21,19,1,1,144,2,1,1,4,0.62329984909491,0.573440951333039
"145",21,38,1,2,145,3,2,1,2,0.661042920831067,0.614560136670209
"146",21,35,1,2,146,1,1,0,4,0.612550261870963,0.5941129887075
"147",21,21,1,1,147,2,2,0,3,0.78020160003706,0.803215683788899
"148",21,19,1,2,148,3,2,1,2,0.890596150220593,0.923836944731237
"149",21,23,1,1,149,3,1,1,2,0.777269389065663,0.856796536028433
"150",21,29,1,1,150,1,1,1,4,0.506425638419472,0.550558010588372
"151",21,26,1,2,151,3,2,1,2,0.833367402555015,0.861550734998261
"152",21,34,1,1,152,3,2,0,2,1.0596711413064,1.03924667104038
"153",21,24,1,1,153,1,1,1,4,0.196645865588539,0.215082816133242
"154",21,19,1,2,154,2,2,1,3,0.450543544629124,0.530351821937808
"155",21,38,1,2,155,2,1,0,2,0.426347105254596,0.361804091582276
"156",21,35,1,1,156,2,1,1,3,0.592681867315204,0.671662493560672
"157",21,21,1,1,157,2,2,0,2,0.603659197515154,0.578560381732869
"158",21,19,1,2,158,2,2,1,3,0.653632766242505,0.632558719230056
"159",21,23,1,2,159,3,2,1,2,0.898759531955336,0.91026346812604
"160",21,29,1,1,160,3,1,1,2,0.421620258006554,0.446635647682845
"161",21,26,1,2,161,3,2,1,2,0.657463433225797,0.678979700714852
"162",21,34,1,2,162,3,1,0,1,1.02700004668383,1.10895957551849
"163",21,24,1,1,163,1,1,1,4,0.278786865170212,0.181310140609298
"164",21,19,1,2,164,1,2,1,5,0.471046548771869,0.438815099698328
"165",21,38,1,2,165,3,1,0,1,0.481331951446073,0.57743009413822
"166",21,35,1,2,166,1,2,1,5,0.387419177381233,0.527013041797871
"167",21,21,1,1,167,1,1,1,5,0.429804840093514,0.448077273296286
"168",21,19,1,1,168,3,1,1,2,0.924096932783792,0.887205785873571
"169",21,23,1,2,169,2,2,1,3,0.642602454169734,0.627138171321745
"170",21,29,1,1,170,3,2,0,1,1.35395858127924,1.27825275867435
"171",21,26,1,1,171,3,2,0,2,0.828088001161289,0.819332177388619
"172",21,34,1,1,172,3,1,1,2,1.01597925242471,0.971212774323994
"173",21,24,1,2,173,2,1,0,2,0.677227527615914,0.698865865423236
"174",21,19,1,2,174,2,1,0,3,0.478761838960839,0.398141675119637
"175",21,38,1,2,175,2,1,0,2,1.00796685531712,1.05748657319759
"176",21,35,1,2,176,3,1,0,2,1.32343584577173,1.35814150318507
"177",21,21,1,2,177,1,2,1,5,0.434463687753834,0.433784801817093
"178",21,19,1,1,178,3,2,0,2,1.18600904634181,1.17946621933727
"179",21,23,1,2,179,1,1,0,3,0.39651083872721,0.432298092126943
"180",21,29,1,1,180,3,1,1,3,0.969863155703654,1.04882862665084
"181",21,26,1,1,181,1,1,1,5,0.417640865808221,0.431587581153021
"182",21,34,1,2,182,2,1,0,3,0.570749787814989,0.509570283102087
"183",21,24,1,2,183,1,2,1,4,0.238041831711773,0.212593943724828
"184",21,19,1,2,184,1,2,1,4,0.344415525167339,0.401637139579754
"185",21,38,1,1,185,2,1,1,3,0.615587684846263,0.593693732554732
"186",21,35,1,2,186,1,2,1,5,0.432779051965486,0.355806652971721
"187",21,21,1,2,187,1,2,1,5,0.498457254347671,0.512110479337165
"188",21,19,1,2,188,3,1,0,2,1.58145156566089,1.58192224393733
"189",21,23,1,1,189,3,1,1,2,0.629165154413181,0.600103926026338
"190",21,29,1,1,190,2,2,0,2,0.755593408356713,0.66877132253772
"191",21,26,1,1,191,1,1,1,4,0.219328204013871,0.168884434859667
"192",21,34,1,1,192,1,1,1,5,0.387867792782583,0.362261030619644
"193",21,24,1,2,193,1,2,1,5,0.460102527978783,0.437052605636114
"194",21,19,1,1,194,2,1,1,4,0.80798012902712,0.830914186817344
"195",21,38,1,1,195,1,1,1,4,0.27792331991012,0.214968297403127
"196",21,35,1,1,196,1,2,0,3,0.439340822011546,0.468444257724362
"197",21,21,1,1,197,3,1,1,3,0.804967619224233,0.864046596159863
"198",21,19,1,1,198,2,1,1,4,0.389524444183222,0.31678934131058
"199",21,23,1,2,199,2,1,0,2,0.548036902584127,0.589732526205009
"200",21,29,1,2,200,3,1,0,2,1.56815141905109,1.59158192797296
"201",21,26,1,2,201,1,2,1,5,0.305822741411488,0.340194286700285
"202",21,34,1,2,202,3,1,0,2,1.2943132333105,1.24955676728079
"203",21,24,1,2,203,1,2,1,4,0.255543825336574,0.345734590361878
"204",21,19,1,2,204,2,1,0,2,0.739079646747481,0.784267647300627
"205",21,38,1,1,205,1,1,1,4,0.477400895797496,0.433575446800791
"206",21,35,1,2,206,1,1,0,3,0.682071807197916,0.718524351270935
"207",21,21,1,2,207,1,2,1,5,0.366538486665271,0.329680444721439
"208",21,19,1,2,208,2,1,0,2,0.53860486066015,0.507653169531245
"209",21,23,1,1,209,2,1,1,4,0.484573821835156,0.525851635583176
"210",21,29,1,1,210,3,2,0,1,0.938087599316713,0.945307519884743
"211",21,26,1,2,211,1,2,1,4,0.504039877374768,0.576434102738613
"212",21,34,1,2,212,1,1,0,4,0.601137185779383,0.585886670861017
"213",21,24,1,1,213,2,1,1,3,0.65523212908114,0.624845436945239
"214",21,19,1,2,214,3,2,1,3,0.920931877584392,0.924368867301297
"215",21,38,1,2,215,1,2,1,4,0.353177628752154,0.286984796238442
"216",21,35,1,2,216,3,1,0,2,1.05047821894809,1.00786579338252
"217",21,21,1,2,217,2,2,1,3,0.706358899672112,0.766512326128448
"218",21,19,1,2,218,3,2,1,2,0.925471928746203,0.922351560471812
"219",21,23,1,1,219,2,2,0,3,0.782080500352475,0.697361125673299
"220",21,29,1,1,220,2,2,0,3,0.73094995657301,0.679900678896061
"221",21,26,1,1,221,2,1,1,4,0.483180682369189,0.455817256628747
"222",21,34,1,1,222,2,1,1,4,0.738175513486016,0.735582751749548
"223",21,24,1,1,223,1,1,1,5,0.379436468244227,0.439790475182487
"224",21,19,1,2,224,1,2,1,4,0.534238999020477,0.54674348692053
"225",21,38,1,2,225,2,2,1,3,0.61467980019105,0.595037891873965
"226",21,35,1,1,226,1,1,1,5,0.443535602354374,0.470022403440643
"227",21,21,1,1,227,1,1,1,4,0.453336968743242,0.447963381709711
"228",21,19,1,1,228,2,2,0,3,0.677219474326677,0.581437887875155
"229",21,23,1,1,229,1,1,1,5,0.301092707658971,0.329141870428577
"230",21,29,1,1,230,2,2,0,3,0.308784304319161,0.341509460233985
"231",21,26,1,1,231,2,2,0,3,0.883873897385012,0.928174687490169
"232",21,34,1,1,232,3,2,0,2,1.00227491843087,1.02134374935166
"233",21,24,1,1,233,2,2,0,2,0.659717931645849,0.636022558246502
"234",21,19,1,2,234,1,2,1,4,0.431399911151399,0.428400384428355
"235",21,38,1,1,235,1,1,1,5,0.394233402175494,0.373104442860292
"236",21,35,1,1,236,1,1,1,5,0.302578756464822,0.30202502680671
"237",21,21,1,1,237,3,2,0,1,0.337897607209492,0.321180304812351
"238",21,19,1,2,238,3,2,1,2,0.89431982314889,0.882894104175044
"239",21,23,1,2,239,2,1,0,2,0.878461572873568,0.918263284484474
"240",21,29,1,2,240,3,2,1,3,0.705459083428557,0.669946228967955
"241",20,30,2,1,1,2,2,0,2,0.824339459669937,0.842230975815185
"242",20,22,2,2,2,2,1,0,3,0.817600912287059,0.823743448609853
"243",20,28,2,1,3,3,1,1,3,0.49897792382705,0.477198151129386
"244",20,30,2,1,4,2,1,1,4,0.539067559691124,0.518917533550054
"245",20,23,2,2,5,3,2,1,2,1.33980689416666,1.35914768950456
"246",20,38,2,1,6,2,1,1,3,0.664147804702696,0.761593934441336
"247",20,36,2,2,7,2,2,1,3,0.610526199110106,0.667811978326432
"248",20,39,2,2,8,3,1,0,2,1.37660580644855,1.44567946596679
"249",20,25,2,1,9,1,1,1,4,0.419510249773321,0.420176525783557
"250",20,32,2,1,10,2,2,0,2,0.795984173402457,0.851955910490164
"251",20,30,2,1,11,1,1,1,5,0.374450956828367,0.406570748080614
"252",20,22,2,1,12,3,2,0,1,0.750203205961421,0.714757241624125
"253",20,28,2,1,13,3,1,1,2,0.930228940311522,0.972601549217365
"254",20,30,2,1,14,3,1,1,3,0.764213455025938,0.772614259680042
"255",20,23,2,2,15,1,2,1,5,0.395681279985108,0.355586447690958
"256",20,38,2,2,16,2,1,0,3,0.64806131914951,0.700658022967587
"257",20,36,2,1,17,2,1,1,4,0.537511969784355,0.514842127235893
"258",20,39,2,1,18,2,1,1,4,0.48354477908096,0.405168956001604
"259",20,25,2,1,19,2,2,0,3,0.528663526609981,0.573634472591281
"260",20,32,2,2,20,1,2,1,4,0.562575828244162,0.555174633325676
"261",20,30,2,2,21,3,1,0,1,0.600142701039761,0.684138409296717
"262",20,22,2,1,22,2,1,1,4,0.733555190421884,0.695751559502281
"263",20,28,2,2,23,2,2,1,4,0.404088310405936,0.393064874588174
"264",20,30,2,1,24,2,2,0,2,0.831098465201805,0.778741682849535
"265",20,23,2,2,25,3,2,1,2,1.13591531221674,1.12528502867588
"266",20,38,2,1,26,1,2,0,4,0.676455592160083,0.728828069085501
"267",20,36,2,1,27,3,2,0,1,0.885938302880014,0.836469975505622
"268",20,39,2,2,28,3,1,0,2,1.51762395297551,1.54608406028186
"269",20,25,2,2,29,1,2,1,4,0.292739713475479,0.244290330523607
"270",20,32,2,1,30,3,2,0,2,0.80292680911735,0.776632399028561
"271",20,30,2,2,31,1,2,1,4,0.38464918262406,0.38278958526562
"272",20,22,2,1,32,1,1,1,4,0.457492113851111,0.450863630832011
"273",20,28,2,1,33,1,1,1,5,0.547399753016461,0.541722993778182
"274",20,30,2,1,34,3,2,0,2,0.858332186376965,0.86459103332188
"275",20,23,2,1,35,2,1,1,4,0.707578985806973,0.689598533335973
"276",20,38,2,1,36,3,1,1,2,0.568249247382219,0.602652463819745
"277",20,36,2,2,37,3,1,0,1,0.666997258477948,0.635900999209744
"278",20,39,2,2,38,2,2,1,3,0.621526465720395,0.626878694071494
"279",20,25,2,2,39,1,2,1,4,0.476451487505165,0.585852483098192
"280",20,32,2,2,40,2,1,0,3,0.579064034854685,0.546142962140439
"281",20,30,2,1,41,3,1,1,2,0.557956979356565,0.584533211028989
"282",20,22,2,2,42,3,2,1,2,0.742300758580421,0.732457878379454
"283",20,28,2,1,43,2,1,1,4,0.512114591185639,0.492284159469987
"284",20,30,2,2,44,3,1,0,2,0.848020313821258,0.821158290176572
"285",20,23,2,2,45,3,2,1,3,0.729555452591584,0.741584239470111
"286",20,38,2,1,46,1,1,1,4,0.502972054293717,0.487640190461385
"287",20,36,2,2,47,1,1,0,4,0.378385246576986,0.408149139577768
"288",20,39,2,1,48,3,1,1,3,0.48144993574352,0.414844383644246
"289",20,25,2,2,49,1,2,1,5,0.466189002076077,0.472072541267914
"290",20,32,2,1,50,2,2,0,2,0.918359462083417,0.961519259372329
"291",20,30,2,2,51,2,2,1,3,0.623164644092957,0.597249178148053
"292",20,22,2,1,52,2,2,0,3,0.614025502729214,0.595844926501827
"293",20,28,2,1,53,3,2,0,2,1.14875402850641,1.16000738410151
"294",20,30,2,1,54,3,2,0,2,1.34009170487056,1.31944296507059
"295",20,23,2,2,55,2,1,0,3,0.67595345619144,0.668598668755579
"296",20,38,2,2,56,3,1,0,2,0.549518308467455,0.445314334013979
"297",20,36,2,2,57,3,2,1,2,0.8230383993111,0.904851147502384
"298",20,39,2,2,58,1,2,1,5,0.379433488794809,0.383189925007782
"299",20,25,2,1,59,1,1,1,5,0.328797624110677,0.261733521483493
"300",20,32,2,2,60,1,2,1,4,0.379046163177503,0.407817433982497
"301",20,30,2,1,61,1,1,1,4,0.396432001462653,0.337985287138787
"302",20,22,2,2,62,3,1,0,2,0.624119425692037,0.652188339750134
"303",20,28,2,1,63,2,2,0,3,0.617471830377308,0.561909905381964
"304",20,30,2,2,64,3,1,0,1,1.32128843563479,1.28594323260007
"305",20,23,2,1,65,3,1,1,3,0.65235614662969,0.658130637352784
"306",20,38,2,2,66,2,2,1,3,0.724922382715156,0.663992599524525
"307",20,36,2,1,67,2,1,1,3,0.810308489777199,0.890526808943054
"308",20,39,2,1,68,3,2,0,2,1.47471374477342,1.42204168799824
"309",20,25,2,2,69,1,2,1,4,0.293648043186658,0.258898530856631
"310",20,32,2,1,70,3,2,0,2,1.45502374573811,1.54496152384645
"311",20,30,2,1,71,3,2,0,2,1.04882507288766,1.09517955588644
"312",20,22,2,1,72,2,2,0,2,0.552049068762157,0.549929613187008
"313",20,28,2,2,73,1,1,0,3,0.675039501257108,0.686206785777655
"314",20,30,2,2,74,3,1,0,2,1.15412889250219,1.12108772043227
"315",20,23,2,1,75,2,2,0,3,0.573409567848593,0.523830437002054
"316",20,38,2,1,76,1,1,1,5,0.446512917477243,0.433375895407655
"317",20,36,2,2,77,1,2,1,5,0.505105988355496,0.530680596683321
"318",20,39,2,2,78,2,2,1,4,0.577280064865189,0.599858378213074
"319",20,25,2,2,79,1,2,1,4,0.286927523716228,0.336748976822294
"320",20,32,2,2,80,1,2,1,4,0.370085738840504,0.357418074041362
"321",20,30,2,1,81,2,2,0,3,0.593950380580199,0.612728090648531
"322",20,22,2,2,82,3,1,0,2,1.13112530283772,1.17771387792447
"323",20,28,2,2,83,2,2,1,3,0.646219008503785,0.646220937165396
"324",20,30,2,2,84,1,2,1,5,0.263296926312951,0.353356111629393
"325",20,23,2,1,85,1,2,0,3,0.660763587485727,0.664837740086863
"326",20,38,2,2,86,3,1,0,2,0.942917086570372,0.950820989792759
"327",20,36,2,1,87,1,1,1,5,0.463791503337796,0.436130691854106
"328",20,39,2,1,88,2,1,1,3,0.621275688158559,0.685876250351913
"329",20,25,2,1,89,1,2,0,4,0.647438050902033,0.652239206232707
"330",20,32,2,2,90,3,1,0,2,0.666855283275555,0.708725280416658
"331",20,30,2,1,91,2,2,0,3,0.747048918685725,0.79451376989216
"332",20,22,2,1,92,1,1,1,5,0.245327857162004,0.202382488700889
"333",20,28,2,1,93,1,1,1,4,0.377868223955594,0.318367232442419
"334",20,30,2,2,94,2,1,0,2,0.776644677600845,0.743108027010565
"335",20,23,2,1,95,2,1,1,3,0.647502952235366,0.74511407030884
"336",20,38,2,2,96,2,2,1,4,0.577292096911177,0.534217019957997
"337",20,36,2,2,97,1,1,0,4,0.498306506287522,0.501092233011358
"338",20,39,2,1,98,2,1,1,3,0.776144589945087,0.786259538549057
"339",20,25,2,1,99,3,1,1,2,0.29049293812905,0.285870998431922
"340",20,32,2,1,100,1,1,1,5,0.472129969074856,0.376798064840645
"341",20,30,2,2,101,1,2,1,5,0.332040375117026,0.318698246286516
"342",20,22,2,2,102,3,2,1,2,0.67352780399002,0.71104084109669
"343",20,28,2,1,103,1,1,1,4,0.312526938708955,0.34624549319548
"344",20,30,2,1,104,3,1,1,3,0.692669621705722,0.705912489208288
"345",20,23,2,2,105,2,2,1,3,0.662379680794482,0.650764158039308
"346",20,38,2,1,106,3,1,1,3,0.685669728143197,0.719971542590001
"347",20,36,2,2,107,1,2,1,4,0.392490847842217,0.369822429489725
"348",20,39,2,1,108,3,2,0,1,0.60351705217392,0.593829429126006
"349",20,25,2,2,109,1,2,1,4,0.371107095180583,0.392157184270363
"350",20,32,2,2,110,3,2,1,2,0.694642553374836,0.680281194306369
"351",20,30,2,2,111,1,1,0,3,0.461341993443375,0.453311453343581
"352",20,22,2,1,112,2,2,0,3,0.79962494150136,0.855411002988407
"353",20,28,2,1,113,3,2,0,1,1.60230728044079,1.64838629688592
"354",20,30,2,1,114,1,1,1,5,0.367798945139201,0.274881540648416
"355",20,23,2,2,115,2,2,1,3,0.536089207746537,0.591664574212618
"356",20,38,2,2,116,1,2,1,4,0.399969925413706,0.359664784668046
"357",20,36,2,1,117,3,2,0,2,0.947249258691367,0.987561474115013
"358",20,39,2,2,118,2,1,0,3,0.674199557416175,0.565699623399642
"359",20,25,2,1,119,3,2,0,2,1.01399147650966,0.991565699204749
"360",20,32,2,2,120,1,2,1,4,0.588815287388056,0.501766395845394
"361",20,30,2,1,121,1,1,1,5,0.34473269607597,0.380854223582872
"362",20,22,2,2,122,3,1,0,2,0.815520382819423,0.76059040093953
"363",20,28,2,1,123,1,1,1,4,0.418447548629996,0.461717250181478
"364",20,30,2,2,124,2,2,1,3,0.45713743992998,0.442138613006055
"365",20,23,2,2,125,1,1,0,4,0.461980029706374,0.498190779652989
"366",20,38,2,1,126,3,1,1,3,0.796095379135023,0.831189679755674
"367",20,36,2,1,127,3,1,1,3,0.616481381629322,0.531120757435677
"368",20,39,2,2,128,1,2,1,5,0.329830981063327,0.345667898931281
"369",20,25,2,1,129,2,2,0,2,0.876376979783033,0.812654468506978
"370",20,32,2,1,130,3,1,1,2,0.834017480559091,0.909665261056924
"371",20,30,2,2,131,2,1,0,3,0.717227961649717,0.72619060997347
"372",20,22,2,2,132,1,2,1,5,0.453303020653923,0.463375671607309
"373",20,28,2,2,133,3,1,0,1,1.12994863326368,1.07297449376126
"374",20,30,2,2,134,2,1,0,2,0.661035924286971,0.604090957845178
"375",20,23,2,1,135,3,2,0,2,0.971956479855856,0.926452458996581
"376",20,38,2,1,136,1,2,0,4,0.603544499950802,0.602740081805713
"377",20,36,2,1,137,3,1,1,3,0.764303440028831,0.774201035622169
"378",20,39,2,2,138,2,2,1,3,0.914045529159515,0.906014698687028
"379",20,25,2,2,139,1,1,0,4,0.514989297751686,0.578020268830728
"380",20,32,2,2,140,3,1,0,1,0.886674078388081,0.864715989510898
"381",20,30,2,1,141,2,1,1,3,0.533286169871286,0.498224776575948
"382",20,22,2,2,142,3,1,0,1,1.29620374203015,1.30204274538617
"383",20,28,2,1,143,2,1,1,4,0.526590522640595,0.534317040528751
"384",20,30,2,1,144,3,1,1,2,0.719374128802757,0.750443801767491
"385",20,23,2,1,145,3,1,1,3,0.593884037873303,0.630533830298973
"386",20,38,2,1,146,2,1,1,4,0.770908683809438,0.642401964492957
"387",20,36,2,1,147,3,2,0,2,0.468319968009257,0.495259963567136
"388",20,39,2,1,148,2,2,0,3,0.712389089277952,0.667369373937749
"389",20,25,2,2,149,2,1,0,3,0.406596873316308,0.413974054021561
"390",20,32,2,2,150,2,1,0,2,0.684115981358407,0.753004819388449
"391",20,30,2,2,151,3,1,0,1,1.39644156841998,1.36856728589472
"392",20,22,2,1,152,3,2,0,1,1.52718783331346,1.50966936446919
"393",20,28,2,1,153,3,2,0,2,0.700166160053915,0.676120410727749
"394",20,30,2,2,154,1,2,1,5,0.461887999139396,0.366676775456474
"395",20,23,2,1,155,1,1,1,5,0.518811149468143,0.426752822980165
"396",20,38,2,2,156,2,2,1,4,0.528782037205776,0.506530703940105
"397",20,36,2,1,157,3,2,0,2,1.05502131366301,1.1004221460716
"398",20,39,2,1,158,1,2,0,4,0.336044308113592,0.41617790280371
"399",20,25,2,2,159,1,2,1,5,0.284544462496152,0.333753003539298
"400",20,32,2,2,160,1,2,1,5,0.369211395990128,0.294874591072217
"401",20,30,2,1,161,3,2,0,2,0.960850044139309,1.0086698865793
"402",20,22,2,2,162,2,1,0,2,0.632540808893116,0.71486353058478
"403",20,28,2,2,163,1,1,0,3,0.586989613981655,0.487439523485906
"404",20,30,2,2,164,2,2,1,4,0.622055689868904,0.590426481536318
"405",20,23,2,2,165,3,1,0,1,0.800228111673437,0.747007862559972
"406",20,38,2,2,166,1,2,1,5,0.364953135042869,0.365926126616167
"407",20,36,2,1,167,2,2,0,3,0.692828089821533,0.709459211480404
"408",20,39,2,1,168,3,2,0,1,1.87069380007407,1.79887762926435
"409",20,25,2,2,169,1,2,1,5,0.334470798312955,0.341208199813883
"410",20,32,2,1,170,2,2,0,3,0.805649069185905,0.792795982303576
"411",20,30,2,1,171,2,2,0,3,0.630837343414868,0.731336227023715
"412",20,22,2,2,172,1,2,1,5,0.375685975933737,0.28882589941779
"413",20,28,2,1,173,3,2,0,1,1.42264133768785,1.38787776612997
"414",20,30,2,2,174,2,2,1,3,0.881384926277528,0.846733985784779
"415",20,23,2,1,175,1,1,1,4,0.364415374467688,0.393398606496533
"416",20,38,2,2,176,3,2,1,3,0.714247483962728,0.725826319983775
"417",20,36,2,1,177,1,1,1,4,0.50697223832801,0.488426204909321
"418",20,39,2,2,178,1,2,1,5,0.470446379772548,0.520720508037821
"419",20,25,2,2,179,1,1,0,3,0.302805710066212,0.327375881250063
"420",20,32,2,1,180,2,1,1,3,0.641061034347969,0.573478456948136
"421",20,30,2,2,181,1,2,1,4,0.51046455339789,0.527383198895013
"422",20,22,2,1,182,1,2,0,3,0.62830181800797,0.590796665411401
"423",20,28,2,2,183,2,1,0,3,0.665447588637465,0.688995300313896
"424",20,30,2,2,184,2,1,0,2,0.819791482408888,0.795715554083142
"425",20,23,2,1,185,1,1,1,4,0.41118366608164,0.365297892091126
"426",20,38,2,2,186,2,2,1,4,0.393893840164372,0.454897356339944
"427",20,36,2,1,187,1,1,1,4,0.384235364738327,0.353886476358814
"428",20,39,2,1,188,3,2,0,2,0.810539780384826,0.834666377993805
"429",20,25,2,2,189,3,2,1,3,0.470487069591442,0.509317950752973
"430",20,32,2,1,190,2,1,1,3,0.407716832064416,0.39057833501476
"431",20,30,2,1,191,1,1,1,4,0.371189154353358,0.307937030549234
"432",20,22,2,1,192,2,1,1,3,0.809587922345055,0.785663102520544
"433",20,28,2,2,193,2,2,1,3,0.635669514556135,0.557661681862488
"434",20,30,2,1,194,3,2,0,1,0.80326590887811,0.76415009733885
"435",20,23,2,2,195,1,2,1,4,0.518275211125332,0.601051323212715
"436",20,38,2,2,196,3,2,1,2,1.17235383661447,1.21939444779046
"437",20,36,2,2,197,1,2,1,5,0.429092685566327,0.422750209961274
"438",20,39,2,2,198,1,2,1,4,0.413709878293393,0.493216983982891
"439",20,25,2,1,199,3,1,1,2,0.885161741989702,0.815762693680981
"440",20,32,2,1,200,1,1,1,5,0.222161038669368,0.197470699287885
"441",20,30,2,1,201,1,1,1,5,0.444566897419657,0.385417524830574
"442",20,22,2,2,202,3,2,1,2,0.825403471177539,0.758257676227107
"443",20,28,2,2,203,3,2,1,2,0.581732211013291,0.49463358048759
"444",20,30,2,2,204,1,2,1,5,0.362869832226446,0.401848795634481
"445",20,23,2,1,205,2,1,1,4,0.728931796391366,0.675005854778472
"446",20,38,2,1,206,2,1,1,3,0.569053375835441,0.548127840244989
"447",20,36,2,1,207,2,2,0,2,0.650946977793333,0.638165133451182
"448",20,39,2,1,208,2,1,1,3,0.412757310259591,0.476083293196051
"449",20,25,2,1,209,2,2,0,2,0.844025391104916,0.791461039070774
"450",20,32,2,2,210,1,2,1,5,0.372619253406727,0.46929535030823
"451",20,30,2,2,211,3,2,1,2,1.28299060892272,1.26660429040817
"452",20,22,2,2,212,1,2,1,5,0.518489555491071,0.434760817339015
"453",20,28,2,2,213,1,2,1,4,0.390537032509979,0.391885178651939
"454",20,30,2,2,214,3,1,0,2,1.79831448430757,1.90330313081054
"455",20,23,2,1,215,2,1,1,3,0.849285239204569,0.824722801992718
"456",20,38,2,2,216,3,2,1,3,0.619615220274735,0.685839463508789
"457",20,36,2,1,217,2,2,0,2,0.819477695515106,0.820687416863864
"458",20,39,2,2,218,1,2,1,4,0.377068084889116,0.338909856268806
"459",20,25,2,2,219,1,2,1,4,0.318095055731774,0.330988268400397
"460",20,32,2,2,220,3,1,0,1,1.48361148692163,1.51106951858008
"461",20,30,2,1,221,2,2,0,2,0.622085464814824,0.713906878190114
"462",20,22,2,2,222,1,2,1,5,0.346173702390003,0.295139836517619
"463",20,28,2,1,223,3,1,1,2,0.81547301640377,0.805502448636081
"464",20,30,2,2,224,2,1,0,2,0.865396413076009,0.816244424367312
"465",20,23,2,2,225,2,1,0,3,0.741368842699043,0.728635509709912
"466",20,38,2,2,226,2,1,0,3,0.558007639032261,0.563394609656131
"467",20,36,2,2,227,2,2,1,3,0.582060672499575,0.489871690952589
"468",20,39,2,1,228,3,1,1,2,0.72129262615069,0.646581757926047
"469",20,25,2,2,229,2,1,0,3,0.756435823859338,0.656895003606126
"470",20,32,2,1,230,2,1,1,3,0.572640569769565,0.550815567526403
"471",20,30,2,2,231,3,2,1,2,0.781756167941832,0.805743026576022
"472",20,22,2,1,232,3,2,0,1,0.949648117868065,0.99667758363506
"473",20,28,2,2,233,1,2,1,5,0.421712379705915,0.383496678135818
"474",20,30,2,1,234,3,1,1,3,0.922428707690597,0.950279844388308
"475",20,23,2,2,235,2,1,0,2,0.629704683222186,0.685889212423586
"476",20,38,2,1,236,3,1,1,2,1.1843876342278,1.16142250156979
"477",20,36,2,1,237,1,1,1,4,0.37380913171017,0.409301455127921
"478",20,39,2,2,238,1,2,1,5,0.461325955008921,0.495859473809044
"479",20,25,2,2,239,1,2,1,5,0.53737791564213,0.522479410338257
"480",20,32,2,1,240,2,1,1,4,0.605188144903941,0.58669954758661
"481",19,31,1,1,1,2,1,1,4,0.684224684194549,0.559322555237488
"482",19,39,1,2,2,1,2,1,4,0.224943692015209,0.298618639756188
"483",19,39,1,2,3,2,2,1,4,0.816127121148196,0.820263980644369
"484",19,29,1,1,4,2,1,1,3,0.505067976784613,0.474029955367569
"485",19,29,1,2,5,1,2,1,5,0.449287541540791,0.362451406368672
"486",19,32,1,2,6,2,2,1,3,0.586610960058194,0.570877189332425
"487",19,24,1,1,7,3,2,0,1,0.705994734457198,0.704064628803023
"488",19,36,1,1,8,3,1,1,3,0.623000900181553,0.601676649679935
"489",19,30,1,2,9,3,2,1,2,0.813861150267281,0.786311876990156
"490",19,36,1,2,10,1,2,1,4,0.333202309035002,0.326922210446413
"491",19,31,1,1,11,3,1,1,3,0.78426468839521,0.907641319283084
"492",19,39,1,2,12,1,2,1,5,0.403101696542534,0.436020199691125
"493",19,39,1,2,13,1,1,0,4,0.667187639578759,0.636467101383107
"494",19,29,1,1,14,1,1,1,5,0.434186664946021,0.556054114579033
"495",19,29,1,2,15,1,2,1,5,0.382765039386157,0.343662740193637
"496",19,32,1,2,16,1,2,1,4,0.477306557517536,0.450909324801501
"497",19,24,1,2,17,1,2,1,5,0.461723075337797,0.413831374628073
"498",19,36,1,2,18,3,2,1,2,0.941948988660609,0.947473417695873
"499",19,30,1,1,19,2,2,0,2,0.796278932184779,0.83730275780288
"500",19,36,1,1,20,3,2,0,2,0.626561466225983,0.663801334607281
"501",19,31,1,1,21,1,1,1,4,0.335286439439385,0.405570225744798
"502",19,39,1,2,22,3,1,0,2,1.35485037989841,1.29658781182912
"503",19,39,1,1,23,3,1,1,2,1.11240178067516,1.08292881689244
"504",19,29,1,2,24,3,2,1,3,0.686714156068954,0.699423323375422
"505",19,29,1,1,25,2,2,0,3,0.665923216781943,0.745590119691575
"506",19,32,1,1,26,3,2,0,2,1.22095967025728,1.22701327828635
"507",19,24,1,2,27,3,1,0,2,0.711787684836971,0.701314549227543
"508",19,36,1,1,28,1,1,1,4,0.40859464233854,0.400170113964148
"509",19,30,1,2,29,3,1,0,1,1.01512597902527,1.02529339548216
"510",19,36,1,1,30,2,1,1,3,0.505368219091508,0.480457205582477
"511",19,31,1,1,31,2,1,1,4,0.773879522719609,0.779468740609259
"512",19,39,1,1,32,1,2,0,3,0.678696492321423,0.710211460344342
"513",19,39,1,1,33,2,1,1,4,0.556264101516318,0.553211454260747
"514",19,29,1,2,34,3,2,1,3,0.748697156755427,0.805315402174928
"515",19,29,1,2,35,3,1,0,1,1.59951601073805,1.6460486575545
"516",19,32,1,2,36,3,2,1,3,0.787480716846919,0.708876052821837
"517",19,24,1,1,37,1,1,1,5,0.431488921805736,0.435868204034932
"518",19,36,1,2,38,3,2,1,3,0.331329652472056,0.375761754815654
"519",19,30,1,1,39,2,1,1,3,0.534133475749175,0.657367933067574
"520",19,36,1,1,40,1,1,1,4,0.384157543391926,0.330759333806712
"521",19,31,1,1,41,2,1,1,3,0.606907957303135,0.703756401970935
"522",19,39,1,1,42,1,1,1,4,0.372049618021333,0.387884723396671
"523",19,39,1,2,43,2,2,1,3,0.662188013367192,0.631566046490804
"524",19,29,1,2,44,3,1,0,2,0.713917062462172,0.766022608369464
"525",19,29,1,1,45,2,1,1,4,0.51926142421623,0.47595553354965
"526",19,32,1,1,46,2,2,0,2,0.732307514675096,0.765764764211679
"527",19,24,1,2,47,1,2,1,5,0.433880324405193,0.439202182375747
"528",19,36,1,1,48,1,1,1,5,0.302582053054259,0.343626485554177
"529",19,30,1,2,49,2,2,1,4,0.349682222317797,0.26288560850806
"530",19,36,1,2,50,2,1,0,2,0.518009399713844,0.472839246688458
"531",19,31,1,2,51,2,2,1,4,0.555302506741363,0.527267121162885
"532",19,39,1,1,52,3,2,0,2,0.840131788289857,0.807692521190661
"533",19,39,1,2,53,2,2,1,3,0.621774874354444,0.602078443967551
"534",19,29,1,2,54,2,2,1,4,0.599663556239344,0.54704028998259
"535",19,29,1,1,55,3,1,1,2,0.965146966126921,0.956098461871263
"536",19,32,1,2,56,1,2,1,4,0.429071659436283,0.438824255235735
"537",19,24,1,1,57,2,2,0,2,0.618184738665514,0.639093150958432
"538",19,36,1,2,58,3,1,0,1,0.951484303693778,0.930650143285604
"539",19,30,1,1,59,3,2,0,2,0.746396323707512,0.723723199870494
"540",19,36,1,1,60,1,1,1,5,0.370381910859887,0.347725186583628
"541",19,31,1,1,61,2,1,1,3,0.631038655768218,0.552950059233021
"542",19,39,1,1,62,2,1,1,4,0.589842394374896,0.482290130769562
"543",19,39,1,1,63,2,1,1,4,0.742272138323444,0.743610976647987
"544",19,29,1,1,64,1,2,0,3,0.471450403641625,0.393167621327009
"545",19,29,1,1,65,1,1,1,4,0.403003431727459,0.40121886240771
"546",19,32,1,1,66,3,1,1,2,0.771484281023982,0.745398757689368
"547",19,24,1,2,67,3,2,1,3,0.833533845967914,0.869491328428542
"548",19,36,1,2,68,1,2,1,4,0.414363175000511,0.385854632969234
"549",19,30,1,1,69,1,2,0,4,0.699218978786691,0.704496149100547
"550",19,36,1,2,70,1,2,1,4,0.460104899962176,0.520255975129767
"551",19,31,1,1,71,2,1,1,3,0.688369578925179,0.674627233270394
"552",19,39,1,1,72,3,2,0,2,0.264852068195128,0.182131642553322
"553",19,39,1,1,73,2,1,1,4,0.337100538488247,0.371331432402602
"554",19,29,1,2,74,2,2,1,3,0.552046155884668,0.527446965631628
"555",19,29,1,1,75,1,2,0,3,0.527464984102374,0.530750940529614
"556",19,32,1,2,76,3,1,0,2,1.36474774840166,1.35702328586667
"557",19,24,1,1,77,3,1,1,3,0.822175941871046,0.714294246236616
"558",19,36,1,1,78,2,2,0,2,0.411147954191659,0.516521510795327
"559",19,30,1,2,79,3,1,0,2,0.722064307765257,0.720228925045807
"560",19,36,1,2,80,1,1,0,4,0.48610107231737,0.484012593631078
"561",19,31,1,1,81,3,2,0,2,0.919554639440359,0.955718087171463
"562",19,39,1,2,82,1,2,1,5,0.479300309248889,0.435130409159516
"563",19,39,1,1,83,1,1,1,5,0.324866669318989,0.297397584063734
"564",19,29,1,1,84,2,2,0,3,0.788872974426654,0.791542731593307
"565",19,29,1,2,85,1,1,0,4,0.45513433914798,0.419815733473042
"566",19,32,1,2,86,1,2,1,5,0.334499386833568,0.327788062405177
"567",19,24,1,2,87,2,1,0,2,0.529818166523449,0.530951896837159
"568",19,36,1,2,88,2,2,1,3,0.636528213789405,0.659899701497711
"569",19,30,1,1,89,2,1,1,4,0.595470743903319,0.626166778264797
"570",19,36,1,2,90,3,1,0,2,0.707366312720227,0.715839981738848
"571",19,31,1,1,91,3,1,1,3,0.439242846083932,0.449980990208075
"572",19,39,1,2,92,2,1,0,3,0.939847925373776,0.8504577683105
"573",19,39,1,2,93,2,2,1,3,0.262332598218744,0.231867327072907
"574",19,29,1,2,94,2,1,0,2,0.820027253138739,0.836038857348791
"575",19,29,1,2,95,2,1,0,2,0.841431268043764,0.829485381401466
"576",19,32,1,2,96,2,1,0,2,0.511431148571603,0.517345457215586
"577",19,24,1,1,97,1,1,1,4,0.41183457866872,0.370982263551352
"578",19,36,1,1,98,1,1,1,4,0.505436478258554,0.440220972739673
"579",19,30,1,2,99,3,1,0,2,1.35064343416929,1.3686114088649
"580",19,36,1,2,100,3,2,1,3,1.04299953102999,1.05512232830795
"581",19,31,1,1,101,2,1,1,3,0.552502508396548,0.609474794651157
"582",19,39,1,1,102,1,1,1,5,0.453352915545171,0.476426648751587
"583",19,39,1,1,103,3,2,0,1,0.923025632309588,0.879900615931907
"584",19,29,1,2,104,3,2,1,2,0.795795843368672,0.669833571204058
"585",19,29,1,2,105,3,1,0,2,1.32618739615771,1.30319103819462
"586",19,32,1,1,106,1,1,1,4,0.402717085958039,0.348909477359666
"587",19,24,1,2,107,3,1,0,2,1.49855411186849,1.37374717365167
"588",19,36,1,2,108,1,2,1,5,0.376349043585915,0.384759956703324
"589",19,30,1,2,109,3,2,1,2,1.1222964315472,1.0947989495075
"590",19,36,1,1,110,2,1,1,3,0.812021660818678,0.796813731728868
"591",19,31,1,1,111,1,1,1,4,0.484200433735146,0.441351241152234
"592",19,39,1,2,112,2,1,0,2,0.409864468524187,0.398540217675845
"593",19,39,1,2,113,1,2,1,5,0.307444054867774,0.27781221531458
"594",19,29,1,2,114,3,1,0,1,1.73986448888108,1.732108994922
"595",19,29,1,2,115,2,1,0,2,0.666058902291999,0.675492984147593
"596",19,32,1,2,116,3,2,1,3,1.14502304739743,1.11788097451604
"597",19,24,1,1,117,1,1,1,5,0.390006594699963,0.451784451960797
"598",19,36,1,1,118,2,1,1,3,0.706412503132187,0.74153386480398
"599",19,30,1,1,119,1,2,0,3,0.440431774180736,0.551275645753538
"600",19,36,1,2,120,1,2,1,5,0.524243015854861,0.457729625585341
"601",19,31,1,2,121,1,2,1,4,0.373707757700136,0.332109182715002
"602",19,39,1,1,122,1,1,1,4,0.362985021361567,0.381937609417667
"603",19,39,1,2,123,3,1,0,2,0.936453952139737,0.861114911975223
"604",19,29,1,2,124,3,1,0,1,1.32093998584285,1.26670901528546
"605",19,29,1,1,125,1,1,1,4,0.300948056004084,0.239212369319616
"606",19,32,1,2,126,3,1,0,1,1.75748441682464,1.76774473464809
"607",19,24,1,1,127,2,2,0,2,0.588739043170277,0.514632851590544
"608",19,36,1,2,128,1,2,1,5,0.341464115207942,0.339106730174464
"609",19,30,1,1,129,2,1,1,4,0.363329985352366,0.345298910989445
"610",19,36,1,1,130,2,2,0,2,0.655733361504222,0.698836930944897
"611",19,31,1,2,131,2,1,0,3,0.26150321191576,0.295054542688009
"612",19,39,1,2,132,2,1,0,2,0.831309715629147,0.817581061810393
"613",19,39,1,2,133,3,2,1,3,0.462405597962697,0.490378217348035
"614",19,29,1,2,134,3,2,1,2,0.700024153299266,0.794621713387983
"615",19,29,1,1,135,3,2,0,1,0.990800457889074,0.936415649271894
"616",19,32,1,2,136,2,2,1,3,0.7207456106999,0.711109420422653
"617",19,24,1,2,137,1,2,1,5,0.279747880499746,0.28760576638295
"618",19,36,1,2,138,2,1,0,3,0.628225750425012,0.745421149142778
"619",19,30,1,1,139,2,2,0,2,0.939221095096057,0.964027101233158
"620",19,36,1,1,140,3,2,0,2,1.69661824570584,1.75746086849005
"621",19,31,1,2,141,3,2,1,3,1.11618970049597,1.16194317800874
"622",19,39,1,1,142,1,1,1,5,0.352706084439704,0.308580816704033
"623",19,39,1,2,143,1,1,0,3,0.663111455707572,0.672159361416317
"624",19,29,1,2,144,2,2,1,4,0.649261681699378,0.643969128791231
"625",19,29,1,2,145,2,2,1,3,0.742247293818971,0.765110701474898
"626",19,32,1,2,146,2,2,1,3,0.595064431430805,0.597433663901926
"627",19,24,1,1,147,3,1,1,3,0.531134013424794,0.593201712270715
"628",19,36,1,1,148,2,2,0,3,0.534697980454168,0.638771380170188
"629",19,30,1,2,149,1,2,1,5,0.382488658534356,0.412936273704292
"630",19,36,1,2,150,3,2,1,3,0.40313337445248,0.376101937074843
"631",19,31,1,1,151,3,2,0,1,0.499440840536894,0.563535830711314
"632",19,39,1,1,152,1,1,1,5,0.502161430454545,0.467667920096034
"633",19,39,1,1,153,1,1,1,4,0.423242038877402,0.48302959199781
"634",19,29,1,1,154,1,1,1,5,0.474917407479497,0.496193199523048
"635",19,29,1,2,155,1,2,1,4,0.285527754091715,0.266013866015234
"636",19,32,1,2,156,1,2,1,4,0.382447918936939,0.363133588466169
"637",19,24,1,2,157,3,1,0,2,0.972101078843392,0.925742550633828
"638",19,36,1,1,158,2,2,0,2,0.886616101866211,0.875279277822823
"639",19,30,1,1,159,1,2,0,4,0.589942462605737,0.553762481400188
"640",19,36,1,1,160,2,2,0,2,0.663084271434595,0.690222777003034
"641",19,31,1,1,161,2,1,1,3,0.476237239425049,0.473048531724261
"642",19,39,1,2,162,2,2,1,3,0.43531905305535,0.455804389879328
"643",19,39,1,2,163,3,2,1,3,0.945617677087145,0.952196154927465
"644",19,29,1,1,164,2,1,1,4,0.494391843539019,0.587525613029044
"645",19,29,1,1,165,1,1,1,5,0.409073777168102,0.453299818692818
"646",19,32,1,2,166,1,2,1,5,0.474014942906828,0.497920828655078
"647",19,24,1,2,167,1,2,1,4,0.362352792473515,0.396583677624505
"648",19,36,1,2,168,1,1,0,3,0.260653918288807,0.430422568837279
"649",19,30,1,1,169,3,1,1,2,0.815001749313645,0.878395914362369
"650",19,36,1,1,170,3,2,0,2,1.14585727290049,1.03223848252356
"651",19,31,1,1,171,2,1,1,3,0.654835252830363,0.623364141784362
"652",19,39,1,1,172,1,1,1,4,0.408633662749152,0.447987881132536
"653",19,39,1,1,173,2,1,1,4,0.510589189604822,0.528186032270054
"654",19,29,1,1,174,2,2,0,3,0.741946972263623,0.754806155114876
"655",19,29,1,1,175,1,1,1,5,0.366128280584625,0.375154539698891
"656",19,32,1,2,176,3,2,1,3,1.11344649843319,1.16623487881359
"657",19,24,1,2,177,3,2,1,3,0.959915576726317,0.981865171325986
"658",19,36,1,2,178,1,2,1,5,0.328452047878526,0.296785137946156
"659",19,30,1,1,179,1,1,1,5,0.330247317130308,0.293830050060548
"660",19,36,1,2,180,3,1,0,2,1.14225063982614,1.11277284749398
"661",19,31,1,2,181,1,2,1,4,0.403873604246471,0.485622214687519
"662",19,39,1,1,182,2,1,1,3,0.659930094498188,0.616657223214366
"663",19,39,1,2,183,2,2,1,4,0.499242967692098,0.451083718037543
"664",19,29,1,1,184,3,1,1,2,0.574813842030719,0.527220731804833
"665",19,29,1,1,185,3,1,1,3,0.507601966053658,0.522861733748521
"666",19,32,1,2,186,3,1,0,1,0.562219676778555,0.558919073694097
"667",19,24,1,2,187,3,1,0,2,0.759649367667242,0.766909422175039
"668",19,36,1,1,188,1,1,1,5,0.495350491104336,0.541029842824656
"669",19,30,1,1,189,2,2,0,3,0.721929696394875,0.748193130104081
"670",19,36,1,2,190,1,2,1,4,0.456306580345101,0.491846448736669
"671",19,31,1,1,191,1,1,1,5,0.435312525355355,0.397331485123913
"672",19,39,1,1,192,2,1,1,3,0.552006333002714,0.553691643486886
"673",19,39,1,2,193,2,2,1,3,0.460528811172403,0.466648331059611
"674",19,29,1,1,194,2,1,1,4,0.454133045272933,0.462757221645119
"675",19,29,1,2,195,3,1,0,2,1.09874220798571,1.03953001330768
"676",19,32,1,2,196,1,2,1,4,0.526922724675394,0.521257178652468
"677",19,24,1,2,197,3,2,1,3,0.831913266466564,0.907695286298504
"678",19,36,1,2,198,3,2,1,2,0.547793030295953,0.572707132620912
"679",19,30,1,1,199,3,1,1,3,1.19106405688801,1.22619497235261
"680",19,36,1,1,200,1,1,1,4,0.533913558371438,0.519412922033787
"681",19,31,1,1,201,2,1,1,3,0.710187712537362,0.731856844975938
"682",19,39,1,2,202,1,1,0,3,0.53568478422336,0.435550920033027
"683",19,39,1,1,203,1,1,1,4,0.361640184193658,0.438472304893997
"684",19,29,1,1,204,2,1,1,3,0.844134435465386,0.807895479303851
"685",19,29,1,1,205,1,1,1,5,0.548004522342638,0.551113672984321
"686",19,32,1,2,206,2,1,0,3,0.719023416331804,0.697023157558476
"687",19,24,1,1,207,1,2,0,3,0.574352600269293,0.615218204463394
"688",19,36,1,1,208,3,2,0,2,0.967634465886382,0.925900394107912
"689",19,30,1,1,209,1,1,1,5,0.317218669636479,0.223736774729734
"690",19,36,1,1,210,3,2,0,1,1.38728232501687,1.29134982339032
"691",19,31,1,2,211,2,2,1,4,0.420397534473842,0.364579458558644
"692",19,39,1,1,212,1,1,1,5,0.32399787946719,0.366506437990131
"693",19,39,1,1,213,2,1,1,4,0.422079824995028,0.31425176077447
"694",19,29,1,2,214,3,1,0,2,1.17066851240277,1.18466881476978
"695",19,29,1,1,215,2,2,0,2,0.710660002667359,0.733368491378848
"696",19,32,1,1,216,3,1,1,2,0.730596056261674,0.758932724926198
"697",19,24,1,2,217,2,1,0,2,0.45161519487144,0.433908785583118
"698",19,36,1,1,218,3,2,0,2,0.985036138265636,1.0364839840425
"699",19,30,1,1,219,3,1,1,2,0.69963197049353,0.731017068978515
"700",19,36,1,2,220,3,2,1,3,1.01298073872502,1.01886705674382
"701",19,31,1,1,221,2,2,0,2,0.671151846301741,0.688244766968176
"702",19,39,1,2,222,1,2,1,4,0.533818018384599,0.404668494433818
"703",19,39,1,2,223,1,2,1,5,0.374172866314949,0.335187603498538
"704",19,29,1,2,224,3,2,1,3,0.794512976509991,0.794130570753421
"705",19,29,1,2,225,1,2,1,5,0.37209609741537,0.48634293454722
"706",19,32,1,1,226,2,2,0,2,0.787460728117087,0.747926529417259
"707",19,24,1,1,227,1,1,1,5,0.464965046683724,0.366902983644167
"708",19,36,1,1,228,3,2,0,1,1.10764775253705,1.03694416641206
"709",19,30,1,2,229,3,1,0,1,1.01413457212023,1.0230655123483
"710",19,36,1,1,230,2,2,0,3,0.449879823706868,0.419847240708325
"711",19,31,1,2,231,2,2,1,3,0.706633622289211,0.771823935486536
"712",19,39,1,1,232,3,2,0,2,1.71780363290804,1.70541024308443
"713",19,39,1,2,233,3,1,0,2,1.25437953357485,1.25157330635294
"714",19,29,1,2,234,2,2,1,3,0.594413968990947,0.61098583952583
"715",19,29,1,1,235,3,2,0,1,0.482725649516966,0.556595004309203
"716",19,32,1,2,236,1,2,1,4,0.365122505213561,0.390095539905001
"717",19,24,1,2,237,1,1,0,4,0.542172727061147,0.461331285390407
"718",19,36,1,2,238,2,2,1,4,0.592265430129596,0.57845136871469
"719",19,30,1,1,239,3,2,0,1,1.03783564780078,1.00450116657212
"720",19,36,1,2,240,3,1,0,2,0.453519036862824,0.416079919565937
"721",18,19,2,2,1,3,1,0,1,0.583959984397133,0.579540432574434
"722",18,22,2,2,2,2,2,1,4,0.572264142521651,0.584237685790597
"723",18,20,2,2,3,1,2,1,4,0.427260434244839,0.436249381943101
"724",18,34,2,1,4,3,2,0,2,0.899601688932103,0.786017738852375
"725",18,32,2,2,5,2,1,0,2,0.567925970731267,0.572048452015653
"726",18,33,2,2,6,1,2,1,5,0.342476741993821,0.334503250001231
"727",18,18,2,2,7,1,2,1,5,0.431548227062327,0.416527169789329
"728",18,36,2,1,8,3,1,1,3,0.599705955590283,0.536804559011358
"729",18,26,2,2,9,1,2,1,4,0.399392959352026,0.420830979733422
"730",18,23,2,2,10,1,1,0,4,0.576556386490251,0.568659006498118
"731",18,19,2,1,11,3,2,0,1,0.883011825220108,0.866932522685613
"732",18,22,2,1,12,2,1,1,3,0.880073615949815,0.877887905044861
"733",18,20,2,2,13,1,2,1,5,0.297693006945106,0.345267210471252
"734",18,34,2,2,14,1,2,1,4,0.352638216699052,0.429043743111422
"735",18,32,2,1,15,2,2,0,2,0.83765546361971,0.82442574901013
"736",18,33,2,2,16,2,2,1,4,0.681364350738443,0.690438524346701
"737",18,18,2,1,17,1,1,1,5,0.471304561874198,0.448270476690307
"738",18,36,2,2,18,3,2,1,2,0.819876703276811,0.823724464928418
"739",18,26,2,1,19,3,2,0,1,0.977906348223861,0.964419539393329
"740",18,23,2,1,20,3,2,0,1,1.07644860925403,0.998604729950736
"741",18,19,2,1,21,2,1,1,3,0.626509061698935,0.697820213824866
"742",18,22,2,1,22,1,2,0,4,0.43696375178903,0.373783956768574
"743",18,20,2,1,23,3,1,1,2,0.562625547899705,0.518011043672003
"744",18,34,2,1,24,1,2,0,4,0.553482071048995,0.593426520219277
"745",18,32,2,1,25,3,2,0,1,1.23963012463927,1.25507536764782
"746",18,33,2,2,26,1,2,1,4,0.448028723931122,0.485241360131209
"747",18,18,2,2,27,3,2,1,2,0.732843754155411,0.706877488426648
"748",18,36,2,1,28,1,1,1,4,0.351899332160348,0.406345168433006
"749",18,26,2,1,29,3,2,0,2,0.408918382219282,0.372377595771438
"750",18,23,2,1,30,2,1,1,3,0.853609126361689,0.864457178719646
"751",18,19,2,2,31,1,2,1,4,0.258502944188333,0.246718757597848
"752",18,22,2,2,32,3,1,0,1,0.933485234080526,0.869473954697236
"753",18,20,2,2,33,3,2,1,2,0.847006110553148,0.78642727717669
"754",18,34,2,1,34,3,2,0,2,1.06264252046373,1.08563842646333
"755",18,32,2,1,35,1,1,1,5,0.425962020655418,0.367262314638953
"756",18,33,2,2,36,3,2,1,2,1.07921642805466,1.18188923944466
"757",18,18,2,1,37,1,2,0,4,0.530865273958526,0.476407847131961
"758",18,36,2,1,38,1,1,1,5,0.205042721377359,0.251747094958215
"759",18,26,2,2,39,1,2,1,5,0.379873360293476,0.394354735044682
"760",18,23,2,2,40,3,2,1,3,0.487363714831442,0.447897806169055
"761",18,19,2,1,41,3,2,0,1,0.851479262846116,0.726966135430448
"762",18,22,2,2,42,1,1,0,4,0.289300863497712,0.364511145142097
"763",18,20,2,2,43,2,1,0,2,0.802892472390785,0.780267051226456
"764",18,34,2,2,44,3,2,1,2,0.955575897638659,0.939675146778257
"765",18,32,2,1,45,3,2,0,2,0.893482983646162,0.974493883987572
"766",18,33,2,2,46,2,1,0,3,0.857689595471681,0.855864542587394
"767",18,18,2,1,47,2,2,0,3,0.677131213046638,0.730463684159333
"768",18,36,2,1,48,2,1,1,3,0.573148772542309,0.590567212030816
"769",18,26,2,1,49,2,1,1,4,0.701153998084675,0.749469144001071
"770",18,23,2,2,50,3,1,0,2,1.33228561623473,1.33929098434856
"771",18,19,2,2,51,2,2,1,3,0.518872063979804,0.4827492244891
"772",18,22,2,2,52,2,1,0,2,0.762886551847406,0.727103142787758
"773",18,20,2,2,53,2,2,1,3,0.513780465763272,0.584280887754625
"774",18,34,2,1,54,3,1,1,2,0.728516653072728,0.681408928395236
"775",18,32,2,1,55,1,2,0,4,0.515822241318972,0.497049672171224
"776",18,33,2,1,56,3,2,0,2,0.488421582374783,0.544626823928786
"777",18,18,2,1,57,2,1,1,4,0.77683491813222,0.787424030838374
"778",18,36,2,2,58,3,2,1,3,0.91307962571399,0.93483988130654
"779",18,26,2,2,59,3,2,1,3,0.572319418208517,0.581892758292292
"780",18,23,2,1,60,3,1,1,2,0.987559401344132,1.04385946954535
"781",18,19,2,2,61,2,2,1,4,0.817499516905794,0.902219577533074
"782",18,22,2,1,62,3,1,1,3,0.752113797249282,0.757701264487979
"783",18,20,2,2,63,1,2,1,4,0.42076451646448,0.365273952549532
"784",18,34,2,1,64,3,2,0,2,0.626470289778558,0.619152093079148
"785",18,32,2,2,65,1,2,1,4,0.441283837593036,0.375781846033549
"786",18,33,2,1,66,1,2,0,3,0.562706254140436,0.528151957503357
"787",18,18,2,1,67,2,1,1,3,0.646554279867834,0.711359725460046
"788",18,36,2,2,68,3,1,0,2,1.06925576499222,1.07562173905105
"789",18,26,2,2,69,1,2,1,5,0.434859795150832,0.421405808377408
"790",18,23,2,1,70,3,2,0,1,1.09875409673577,1.16244013735873
"791",18,19,2,1,71,3,2,0,2,1.23840417126864,1.22377820491013
"792",18,22,2,1,72,2,1,1,3,0.538891930592441,0.542348247906533
"793",18,20,2,2,73,2,2,1,3,0.547159364192431,0.651322013114011
"794",18,34,2,2,74,2,2,1,4,0.744083970994038,0.78488324572297
"795",18,32,2,1,75,3,2,0,1,1.11462510483746,1.1092965703264
"796",18,33,2,2,76,2,2,1,3,0.658272587617611,0.715039578124002
"797",18,18,2,1,77,1,2,0,4,0.695379982812837,0.700882887614532
"798",18,36,2,2,78,3,1,0,2,0.878806932652267,0.90793240424849
"799",18,26,2,1,79,2,2,0,2,0.722116118175312,0.762066486811789
"800",18,23,2,2,80,1,2,1,5,0.525472832837991,0.584345018930748
"801",18,19,2,2,81,3,1,0,1,0.584432261646037,0.567368856930518
"802",18,22,2,2,82,1,2,1,5,0.266053753133199,0.306787974580934
"803",18,20,2,2,83,3,1,0,1,1.13384821061382,1.03739546494753
"804",18,34,2,2,84,1,1,0,4,0.655208365813508,0.596522053937983
"805",18,32,2,1,85,2,2,0,2,0.613728869683276,0.584044265742914
"806",18,33,2,1,86,1,1,1,5,0.478870047619629,0.549617873021681
"807",18,18,2,1,87,2,2,0,2,1.03740914181631,1.05100934389828
"808",18,36,2,2,88,1,1,0,4,0.636742721993091,0.64058293673922
"809",18,26,2,2,89,3,2,1,3,1.0149229300287,1.0924268574795
"810",18,23,2,2,90,2,2,1,4,0.519448966766514,0.396530541711093
"811",18,19,2,2,91,1,2,1,5,0.462275680456869,0.500380325336738
"812",18,22,2,1,92,3,1,1,3,0.616846209112869,0.672943979876335
"813",18,20,2,2,93,1,2,1,4,0.278416808324453,0.273168475337304
"814",18,34,2,2,94,2,2,1,3,0.296515029774887,0.231695821999716
"815",18,32,2,1,95,1,1,1,4,0.395191160099811,0.387479945467546
"816",18,33,2,1,96,3,1,1,2,1.06814223861426,1.04479031738949
"817",18,18,2,2,97,3,2,1,2,0.661477853124545,0.631876728452796
"818",18,36,2,1,98,2,2,0,3,0.655437108509656,0.628603234620268
"819",18,26,2,2,99,2,1,0,2,0.65687922300726,0.656259963181715
"820",18,23,2,1,100,3,1,1,2,1.00503791688511,0.999044827369779
"821",18,19,2,1,101,3,1,1,3,1.11347748500916,1.04150597211181
"822",18,22,2,2,102,2,1,0,3,1.20498972872731,1.15569677026437
"823",18,20,2,1,103,1,1,1,5,0.412648531611503,0.425010849121666
"824",18,34,2,2,104,1,2,1,4,0.48136495209365,0.533749799855485
"825",18,32,2,1,105,1,2,0,4,0.519203475815085,0.536613353192389
"826",18,33,2,2,106,1,2,1,4,0.488583917348753,0.565835348216458
"827",18,18,2,2,107,2,1,0,3,0.715894285159639,0.647268831322876
"828",18,36,2,2,108,3,2,1,3,0.792427726066904,0.839903188993528
"829",18,26,2,1,109,2,2,0,2,0.712286768612904,0.746705819510961
"830",18,23,2,1,110,3,1,1,2,0.574713443048974,0.623739852242522
"831",18,19,2,2,111,3,1,0,1,1.00179791992763,1.0267359281423
"832",18,22,2,1,112,2,2,0,3,0.581764501763076,0.54059289715395
"833",18,20,2,1,113,3,2,0,2,0.919068424622308,0.873172873008957
"834",18,34,2,1,114,2,2,0,2,0.535905266489685,0.62386698943768
"835",18,32,2,2,115,1,2,1,4,0.449219123545965,0.479412756886465
"836",18,33,2,2,116,2,1,0,3,0.41875581484358,0.392066758950904
"837",18,18,2,2,117,1,2,1,5,0.454967329040326,0.422003179990542
"838",18,36,2,1,118,2,1,1,3,0.77252320341803,0.821038504324913
"839",18,26,2,1,119,2,1,1,4,0.528816685455531,0.495345432036939
"840",18,23,2,1,120,1,1,1,4,0.497884607063767,0.534058008509333
"841",18,19,2,1,121,1,1,1,5,0.465688222427799,0.471087515644889
"842",18,22,2,1,122,2,1,1,3,0.802405174986149,0.69265064693894
"843",18,20,2,1,123,1,1,1,5,0.505209294097749,0.484693440124529
"844",18,34,2,2,124,2,1,0,3,0.525487065778495,0.534745386408928
"845",18,32,2,2,125,2,2,1,3,0.506882465637567,0.546301927192724
"846",18,33,2,1,126,1,1,1,5,0.505010666537817,0.489634305004276
"847",18,18,2,1,127,1,2,0,4,0.394981886831904,0.501233408479359
"848",18,36,2,1,128,3,1,1,3,0.886638583167571,0.837921356770426
"849",18,26,2,1,129,2,1,1,4,0.470099830510426,0.524781021509604
"850",18,23,2,2,130,2,2,1,3,0.60319834116523,0.482110692398761
"851",18,19,2,2,131,3,2,1,2,1.05070841582915,1.10211487638566
"852",18,22,2,2,132,1,2,1,5,0.328252097356721,0.386348449374756
"853",18,20,2,2,133,1,1,0,3,0.595421292715224,0.681512641566146
"854",18,34,2,1,134,3,1,1,3,0.506726727966882,0.500290375654557
"855",18,32,2,2,135,1,2,1,5,0.449927345527352,0.417805767850787
"856",18,33,2,2,136,2,2,1,3,0.569041160443709,0.646454600937813
"857",18,18,2,1,137,1,1,1,4,0.438753818310547,0.397795735978893
"858",18,36,2,1,138,2,2,0,3,0.48830458722936,0.465619114081908
"859",18,26,2,2,139,1,2,1,4,0.646988096795127,0.733156633862397
"860",18,23,2,2,140,1,2,1,4,0.401681376560781,0.343951025481852
"861",18,19,2,2,141,1,2,1,5,0.550046564920919,0.574176204955527
"862",18,22,2,1,142,2,2,0,3,0.573947261452889,0.650615511737444
"863",18,20,2,1,143,3,1,1,2,0.904776528996671,0.848928904680189
"864",18,34,2,2,144,2,2,1,4,0.473687205280144,0.471723680196348
"865",18,32,2,2,145,3,1,0,1,1.54109074209754,1.58027915914251
"866",18,33,2,1,146,2,1,1,3,0.658672750653138,0.670263065816707
"867",18,18,2,1,147,1,2,0,4,0.635655041325251,0.630153045000062
"868",18,36,2,1,148,1,1,1,5,0.308870700582219,0.334074108371517
"869",18,26,2,1,149,2,1,1,3,0.430839072773834,0.464612101380677
"870",18,23,2,2,150,3,1,0,2,0.978653740634109,0.996853245750423
"871",18,19,2,2,151,1,2,1,4,0.356404111734542,0.305070759450586
"872",18,22,2,1,152,3,1,1,3,0.829746629273513,0.822684521769392
"873",18,20,2,2,153,2,2,1,4,0.86336943723494,0.805039311225994
"874",18,34,2,1,154,3,1,1,2,0.765312153985592,0.796043565069698
"875",18,32,2,2,155,2,1,0,3,0.80442633521256,0.725118784251083
"876",18,33,2,1,156,1,1,1,5,0.41949707136294,0.454124659830334
"877",18,18,2,2,157,2,2,1,3,0.625384865558441,0.527205132842642
"878",18,36,2,2,158,3,2,1,2,0.827689537814022,0.814362096977851
"879",18,26,2,2,159,2,1,0,3,0.413730693829375,0.376367190323687
"880",18,23,2,2,160,2,2,1,4,0.80731867998565,0.794105385021315
"881",18,19,2,2,161,3,2,1,2,1.07499337832488,1.06134824567144
"882",18,22,2,1,162,3,2,0,1,1.35660623199009,1.31861451542561
"883",18,20,2,2,163,3,1,0,2,0.85589004869935,0.860087682175443
"884",18,34,2,1,164,2,1,1,3,0.479012938067598,0.457401332439943
"885",18,32,2,2,165,1,2,1,4,0.311434366302256,0.364821189951554
"886",18,33,2,2,166,1,2,1,5,0.485614073324306,0.458462425778006
"887",18,18,2,2,167,2,2,1,3,0.646262382578155,0.659087382345855
"888",18,36,2,1,168,2,1,1,4,0.59388789996375,0.587039079048515
"889",18,26,2,1,169,3,2,0,1,0.613110546556908,0.683277441211215
"890",18,23,2,2,170,3,1,0,2,1.4293822126767,1.34619957028906
"891",18,19,2,2,171,1,2,1,5,0.388525308567616,0.541524114938419
"892",18,22,2,1,172,2,1,1,4,0.584177789632137,0.588507795644982
"893",18,20,2,1,173,1,1,1,5,0.331830445965441,0.419851350716866
"894",18,34,2,2,174,1,1,0,3,0.519310701364087,0.432399470433838
"895",18,32,2,1,175,1,1,1,4,0.482788437110345,0.543003292204146
"896",18,33,2,1,176,3,2,0,1,1.21251930715342,1.24040159951385
"897",18,18,2,1,177,1,1,1,5,0.382018341365635,0.47466660087865
"898",18,36,2,1,178,3,2,0,2,1.60877148609755,1.61538193577677
"899",18,26,2,1,179,3,1,1,2,0.527996712612773,0.471171685235901
"900",18,23,2,2,180,3,1,0,1,1.61062662622328,1.55144653249315
"901",18,19,2,2,181,3,2,1,2,1.03023793383473,1.04256204687397
"902",18,22,2,2,182,3,1,0,1,1.15790290276204,1.17138905509818
"903",18,20,2,2,183,1,1,0,3,0.720765152014686,0.795178576976695
"904",18,34,2,2,184,3,2,1,2,0.765966196234362,0.757171826192251
"905",18,32,2,2,185,1,2,1,4,0.409843048250479,0.468124164979131
"906",18,33,2,1,186,1,2,0,3,0.429433628453302,0.47148924299926
"907",18,18,2,2,187,2,2,1,4,0.570026770060274,0.565317227019279
"908",18,36,2,1,188,3,1,1,2,0.942538326946837,0.941868168078968
"909",18,26,2,2,189,3,1,0,1,1.11231394646022,1.12426787965437
"910",18,23,2,2,190,1,2,1,5,0.362185170545244,0.405344784276376
"911",18,19,2,1,191,3,1,1,2,0.916335723711163,0.943010425186707
"912",18,22,2,2,192,2,2,1,4,0.734215689706179,0.706958223464363
"913",18,20,2,1,193,1,1,1,5,0.453452897884429,0.496999570292647
"914",18,34,2,2,194,3,2,1,2,0.77743802075046,0.721294890377209
"915",18,32,2,1,195,1,1,1,4,0.456139524606257,0.468743853020893
"916",18,33,2,1,196,3,2,0,2,1.06426702690568,1.10431495527047
"917",18,18,2,2,197,1,2,1,4,0.513036492774288,0.463013426987751
"918",18,36,2,1,198,2,2,0,2,0.696927415353586,0.746139804984179
"919",18,26,2,1,199,1,2,0,3,0.423720470627541,0.419854766827626
"920",18,23,2,2,200,3,1,0,2,0.857551687456715,0.782360706687623
"921",18,19,2,2,201,2,2,1,3,0.443244977922507,0.478723846453066
"922",18,22,2,2,202,2,1,0,3,0.450838928721936,0.427693354276292
"923",18,20,2,2,203,2,1,0,2,0.645655009776988,0.652992934690844
"924",18,34,2,2,204,1,2,1,5,0.26401434459451,0.264563483441527
"925",18,32,2,1,205,1,1,1,4,0.227680381387837,0.231321554234844
"926",18,33,2,2,206,1,2,1,4,0.346023089498852,0.250323880488086
"927",18,18,2,1,207,3,1,1,2,0.814327211844264,0.832236950189435
"928",18,36,2,1,208,3,1,1,3,0.819527200160184,0.857104455873683
"929",18,26,2,2,209,1,1,0,4,0.689010340245491,0.639869635665121
"930",18,23,2,1,210,2,1,1,4,0.506124460194217,0.624168566306241
"931",18,19,2,1,211,1,1,1,4,0.345874030513792,0.25755937102936
"932",18,22,2,1,212,3,2,0,2,0.816924280824068,0.90268553414028
"933",18,20,2,2,213,3,2,1,3,0.677890917080825,0.693523494733076
"934",18,34,2,2,214,3,1,0,1,0.916051698910131,0.882940012097394
"935",18,32,2,1,215,2,1,1,3,0.673865276560363,0.696296487942672
"936",18,33,2,1,216,2,1,1,4,0.4581714675163,0.438157566456162
"937",18,18,2,2,217,3,2,1,3,0.573476501231275,0.515216346732301
"938",18,36,2,1,218,1,1,1,5,0.447203057397958,0.447661624835774
"939",18,26,2,1,219,2,1,1,4,0.656122352946258,0.685662772371312
"940",18,23,2,1,220,1,1,1,5,0.438696686162024,0.513948327907324
"941",18,19,2,1,221,2,1,1,3,0.614022288184107,0.613317499722325
"942",18,22,2,1,222,2,2,0,2,0.636670854744297,0.648967282087372
"943",18,20,2,1,223,3,1,1,2,1.09903409543544,1.06150268871156
"944",18,34,2,2,224,3,1,0,2,0.907457767155532,0.933327491255467
"945",18,32,2,2,225,2,1,0,2,0.498234217463524,0.485241795483752
"946",18,33,2,1,226,2,1,1,3,0.716776555440195,0.707293913455085
"947",18,18,2,1,227,2,1,1,3,0.665215858019675,0.679287522505691
"948",18,36,2,2,228,2,2,1,4,0.676716036207926,0.654034027844069
"949",18,26,2,2,229,2,1,0,2,0.795200423329253,0.804086840643156
"950",18,23,2,1,230,2,1,1,4,0.594072694139507,0.645447103699486
"951",18,19,2,2,231,3,2,1,3,0.984993733596544,1.01628568529402
"952",18,22,2,1,232,2,1,1,4,0.45149602693427,0.393652542926987
"953",18,20,2,1,233,1,1,1,4,0.467720814673642,0.5446630023363
"954",18,34,2,1,234,2,1,1,4,0.733752049730622,0.666784352840722
"955",18,32,2,2,235,2,1,0,2,0.53499739452199,0.548975425875865
"956",18,33,2,1,236,1,1,1,4,0.309862321602071,0.270485357923521
"957",18,18,2,1,237,2,1,1,3,0.758118102949508,0.759049167514517
"958",18,36,2,2,238,1,1,0,4,0.426250898926693,0.378905371224073
"959",18,26,2,1,239,1,1,1,4,0.597864384966644,0.584115891640623
"960",18,23,2,2,240,2,1,0,2,0.692994775237372,0.71529152144465
"961",17,37,1,1,1,2,1,1,4,0.886095270702589,0.882411317473846
"962",17,30,1,1,2,2,1,1,4,0.465129016106487,0.417891187062543
"963",17,39,1,1,3,2,2,0,2,0.726624565665347,0.762866306568498
"964",17,21,1,1,4,3,2,0,2,0.631617954937451,0.694367427984579
"965",17,33,1,2,5,1,2,1,4,0.451487438325242,0.431168479006737
"966",17,20,1,1,6,1,1,1,5,0.380127304950464,0.382479948440928
"967",17,22,1,1,7,2,1,1,3,0.620464392508267,0.552225576670987
"968",17,20,1,2,8,2,1,0,2,0.773118519370476,0.787596684896618
"969",17,25,1,2,9,2,2,1,3,0.563519400317249,0.596057803311838
"970",17,31,1,2,10,1,1,0,4,0.457482587826066,0.51621980994654
"971",17,37,1,2,11,1,2,1,4,0.386693448928123,0.444299119389028
"972",17,30,1,2,12,3,1,0,2,1.15952919503828,1.26537750885902
"973",17,39,1,2,13,3,2,1,2,0.746567942145692,0.736633712514956
"974",17,21,1,2,14,2,1,0,3,0.777151895136143,0.845550322723462
"975",17,33,1,2,15,3,1,0,1,0.628586718915319,0.621014006583248
"976",17,20,1,1,16,1,1,1,5,0.393470020273109,0.401674993625056
"977",17,22,1,1,17,3,1,1,2,0.356810017087633,0.462018081133906
"978",17,20,1,2,18,3,1,0,2,0.483327830639245,0.298270658664283
"979",17,25,1,1,19,3,1,1,3,0.986396126473356,0.93539698307853
"980",17,31,1,1,20,3,1,1,3,0.594807363956789,0.571639773176197
"981",17,37,1,1,21,2,1,1,4,0.689736754692579,0.662411977198862
"982",17,30,1,2,22,2,2,1,4,0.498931304184352,0.401919863623363
"983",17,39,1,1,23,3,1,1,2,1.06632022651903,1.05407960341126
"984",17,21,1,2,24,3,2,1,3,0.871758160352543,0.882051302941197
"985",17,33,1,2,25,3,1,0,1,1.08838135782835,1.12835422509841
"986",17,20,1,1,26,2,2,0,2,0.618205254448094,0.562916078980476
"987",17,22,1,2,27,2,2,1,3,0.579838857458442,0.618201447831218
"988",17,20,1,2,28,1,1,0,3,0.345609059249305,0.332364777154085
"989",17,25,1,2,29,3,1,0,2,0.883767658603514,0.833395905021437
"990",17,31,1,2,30,1,2,1,5,0.46504308836244,0.470553636130393
"991",17,37,1,2,31,1,2,1,5,0.320029810114188,0.310908022111009
"992",17,30,1,2,32,1,2,1,4,0.338092716401789,0.278076791487253
"993",17,39,1,1,33,2,1,1,4,0.706580015696609,0.677986073688656
"994",17,21,1,1,34,2,1,1,3,0.545218306290007,0.513575269539927
"995",17,33,1,2,35,2,2,1,4,0.544397251367513,0.453935397846642
"996",17,20,1,1,36,2,2,0,2,0.582214144533377,0.530847545287057
"997",17,22,1,2,37,1,2,1,5,0.295729229316978,0.311857844934358
"998",17,20,1,2,38,1,2,1,4,0.41568025394808,0.439225117041296
"999",17,25,1,1,39,2,2,0,3,0.603761532337038,0.600890813988725
"1000",17,31,1,2,40,2,1,0,2,0.457740827172808,0.481016461563137
"1001",17,37,1,2,41,3,2,1,2,1.23229619638866,1.21635455313297
"1002",17,30,1,2,42,1,2,1,5,0.335721448170347,0.325307750319951
"1003",17,39,1,1,43,3,1,1,2,0.825680253585004,0.790704965849124
"1004",17,21,1,1,44,1,1,1,5,0.244172509346108,0.188530335704003
"1005",17,33,1,2,45,3,2,1,3,0.67901793218221,0.60619244589722
"1006",17,20,1,2,46,3,2,1,3,0.838136243620384,0.856290028703158
"1007",17,22,1,1,47,1,2,0,4,0.372490443662397,0.371461186954349
"1008",17,20,1,2,48,2,1,0,3,0.777421365935441,0.769526507401488
"1009",17,25,1,1,49,3,1,1,3,0.470763713506456,0.458498551472065
"1010",17,31,1,2,50,3,1,0,2,0.78243032590679,0.70939815328977
"1011",17,37,1,2,51,1,2,1,4,0.35794435088179,0.271971564896745
"1012",17,30,1,2,52,2,2,1,3,0.575977147878135,0.525486854566222
"1013",17,39,1,2,53,3,2,1,3,0.967978763588,0.977285630179076
"1014",17,21,1,1,54,3,2,0,1,0.868021275560344,0.865797698697962
"1015",17,33,1,1,55,3,1,1,3,0.676066818534179,0.657020555566682
"1016",17,20,1,2,56,1,2,1,5,0.178446062841931,0.127746437482021
"1017",17,22,1,1,57,1,1,1,5,0.4039250896163,0.399412974291288
"1018",17,20,1,2,58,2,1,0,2,0.874029081896628,0.860958296753172
"1019",17,25,1,1,59,2,2,0,2,0.557232618988148,0.563449258803276
"1020",17,31,1,1,60,1,2,0,3,0.560681981391746,0.657224567731051
"1021",17,37,1,1,61,3,1,1,2,1.0150367979747,1.01419852452423
"1022",17,30,1,2,62,1,2,1,5,0.329719517057887,0.357320377024244
"1023",17,39,1,2,63,2,2,1,3,0.679466139626006,0.70650854140436
"1024",17,21,1,2,64,2,2,1,3,0.75501479191848,0.6742452807995
"1025",17,33,1,1,65,1,1,1,5,0.449976845022069,0.40745662756508
"1026",17,20,1,1,66,1,2,0,3,0.39796176177661,0.405932198319502
"1027",17,22,1,1,67,2,2,0,2,0.679220426910925,0.71853025727487
"1028",17,20,1,1,68,2,1,1,3,0.776357172942892,0.687184449967858
"1029",17,25,1,2,69,2,1,0,3,0.637932955067777,0.598333919382249
"1030",17,31,1,2,70,3,1,0,2,0.305593194312483,0.26593246933592
"1031",17,37,1,2,71,2,1,0,3,0.806706787907415,0.831281716245315
"1032",17,30,1,1,72,1,1,1,4,0.499076229058365,0.559007240907958
"1033",17,39,1,1,73,1,1,1,4,0.280378357528483,0.279122343862283
"1034",17,21,1,2,74,2,1,0,2,0.628865483636208,0.696419854140837
"1035",17,33,1,1,75,3,1,1,2,0.939363241175775,0.875218994748892
"1036",17,20,1,1,76,3,1,1,3,0.961179596609684,0.959341919987226
"1037",17,22,1,1,77,2,1,1,3,0.544481458983994,0.506929072421167
"1038",17,20,1,2,78,2,1,0,2,0.662670811757518,0.709363245290687
"1039",17,25,1,2,79,3,2,1,2,0.614109365573837,0.552954490341715
"1040",17,31,1,1,80,1,2,0,4,0.602812893366479,0.586048246088414
"1041",17,37,1,2,81,3,2,1,2,1.03565660887807,1.01931464359527
"1042",17,30,1,2,82,2,1,0,3,1.00174048516389,0.952543723388404
"1043",17,39,1,2,83,1,1,0,4,0.606443951951165,0.646169695029497
"1044",17,21,1,1,84,1,1,1,4,0.319646958565444,0.320003883381725
"1045",17,33,1,2,85,1,2,1,5,0.441011132137483,0.426889889931395
"1046",17,20,1,2,86,3,2,1,2,1.20404263899614,1.23400285260052
"1047",17,22,1,2,87,3,2,1,2,0.665618370199776,0.62401473063229
"1048",17,20,1,2,88,3,1,0,1,0.822243384643862,0.798976612096975
"1049",17,25,1,1,89,2,2,0,2,0.650509472604797,0.586290116804257
"1050",17,31,1,2,90,2,2,1,3,0.536088676454014,0.521335710922067
"1051",17,37,1,1,91,1,1,1,4,0.44105564620883,0.403042719351207
"1052",17,30,1,2,92,1,1,0,4,0.631178990130572,0.567499146454986
"1053",17,39,1,1,93,2,1,1,4,0.452668086574024,0.553575828496396
"1054",17,21,1,1,94,1,1,1,4,0.455432757709037,0.429382323392953
"1055",17,33,1,2,95,3,1,0,2,1.45340408151634,1.50575033150355
"1056",17,20,1,2,96,2,1,0,3,0.729636771515807,0.779031523636798
"1057",17,22,1,2,97,2,2,1,3,0.680341656758213,0.721493594382648
"1058",17,20,1,1,98,3,1,1,2,0.652646863332561,0.730565529196235
"1059",17,25,1,1,99,1,1,1,5,0.437630992696934,0.397059421462665
"1060",17,31,1,1,100,2,2,0,2,0.662135729339072,0.620694662075001
"1061",17,37,1,2,101,1,2,1,5,0.289847485093959,0.315013679042392
"1062",17,30,1,2,102,1,1,0,4,0.615159160487593,0.588377507744722
"1063",17,39,1,1,103,1,1,1,4,0.36258248405853,0.312261292960628
"1064",17,21,1,2,104,2,1,0,3,0.733138409913243,0.69190685920051
"1065",17,33,1,2,105,1,2,1,4,0.448974352368828,0.374646771772068
"1066",17,20,1,1,106,3,2,0,2,1.3031235281121,1.32534715937305
"1067",17,22,1,2,107,1,2,1,5,0.418639260555681,0.432436086249885
"1068",17,20,1,1,108,3,1,1,2,0.654516856476989,0.587418612336212
"1069",17,25,1,1,109,3,2,0,2,0.758377467688176,0.772376719469337
"1070",17,31,1,1,110,2,2,0,2,0.882228568590927,0.854377375706835
"1071",17,37,1,1,111,2,2,0,3,0.771402641562407,0.806942735768965
"1072",17,30,1,1,112,3,2,0,1,0.601800910185075,0.525995703522496
"1073",17,39,1,1,113,2,2,0,3,0.777640194374839,0.754118362795386
"1074",17,21,1,1,114,1,1,1,4,0.448946022530504,0.452134409333373
"1075",17,33,1,2,115,3,1,0,1,0.680229344870412,0.633628446334267
"1076",17,20,1,1,116,2,1,1,4,0.684604291630598,0.571739186029922
"1077",17,22,1,2,117,3,1,0,2,1.14559481687898,1.26371496172148
"1078",17,20,1,1,118,1,1,1,5,0.388624964632776,0.445804019084257
"1079",17,25,1,2,119,2,1,0,2,0.849776672241963,0.813636837654217
"1080",17,31,1,1,120,2,1,1,4,0.362046952459778,0.485680297925949
"1081",17,37,1,1,121,2,1,1,4,0.682606015389001,0.639485194139363
"1082",17,30,1,2,122,3,1,0,1,1.34622375473836,1.38172611202875
"1083",17,39,1,2,123,1,2,1,5,0.465209387417304,0.386290571055379
"1084",17,21,1,2,124,2,2,1,4,0.461994650117339,0.34593982028939
"1085",17,33,1,1,125,2,1,1,3,0.371515263962131,0.364522889511545
"1086",17,20,1,1,126,3,1,1,2,0.790441996719225,0.782711605768847
"1087",17,22,1,1,127,3,2,0,2,0.67271263686025,0.595654217108505
"1088",17,20,1,2,128,2,1,0,3,1.0367226313292,1.05201488683191
"1089",17,25,1,1,129,1,1,1,5,0.556839240389413,0.58168114810953
"1090",17,31,1,2,130,2,2,1,3,0.600944557328888,0.674467713768691
"1091",17,37,1,1,131,2,1,1,3,0.699547259285781,0.75978182571526
"1092",17,30,1,2,132,3,2,1,3,1.02663618376143,1.00187215288458
"1093",17,39,1,2,133,1,2,1,4,0.265080824701403,0.272011666706483
"1094",17,21,1,2,134,1,2,1,5,0.343434930243373,0.345192784414948
"1095",17,33,1,1,135,3,2,0,2,1.02816554026009,1.04601858174888
"1096",17,20,1,1,136,3,2,0,1,1.78455159769027,1.76327541759793
"1097",17,22,1,1,137,3,2,0,1,0.310221481954864,0.274556945202673
"1098",17,20,1,1,138,1,2,0,3,0.442956512933906,0.323371512408454
"1099",17,25,1,1,139,3,1,1,2,0.629081653225939,0.593057147702691
"1100",17,31,1,1,140,3,2,0,2,0.630001310874953,0.63876120093802
"1101",17,37,1,2,141,1,2,1,4,0.333704459614199,0.438381148081849
"1102",17,30,1,2,142,3,2,1,2,0.761970834621062,0.760468719851527
"1103",17,39,1,2,143,2,2,1,3,0.584323672644154,0.593952247203061
"1104",17,21,1,2,144,3,2,1,3,0.805440119411071,0.805599381707272
"1105",17,33,1,2,145,3,1,0,2,1.16505388913099,1.08901580037005
"1106",17,20,1,1,146,2,2,0,2,0.57799092812052,0.563122554652512
"1107",17,22,1,1,147,2,2,0,3,0.838633146644324,0.768951912508544
"1108",17,20,1,2,148,3,1,0,1,0.547833554415622,0.528719512726714
"1109",17,25,1,2,149,1,1,0,4,0.605688643533365,0.519542804061751
"1110",17,31,1,2,150,3,1,0,1,0.718889615387956,0.714439966271421
"1111",17,37,1,2,151,3,1,0,2,1.2598101242676,1.21409544887043
"1112",17,30,1,1,152,3,2,0,2,0.285898493347324,0.310293031331984
"1113",17,39,1,1,153,1,1,1,4,0.508290450614936,0.491738145576284
"1114",17,21,1,1,154,2,1,1,4,0.542061402907872,0.487810756256844
"1115",17,33,1,2,155,2,2,1,4,0.532542417090339,0.532006297755777
"1116",17,20,1,1,156,1,1,1,4,0.363586256470991,0.393878551191754
"1117",17,22,1,2,157,2,1,0,3,0.563353052803874,0.531310121352873
"1118",17,20,1,1,158,3,1,1,3,0.791848609770276,0.694486938814954
"1119",17,25,1,1,159,2,2,0,2,0.611443740718078,0.612873096254255
"1120",17,31,1,2,160,3,1,0,2,0.48914734918504,0.550586749390193
"1121",17,37,1,2,161,2,2,1,3,0.745842009868564,0.780252266686959
"1122",17,30,1,1,162,3,1,1,3,1.25222718256066,1.22991424870775
"1123",17,39,1,2,163,1,2,1,5,0.46425910319742,0.545198109258726
"1124",17,21,1,1,164,1,1,1,4,0.631166726234641,0.705302387545012
"1125",17,33,1,1,165,1,1,1,5,0.373548391834532,0.438916639245071
"1126",17,20,1,2,166,1,2,1,5,0.447993849415968,0.488886195185567
"1127",17,22,1,1,167,1,1,1,4,0.341404701865453,0.345163806449744
"1128",17,20,1,1,168,1,1,1,5,0.474770063313332,0.503065907308755
"1129",17,25,1,2,169,3,1,0,1,0.903608059299807,0.957274185714662
"1130",17,31,1,1,170,1,1,1,5,0.4609131452937,0.385756570951752
"1131",17,37,1,1,171,3,2,0,1,0.892222512384508,0.974196059543439
"1132",17,30,1,2,172,2,2,1,4,0.509442169090814,0.577821181627868
"1133",17,39,1,2,173,3,2,1,2,0.920847223015964,0.954012712947081
"1134",17,21,1,2,174,1,1,0,4,0.477543642939878,0.462484264702419
"1135",17,33,1,2,175,1,2,1,4,0.388880392105253,0.402426517462934
"1136",17,20,1,2,176,3,1,0,1,1.49086810491924,1.55498205275246
"1137",17,22,1,1,177,2,2,0,2,0.658191905345815,0.728407426763675
"1138",17,20,1,2,178,2,2,1,3,0.78618927134936,0.832853903953817
"1139",17,25,1,1,179,3,2,0,1,0.713530964128466,0.792004362111929
"1140",17,31,1,1,180,2,1,1,4,0.564920955087982,0.56136344231077
"1141",17,37,1,2,181,3,1,0,1,1.14585400622008,1.22832013269127
"1142",17,30,1,1,182,1,2,0,3,0.485671381138098,0.501494377086639
"1143",17,39,1,1,183,3,2,0,2,0.712629227196372,0.671356813568495
"1144",17,21,1,1,184,3,1,1,3,0.977578613821567,0.950011235149858
"1145",17,33,1,2,185,2,2,1,3,0.475604570604455,0.445334054919837
"1146",17,20,1,2,186,1,1,0,4,0.624477483787638,0.61172811889103
"1147",17,22,1,1,187,2,1,1,3,0.255847609295889,0.215517342508094
"1148",17,20,1,2,188,1,1,0,3,0.488875953899023,0.421741185872924
"1149",17,25,1,2,189,1,2,1,4,0.380166353806923,0.393937728750575
"1150",17,31,1,1,190,1,1,1,4,0.442060824265381,0.416977547497187
"1151",17,37,1,2,191,3,2,1,2,0.888118563617223,0.906737305438683
"1152",17,30,1,1,192,3,2,0,1,1.46245412364671,1.47784938629037
"1153",17,39,1,2,193,2,1,0,2,0.76973689023438,0.817993614747721
"1154",17,21,1,2,194,3,1,0,1,0.73276754894037,0.755752305012746
"1155",17,33,1,1,195,3,1,1,2,0.589123412587202,0.613020093287448
"1156",17,20,1,2,196,3,1,0,1,0.490466337734729,0.478576134901515
"1157",17,22,1,1,197,2,1,1,3,0.605841699389878,0.630185465577568
"1158",17,20,1,1,198,3,1,1,3,0.970348526873618,0.959061682811226
"1159",17,25,1,2,199,1,2,1,4,0.370789663885201,0.359443281511976
"1160",17,31,1,2,200,2,2,1,4,0.65216811767046,0.675550160449987
"1161",17,37,1,1,201,1,1,1,5,0.345591109182826,0.354774223412465
"1162",17,30,1,1,202,1,2,0,3,0.59028716371771,0.647596921920042
"1163",17,39,1,1,203,2,2,0,2,0.832177663121298,0.877837491866057
"1164",17,21,1,2,204,2,2,1,4,0.608205792549989,0.583993082764521
"1165",17,33,1,1,205,3,1,1,3,0.737768569911005,0.670597311116065
"1166",17,20,1,2,206,3,2,1,3,0.895580122355381,0.84051187526498
"1167",17,22,1,2,207,1,2,1,4,0.557776693543329,0.589240735094289
"1168",17,20,1,1,208,1,1,1,4,0.395064456948477,0.416916843078428
"1169",17,25,1,1,209,2,2,0,2,0.796370493318457,0.763636782698948
"1170",17,31,1,1,210,2,2,0,3,0.955819857583194,0.994514105047495
"1171",17,37,1,2,211,3,1,0,1,0.505194394955901,0.484066253790181
"1172",17,30,1,2,212,3,1,0,1,1.285507139486,1.30631600193481
"1173",17,39,1,2,213,1,1,0,3,0.446679605202584,0.569679466562621
"1174",17,21,1,1,214,3,1,1,3,0.977715282482795,0.983435213728032
"1175",17,33,1,1,215,3,1,1,3,0.618202259872045,0.612427129112562
"1176",17,20,1,1,216,2,1,1,4,0.577645157654629,0.571954780917617
"1177",17,22,1,2,217,1,2,1,5,0.400861059972731,0.425021490908638
"1178",17,20,1,1,218,3,1,1,2,0.760602328025268,0.734253068002212
"1179",17,25,1,1,219,1,2,0,4,0.522440468927163,0.596157959686652
"1180",17,31,1,2,220,2,2,1,3,0.569026898448164,0.579169658593835
"1181",17,37,1,1,221,1,2,0,3,0.390064047237647,0.417801012189679
"1182",17,30,1,2,222,1,2,1,5,0.373866841252917,0.324731892068815
"1183",17,39,1,2,223,1,2,1,4,0.358106720743706,0.39264436283428
"1184",17,21,1,2,224,2,2,1,4,0.535653838724489,0.560659812379662
"1185",17,33,1,2,225,2,1,0,3,0.651918134525889,0.77395446586023
"1186",17,20,1,2,226,1,2,1,5,0.458240749819599,0.50285861063162
"1187",17,22,1,2,227,3,1,0,1,1.61195287249176,1.68720551746044
"1188",17,20,1,1,228,2,1,1,4,0.672448582723093,0.648935579794422
"1189",17,25,1,2,229,2,1,0,3,0.169467194151346,0.146753334536654
"1190",17,31,1,2,230,1,2,1,5,0.411554877535441,0.480554645095453
"1191",17,37,1,1,231,1,1,1,4,0.451309087739514,0.367841758248502
"1192",17,30,1,1,232,3,1,1,2,0.709824237996904,0.744677108039115
"1193",17,39,1,1,233,1,1,1,5,0.295002098705115,0.363115870934407
"1194",17,21,1,1,234,1,1,1,5,0.434029839952006,0.369061002710501
"1195",17,33,1,1,235,2,2,0,2,0.501897728445414,0.466195944739053
"1196",17,20,1,1,236,1,1,1,4,0.429832112033326,0.376879033106128
"1197",17,22,1,1,237,1,1,1,5,0.327206253886356,0.25963784308298
"1198",17,20,1,1,238,2,2,0,2,0.685037828591094,0.723079489869031
"1199",17,25,1,1,239,2,1,1,3,0.585498821126212,0.536413611382026
"1200",17,31,1,1,240,1,1,1,4,0.364914874573991,0.355705053034917
"1201",16,23,2,2,1,3,2,1,3,0.571775487489231,0.615912918223546
"1202",16,31,2,1,2,3,2,0,2,1.42551744678311,1.34457793058396
"1203",16,34,2,2,3,3,1,0,1,1.226817579567,1.20900647047412
"1204",16,37,2,2,4,3,1,0,2,1.0997667471299,1.12052535921278
"1205",16,26,2,1,5,3,2,0,2,1.0613945223487,1.1702977979995
"1206",16,24,2,1,6,2,1,1,3,0.596385055455093,0.575579156625424
"1207",16,22,2,2,7,2,1,0,2,0.445823833608925,0.44701484198564
"1208",16,40,2,1,8,2,1,1,4,0.505210197307005,0.517090724774143
"1209",16,25,2,1,9,2,1,1,3,0.654160794174586,0.581125730053701
"1210",16,34,2,2,10,3,1,0,1,1.30540950788014,1.35546255974162
"1211",16,23,2,2,11,1,2,1,5,0.383213585280867,0.414029884643334
"1212",16,31,2,2,12,3,1,0,2,0.733046366413291,0.735905753891831
"1213",16,34,2,2,13,2,2,1,3,0.767090025522118,0.749951445342085
"1214",16,37,2,2,14,3,2,1,2,0.96105282186542,0.965835877858286
"1215",16,26,2,2,15,1,2,1,5,0.435683343487977,0.392037497326164
"1216",16,24,2,2,16,1,2,1,4,0.437192808815089,0.418465845104083
"1217",16,22,2,2,17,1,2,1,4,0.404827491521439,0.375427613718292
"1218",16,40,2,1,18,2,1,1,4,0.556972824693092,0.551448219773993
"1219",16,25,2,1,19,2,2,0,2,0.623379074969989,0.579640155530531
"1220",16,34,2,2,20,3,2,1,2,0.721655246370749,0.59081256780566
"1221",16,23,2,1,21,3,1,1,2,0.542309795684505,0.607167838132435
"1222",16,31,2,1,22,3,1,1,3,0.810435734446952,0.871085734291154
"1223",16,34,2,2,23,1,1,0,3,0.503852491332699,0.513729176417373
"1224",16,37,2,2,24,2,1,0,2,0.699330517773224,0.714739779912289
"1225",16,26,2,1,25,2,2,0,3,0.805459862296424,0.88516433342639
"1226",16,24,2,1,26,1,1,1,4,0.459284934878356,0.473107106391437
"1227",16,22,2,1,27,1,2,0,3,0.640130323336675,0.684142211678441
"1228",16,40,2,1,28,3,1,1,3,0.427638124057225,0.508183315604797
"1229",16,25,2,2,29,1,2,1,4,0.444883042875464,0.449112445509177
"1230",16,34,2,2,30,2,1,0,2,0.737593094551342,0.701554801939074
"1231",16,23,2,2,31,2,2,1,3,0.652343530302887,0.692528176117188
"1232",16,31,2,1,32,1,1,1,5,0.334645851711645,0.338950515448546
"1233",16,34,2,1,33,1,1,1,4,0.354120530960244,0.424952266336295
"1234",16,37,2,2,34,1,1,0,3,0.49903904127409,0.495101683714517
"1235",16,26,2,2,35,1,2,1,5,0.450121797361222,0.35479202284055
"1236",16,24,2,2,36,3,1,0,2,0.814484217777623,0.820702374828764
"1237",16,22,2,1,37,2,2,0,2,0.66739945999663,0.750018244668806
"1238",16,40,2,1,38,1,1,1,5,0.498546420444739,0.464239636455483
"1239",16,25,2,2,39,3,1,0,2,0.451364369992772,0.473326844018446
"1240",16,34,2,2,40,1,2,1,5,0.60817718219166,0.44571454505501
"1241",16,23,2,2,41,1,1,0,4,0.49404296768692,0.442176008493802
"1242",16,31,2,1,42,3,1,1,3,0.983227653977609,1.02127342205208
"1243",16,34,2,1,43,2,1,1,4,0.433094498791652,0.440921837774012
"1244",16,37,2,2,44,1,2,1,5,0.358680661143806,0.301554452544688
"1245",16,26,2,2,45,3,2,1,2,0.632271152101262,0.632530057884764
"1246",16,24,2,1,46,3,2,0,1,1.42075953110119,1.4023318141312
"1247",16,22,2,1,47,1,1,1,4,0.390173579081167,0.443250193741917
"1248",16,40,2,1,48,2,1,1,4,0.47467114418032,0.554361402074025
"1249",16,25,2,1,49,3,2,0,2,1.10942225496127,1.12809170936556
"1250",16,34,2,2,50,2,2,1,4,0.462945381293339,0.526831478178831
"1251",16,23,2,1,51,1,1,1,4,0.475206276958157,0.516159023839174
"1252",16,31,2,2,52,3,2,1,2,1.04619833547253,1.03359773293403
"1253",16,34,2,2,53,1,2,1,4,0.433460735128723,0.408506002629023
"1254",16,37,2,1,54,3,1,1,3,0.791445101230773,0.705343360822699
"1255",16,26,2,2,55,1,1,0,3,0.776119863406876,0.783432547201985
"1256",16,24,2,2,56,1,2,1,4,0.32447685164256,0.374408716959648
"1257",16,22,2,1,57,1,1,1,4,0.375092163504112,0.410163048728564
"1258",16,40,2,2,58,2,2,1,3,0.692273778526611,0.731219639053608
"1259",16,25,2,2,59,3,2,1,3,0.791872302223317,0.822981305240645
"1260",16,34,2,1,60,1,1,1,4,0.385070524492737,0.425984573924616
"1261",16,23,2,2,61,2,2,1,3,0.598006613813432,0.597437894842127
"1262",16,31,2,1,62,3,1,1,2,0.871475797232685,0.819806374476199
"1263",16,34,2,2,63,3,1,0,2,1.1749021841987,1.1419880929452
"1264",16,37,2,1,64,2,1,1,3,0.699190993070674,0.683494367250617
"1265",16,26,2,1,65,1,1,1,5,0.432343255672905,0.420532341707221
"1266",16,24,2,1,66,3,1,1,2,0.764305098933713,0.855532051146615
"1267",16,22,2,2,67,2,1,0,2,0.905049864359047,0.913267803409465
"1268",16,40,2,1,68,3,1,1,2,0.766207150484264,0.746274100839746
"1269",16,25,2,1,69,2,1,1,4,0.611774643543071,0.565644334811961
"1270",16,34,2,2,70,2,1,0,2,0.8529697104136,0.908411238606175
"1271",16,23,2,2,71,2,2,1,4,0.678615842369157,0.724664852766667
"1272",16,31,2,2,72,3,2,1,3,1.34145926860453,1.32505457803808
"1273",16,34,2,1,73,2,2,0,2,0.754081756564491,0.746382725237002
"1274",16,37,2,2,74,3,2,1,2,0.728139954610851,0.664773527807958
"1275",16,26,2,2,75,1,2,1,5,0.370600938272102,0.313091518279144
"1276",16,24,2,1,76,2,2,0,2,0.484531299103236,0.448622815070155
"1277",16,22,2,1,77,1,1,1,5,0.429851647389031,0.444708617480328
"1278",16,40,2,1,78,2,2,0,2,0.809142069030247,0.885741604746355
"1279",16,25,2,2,79,1,2,1,4,0.483958563301356,0.527413613243549
"1280",16,34,2,2,80,3,1,0,2,0.740276778415283,0.738477880547362
"1281",16,23,2,2,81,1,2,1,5,0.430998870585116,0.463229053587992
"1282",16,31,2,2,82,1,2,1,4,0.484403469173573,0.506936963040835
"1283",16,34,2,1,83,2,2,0,3,0.544511097713625,0.50308666243227
"1284",16,37,2,2,84,2,2,1,4,0.758262062642267,0.732188896185467
"1285",16,26,2,1,85,1,1,1,4,0.404528017327112,0.400228557536145
"1286",16,24,2,1,86,3,1,1,2,0.758767941965602,0.777456935756211
"1287",16,22,2,1,87,1,2,0,4,0.727815023367514,0.770699201691189
"1288",16,40,2,1,88,3,1,1,2,0.914812672664397,0.886616581516938
"1289",16,25,2,1,89,1,1,1,4,0.468292684188046,0.524417734283958
"1290",16,34,2,2,90,1,2,1,4,0.444716649816192,0.521965118912275
"1291",16,23,2,1,91,1,1,1,4,0.459483595079655,0.506047728123058
"1292",16,31,2,1,92,2,1,1,4,0.698325308241163,0.609379189299574
"1293",16,34,2,2,93,2,1,0,3,0.846855318658979,0.883783067336613
"1294",16,37,2,2,94,3,2,1,2,0.918925996290041,0.839717900460147
"1295",16,26,2,2,95,3,1,0,2,0.88558498710002,0.844080593838908
"1296",16,24,2,1,96,2,1,1,3,0.498645340187118,0.42742698834487
"1297",16,22,2,2,97,2,2,1,4,0.60754812999192,0.605446708396467
"1298",16,40,2,1,98,3,2,0,1,1.20648514609414,1.24865215541915
"1299",16,25,2,1,99,3,1,1,3,1.2260902371177,1.20562482751322
"1300",16,34,2,1,100,2,1,1,3,0.457826127349963,0.420720549878046
"1301",16,23,2,2,101,2,2,1,4,0.425150300148583,0.421955048645644
"1302",16,31,2,2,102,3,2,1,3,0.753500606557177,0.658499223152383
"1303",16,34,2,1,103,2,2,0,3,0.702256627856924,0.745605917954456
"1304",16,37,2,1,104,1,2,0,4,0.647893993510909,0.608803751346239
"1305",16,26,2,1,105,1,2,0,4,0.607482462562781,0.573467162417526
"1306",16,24,2,2,106,3,1,0,1,1.267798767757,1.34680939847881
"1307",16,22,2,1,107,3,1,1,3,0.717402947415567,0.703619154982604
"1308",16,40,2,1,108,1,1,1,4,0.358138427956275,0.398463486295048
"1309",16,25,2,2,109,3,1,0,1,0.803078609821418,0.884367657088314
"1310",16,34,2,1,110,1,1,1,4,0.360697090847192,0.370427815172573
"1311",16,23,2,2,111,2,2,1,3,0.660204717834242,0.663878368114772
"1312",16,31,2,2,112,2,2,1,4,0.377574884931798,0.31228536002371
"1313",16,34,2,2,113,2,1,0,3,0.616426670319106,0.596666565442457
"1314",16,37,2,1,114,1,1,1,5,0.489187054500539,0.498574743643422
"1315",16,26,2,1,115,3,2,0,2,0.831349550830137,0.934359024029753
"1316",16,24,2,1,116,1,1,1,4,0.453649502894803,0.461481901399971
"1317",16,22,2,2,117,3,2,1,3,0.575286654485389,0.565696441559764
"1318",16,40,2,1,118,2,1,1,3,0.693379346790313,0.679566800728501
"1319",16,25,2,2,119,2,2,1,4,0.637012050182595,0.565359144261441
"1320",16,34,2,1,120,2,1,1,3,0.618114517696247,0.591081958537769
"1321",16,23,2,2,121,1,2,1,5,0.501809492242868,0.447278877708179
"1322",16,31,2,2,122,3,1,0,2,1.00851101522057,1.06780310132108
"1323",16,34,2,1,123,2,1,1,4,0.521674091589682,0.608541697102508
"1324",16,37,2,1,124,3,2,0,1,1.13430480160144,1.11823767293929
"1325",16,26,2,2,125,2,2,1,4,0.489233113927372,0.509525176975459
"1326",16,24,2,1,126,2,2,0,2,0.53178585772523,0.444622027413929
"1327",16,22,2,1,127,1,1,1,5,0.380057403483739,0.275479589686507
"1328",16,40,2,1,128,2,2,0,3,0.518770215323218,0.468113377194598
"1329",16,25,2,1,129,1,1,1,5,0.223753268051493,0.248494022693402
"1330",16,34,2,2,130,3,1,0,2,0.603567441148656,0.577776958631412
"1331",16,23,2,1,131,2,1,1,4,0.46598690982852,0.570959202126874
"1332",16,31,2,1,132,3,2,0,2,1.15036327377177,1.16219861828972
"1333",16,34,2,1,133,3,1,1,2,1.03925229796704,1.08238919969495
"1334",16,37,2,1,134,1,2,0,4,0.594501069129587,0.559693654562928
"1335",16,26,2,2,135,3,2,1,2,0.614163642673432,0.641507873577918
"1336",16,24,2,2,136,2,2,1,4,0.630954779993955,0.684264068306778
"1337",16,22,2,2,137,3,1,0,1,1.70967033845855,1.71819733300398
"1338",16,40,2,2,138,1,2,1,5,0.28349278899389,0.139100419130156
"1339",16,25,2,2,139,1,1,0,3,0.521877923863943,0.539929929763484
"1340",16,34,2,2,140,1,2,1,4,0.42830329595067,0.481504149817609
"1341",16,23,2,2,141,2,1,0,3,1.00810419951772,1.06503522427357
"1342",16,31,2,2,142,3,1,0,1,1.05683122844833,1.08033860756042
"1343",16,34,2,2,143,3,1,0,2,1.03276739565707,1.05508524010393
"1344",16,37,2,2,144,1,1,0,3,0.565193207719509,0.627568200964884
"1345",16,26,2,2,145,3,2,1,3,0.820103762476838,0.793070512692959
"1346",16,24,2,2,146,1,2,1,5,0.389763305771167,0.395599128703477
"1347",16,22,2,2,147,1,2,1,4,0.319458851746511,0.346361837857608
"1348",16,40,2,2,148,2,2,1,3,0.679612396596027,0.698848944266735
"1349",16,25,2,2,149,1,2,1,4,0.503289871613373,0.490785742884065
"1350",16,34,2,2,150,3,2,1,2,0.816280009195836,0.83904830637983
"1351",16,23,2,1,151,2,1,1,4,0.687792037653346,0.676373111573857
"1352",16,31,2,1,152,1,2,0,3,0.539561487640943,0.572614341768963
"1353",16,34,2,2,153,2,2,1,4,0.63934279803486,0.58315335529607
"1354",16,37,2,1,154,3,1,1,3,0.824751597411209,0.838190444673893
"1355",16,26,2,2,155,2,1,0,3,0.719570454178777,0.719458614378814
"1356",16,24,2,1,156,2,2,0,3,0.773942878500302,0.758865192855887
"1357",16,22,2,1,157,1,1,1,5,0.406920186209536,0.466393996895594
"1358",16,40,2,2,158,3,1,0,1,1.90922546389849,1.87977563909891
"1359",16,25,2,1,159,1,1,1,5,0.421782769054211,0.371945687761522
"1360",16,34,2,2,160,2,1,0,3,1.03889704962425,1.01903160128836
"1361",16,23,2,1,161,2,1,1,4,0.479045525953806,0.559356750539131
"1362",16,31,2,1,162,3,1,1,3,0.851684865625793,0.758464905263095
"1363",16,34,2,1,163,1,2,0,4,0.39754383062063,0.351859807485545
"1364",16,37,2,1,164,1,1,1,5,0.350134043977637,0.37005054056885
"1365",16,26,2,2,165,3,1,0,2,1.01282702732851,0.989073046182582
"1366",16,24,2,1,166,3,1,1,3,0.73386462848792,0.765511055692275
"1367",16,22,2,1,167,2,2,0,3,0.684742562523779,0.662927489532407
"1368",16,40,2,1,168,2,1,1,4,0.652399727462434,0.645354025812734
"1369",16,25,2,2,169,3,1,0,1,1.41836545055196,1.45941031035035
"1370",16,34,2,1,170,3,2,0,2,1.07122330704148,0.992159688507503
"1371",16,23,2,2,171,2,2,1,3,0.654257282137122,0.640384258383203
"1372",16,31,2,1,172,1,1,1,5,0.367394361750469,0.358956734489302
"1373",16,34,2,2,173,3,1,0,2,0.951255915188255,0.9380588510334
"1374",16,37,2,2,174,1,2,1,4,0.498277849313378,0.411633286754662
"1375",16,26,2,2,175,2,2,1,4,0.485106465743329,0.449346514019362
"1376",16,24,2,2,176,2,2,1,4,0.670731977504047,0.683916452913648
"1377",16,22,2,2,177,3,1,0,2,0.527358724936395,0.520080996760853
"1378",16,40,2,2,178,1,2,1,5,0.338526015787775,0.406455286991004
"1379",16,25,2,1,179,3,1,1,3,0.582485223095156,0.6222141055318
"1380",16,34,2,2,180,1,2,1,5,0.397629073876368,0.354385432704601
"1381",16,23,2,2,181,1,2,1,4,0.534402306244723,0.451922615592966
"1382",16,31,2,1,182,1,2,0,4,0.485009985491732,0.441507969257265
"1383",16,34,2,1,183,1,1,1,4,0.395063328948029,0.446679168766984
"1384",16,37,2,1,184,2,1,1,4,0.782719192923513,0.776198875182972
"1385",16,26,2,1,185,1,1,1,4,0.255947585285277,0.260391811961516
"1386",16,24,2,1,186,2,2,0,2,0.763827905852926,0.698209587335705
"1387",16,22,2,1,187,2,2,0,3,0.96177766456694,0.994402238220909
"1388",16,40,2,2,188,1,1,0,4,0.63206287123504,0.539817231754676
"1389",16,25,2,1,189,1,1,1,4,0.395122362848691,0.37493430512591
"1390",16,34,2,1,190,1,1,1,5,0.482810719150406,0.548554889722389
"1391",16,23,2,1,191,2,2,0,3,0.444294849708819,0.336593518198555
"1392",16,31,2,2,192,1,2,1,4,0.591211295481819,0.64721804740502
"1393",16,34,2,2,193,2,1,0,3,0.655346252992032,0.698104624436243
"1394",16,37,2,1,194,3,2,0,1,0.849995209231931,0.868780516516034
"1395",16,26,2,2,195,3,2,1,3,0.710231308720537,0.793122236793556
"1396",16,24,2,2,196,3,1,0,1,0.955105158212377,0.877970025397345
"1397",16,22,2,1,197,3,2,0,2,0.806098653475367,0.766536125100327
"1398",16,40,2,1,198,2,2,0,2,0.764747180774752,0.749699176867389
"1399",16,25,2,1,199,2,2,0,2,0.620514241198722,0.662786121474812
"1400",16,34,2,2,200,2,1,0,2,0.660941970191526,0.654193427176276
"1401",16,23,2,2,201,2,2,1,3,0.516555215941867,0.515849982420287
"1402",16,31,2,2,202,3,1,0,2,0.868162245309484,0.832600339427623
"1403",16,34,2,1,203,2,1,1,3,0.807316283596983,0.786249626609089
"1404",16,37,2,2,204,2,1,0,3,0.822508650618521,0.864056156887058
"1405",16,26,2,2,205,3,1,0,2,1.25085204269776,1.23480994107913
"1406",16,24,2,2,206,2,1,0,2,0.638773539851572,0.621728216873489
"1407",16,22,2,1,207,1,1,1,4,0.463544102119545,0.437718233036981
"1408",16,40,2,1,208,1,1,1,5,0.298837693664294,0.368886461688457
"1409",16,25,2,1,209,3,1,1,3,1.0265190846744,1.07472473662713
"1410",16,34,2,1,210,1,1,1,4,0.383466455099768,0.328319183962725
"1411",16,23,2,2,211,1,2,1,4,0.600979707318716,0.644419666358982
"1412",16,31,2,1,212,3,2,0,2,0.553787515084616,0.497465641746261
"1413",16,34,2,2,213,3,2,1,3,0.968379711540569,0.970777831838731
"1414",16,37,2,1,214,1,2,0,4,0.557241907459931,0.63048006053089
"1415",16,26,2,1,215,2,1,1,3,0.670346571849597,0.589220878391475
"1416",16,24,2,1,216,3,1,1,2,0.642701970791989,0.727102220906216
"1417",16,22,2,1,217,2,1,1,3,0.757682044906611,0.805026389006096
"1418",16,40,2,2,218,1,2,1,5,0.389684130317722,0.35393207783914
"1419",16,25,2,1,219,2,1,1,4,0.639703174778673,0.611810640984404
"1420",16,34,2,2,220,2,2,1,4,0.72047224517856,0.691215193236085
"1421",16,23,2,1,221,1,1,1,5,0.397902381518028,0.449653790055929
"1422",16,31,2,1,222,1,1,1,5,0.356140849426501,0.342967018141355
"1423",16,34,2,2,223,2,2,1,3,0.582172107723675,0.5507122361156
"1424",16,37,2,1,224,3,1,1,3,0.535591833697537,0.563850149879569
"1425",16,26,2,2,225,3,2,1,2,0.62459113319908,0.642043454258657
"1426",16,24,2,2,226,3,1,0,2,1.71813967399327,1.64117277654529
"1427",16,22,2,1,227,3,2,0,2,1.50642119272891,1.51131305278432
"1428",16,40,2,1,228,3,1,1,2,0.647651052047744,0.659895630700563
"1429",16,25,2,2,229,2,2,1,3,0.657641068760213,0.665660762647678
"1430",16,34,2,2,230,2,2,1,4,0.632771455101681,0.595775961907752
"1431",16,23,2,2,231,3,1,0,2,1.38358117370608,1.36513858028809
"1432",16,31,2,1,232,1,1,1,5,0.453478436527745,0.561041542701106
"1433",16,34,2,2,233,1,2,1,4,0.518797659600891,0.584701438384642
"1434",16,37,2,2,234,3,1,0,2,1.01326409911117,0.957218130305576
"1435",16,26,2,1,235,3,2,0,2,1.1937407182356,1.24162571422276
"1436",16,24,2,1,236,3,2,0,1,1.05670337795575,1.05649230570812
"1437",16,22,2,2,237,1,1,0,3,0.419866336722125,0.397704693616136
"1438",16,40,2,1,238,1,1,1,5,0.471930544199626,0.456128538788396
"1439",16,25,2,2,239,2,1,0,3,0.72342529860203,0.733404183083267
"1440",16,34,2,1,240,2,1,1,4,0.641900958000729,0.6364349778015
"1441",15,34,1,2,1,2,1,0,2,0.624847029734484,0.59268992863748
"1442",15,31,1,1,2,2,1,1,3,0.384542970092436,0.308839469829842
"1443",15,25,1,1,3,3,2,0,2,0.955308240036842,0.962654047455321
"1444",15,28,1,2,4,1,2,1,4,0.38470014061519,0.413581937269268
"1445",15,39,1,2,5,2,1,0,3,0.906828043752625,0.805953979614155
"1446",15,32,1,2,6,1,2,1,4,0.461397586712439,0.447971682353053
"1447",15,25,1,1,7,1,1,1,4,0.511813233016276,0.576838327506783
"1448",15,26,1,1,8,3,2,0,1,0.891683678065202,0.84947195984577
"1449",15,18,1,2,9,2,2,1,3,0.556983253130506,0.473117531907904
"1450",15,23,1,2,10,2,2,1,4,0.693697714634829,0.697933977432065
"1451",15,34,1,1,11,2,1,1,4,0.909239105959382,0.894993306144298
"1452",15,31,1,2,12,1,1,0,4,0.571461676897537,0.658381661383728
"1453",15,25,1,2,13,1,1,0,4,0.533568835206532,0.508108269690842
"1454",15,28,1,2,14,3,1,0,1,1.2299390087579,1.18282159601063
"1455",15,39,1,2,15,3,1,0,2,0.615154320095988,0.678193975733758
"1456",15,32,1,2,16,1,2,1,4,0.462189173178206,0.422824798920551
"1457",15,25,1,1,17,2,2,0,3,0.458915873318793,0.48824226709843
"1458",15,26,1,1,18,3,1,1,3,0.451987179496541,0.448690683565762
"1459",15,18,1,2,19,1,2,1,5,0.324009921753908,0.34120616650123
"1460",15,23,1,2,20,2,1,0,2,0.495868020571645,0.598783097372363
"1461",15,34,1,1,21,1,2,0,3,0.534499151287718,0.552148340312707
"1462",15,31,1,1,22,1,1,1,5,0.422235025815462,0.486034017374946
"1463",15,25,1,2,23,3,1,0,1,0.728756101885601,0.720279096987106
"1464",15,28,1,1,24,1,1,1,4,0.502132194248776,0.529860678635943
"1465",15,39,1,1,25,3,2,0,2,0.818397513441663,0.865829543929378
"1466",15,32,1,2,26,2,2,1,4,0.575986371863941,0.538913094720348
"1467",15,25,1,2,27,1,2,1,4,0.311063043877377,0.358329595672093
"1468",15,26,1,1,28,3,1,1,3,0.740186949836283,0.792220150569771
"1469",15,18,1,2,29,2,2,1,4,0.801940986196282,0.83758097777099
"1470",15,23,1,1,30,1,1,1,5,0.485265629222263,0.598248399489761
"1471",15,34,1,1,31,1,1,1,4,0.264497551138744,0.315318421821948
"1472",15,31,1,1,32,1,1,1,4,0.292226516896807,0.309289353790558
"1473",15,25,1,1,33,2,2,0,3,0.599681360713334,0.635355032158446
"1474",15,28,1,1,34,3,1,1,2,0.457902145962814,0.387955486622995
"1475",15,39,1,2,35,2,2,1,4,0.431532398052566,0.466760465986695
"1476",15,32,1,2,36,2,1,0,3,0.76251789828514,0.73217931288685
"1477",15,25,1,2,37,3,1,0,2,1.35213699720827,1.38013204457976
"1478",15,26,1,2,38,1,2,1,4,0.52018260679378,0.469292228871417
"1479",15,18,1,1,39,2,1,1,4,0.56608036803077,0.538502991164621
"1480",15,23,1,1,40,2,2,0,3,0.527006787781084,0.531116851324621
"1481",15,34,1,1,41,2,2,0,2,1.0070994508407,0.997464529509816
"1482",15,31,1,1,42,1,1,1,4,0.386510695312257,0.394469632214098
"1483",15,25,1,1,43,2,1,1,3,0.5887120713502,0.583509235761597
"1484",15,28,1,1,44,1,1,1,4,0.495035043578132,0.445423559488067
"1485",15,39,1,1,45,3,2,0,1,1.39905911295366,1.33243933588077
"1486",15,32,1,1,46,1,2,0,4,0.611308993764046,0.614629818917236
"1487",15,25,1,2,47,3,1,0,2,0.703773699603792,0.659033274298695
"1488",15,26,1,2,48,1,2,1,4,0.362604630423952,0.338667245493198
"1489",15,18,1,2,49,2,2,1,4,0.599729129073286,0.564245401335048
"1490",15,23,1,1,50,1,1,1,5,0.416691792938286,0.363591814490329
"1491",15,34,1,2,51,2,1,0,3,0.569422729602822,0.55045243063136
"1492",15,31,1,1,52,3,1,1,2,0.221256793897079,0.150049204467628
"1493",15,25,1,2,53,3,1,0,1,1.36985670849528,1.35357997597014
"1494",15,28,1,1,54,2,1,1,4,0.771034767923941,0.710794070480783
"1495",15,39,1,2,55,2,2,1,3,0.703923221844001,0.738005812518765
"1496",15,32,1,2,56,1,2,1,5,0.370297309048556,0.273089604192449
"1497",15,25,1,2,57,2,2,1,4,0.517940567557657,0.534538147340621
"1498",15,26,1,2,58,3,1,0,1,1.09214959225691,1.11743175829516
"1499",15,18,1,2,59,1,2,1,4,0.481172468149433,0.485209549933531
"1500",15,23,1,2,60,1,2,1,4,0.287815224206739,0.336596013322463
"1501",15,34,1,1,61,3,2,0,2,1.24014177743338,1.23453086258103
"1502",15,31,1,2,62,2,1,0,2,0.676725094977058,0.609065843272625
"1503",15,25,1,1,63,3,1,1,2,0.961887139273886,0.986916638148552
"1504",15,28,1,1,64,3,2,0,2,0.800115635620089,0.780470413758878
"1505",15,39,1,1,65,1,1,1,4,0.292000500995376,0.271339641946361
"1506",15,32,1,1,66,2,1,1,4,0.663555788802665,0.621003714666164
"1507",15,25,1,1,67,2,1,1,3,0.583335241739718,0.603847326140076
"1508",15,26,1,1,68,1,1,1,5,0.522437723106748,0.606324721017353
"1509",15,18,1,1,69,3,1,1,2,1.00180149642248,0.982562252371067
"1510",15,23,1,2,70,3,2,1,2,0.808522158363261,0.784722661559129
"1511",15,34,1,1,71,2,2,0,3,1.00640551216103,0.996102303450829
"1512",15,31,1,2,72,1,2,1,5,0.430991986227688,0.382165629919167
"1513",15,25,1,1,73,3,2,0,2,0.777707076667128,0.88532983450817
"1514",15,28,1,2,74,1,2,1,5,0.475169892170199,0.427362050581189
"1515",15,39,1,1,75,1,2,0,4,0.610623690486665,0.572079734134028
"1516",15,32,1,2,76,3,1,0,1,0.645695322929919,0.655237555940321
"1517",15,25,1,1,77,3,2,0,2,0.873061010985808,0.871471426038728
"1518",15,26,1,1,78,3,2,0,1,1.36415585915688,1.34822249230342
"1519",15,18,1,2,79,1,2,1,4,0.446209052508267,0.450884780013513
"1520",15,23,1,2,80,3,1,0,2,1.1827847503098,1.20127420846063
"1521",15,34,1,2,81,1,2,1,5,0.418180299080938,0.42064891973676
"1522",15,31,1,2,82,1,2,1,5,0.328495069005,0.307774898347724
"1523",15,25,1,2,83,3,1,0,2,0.939584630966516,1.02941537864682
"1524",15,28,1,2,84,2,1,0,3,0.567266320961787,0.621489886827046
"1525",15,39,1,2,85,3,2,1,2,0.637450709004525,0.55777016205213
"1526",15,32,1,1,86,1,2,0,4,0.517756409258417,0.561649368307827
"1527",15,25,1,2,87,2,2,1,3,0.469842735438137,0.445473719031137
"1528",15,26,1,1,88,2,1,1,4,0.60527770471513,0.585583598076468
"1529",15,18,1,1,89,1,1,1,4,0.514931310930766,0.568973936443194
"1530",15,23,1,2,90,1,2,1,5,0.483307259259796,0.475255008763192
"1531",15,34,1,2,91,1,2,1,5,0.372358769766662,0.354972439194338
"1532",15,31,1,2,92,3,1,0,2,1.19022021322689,1.26540933514485
"1533",15,25,1,1,93,1,1,1,5,0.38225712128152,0.308874853315201
"1534",15,28,1,2,94,1,1,0,4,0.494792308720234,0.468882540304469
"1535",15,39,1,2,95,1,2,1,4,0.404719020094195,0.327227154335247
"1536",15,32,1,2,96,2,2,1,3,0.679390650152235,0.686146848908079
"1537",15,25,1,2,97,3,1,0,2,1.09190766265634,1.16536527824908
"1538",15,26,1,1,98,2,2,0,3,0.838863947037633,0.852819696381014
"1539",15,18,1,1,99,3,2,0,1,0.824419012372341,0.868090146123092
"1540",15,23,1,2,100,3,1,0,1,0.601763047714695,0.675732207347225
"1541",15,34,1,2,101,3,2,1,3,0.727655867387032,0.715789100017251
"1542",15,31,1,1,102,2,2,0,2,0.471302471667245,0.560203329538022
"1543",15,25,1,2,103,2,1,0,2,0.62171365182376,0.541497263439311
"1544",15,28,1,1,104,2,1,1,4,0.400126913608917,0.362990605221329
"1545",15,39,1,1,105,3,1,1,2,0.711165179380797,0.725982953392196
"1546",15,32,1,2,106,2,1,0,2,0.612491012664505,0.510753628024024
"1547",15,25,1,2,107,1,1,0,4,0.398385442846964,0.291541739983267
"1548",15,26,1,2,108,3,1,0,2,0.959968323556133,0.929416081245371
"1549",15,18,1,1,109,1,1,1,5,0.410737445747423,0.405066367591438
"1550",15,23,1,2,110,2,2,1,4,0.682439282015223,0.676434530399023
"1551",15,34,1,2,111,2,2,1,4,0.53550479967097,0.485230287702929
"1552",15,31,1,2,112,2,1,0,3,0.739398639976458,0.779476732003556
"1553",15,25,1,1,113,3,2,0,2,0.762119091279564,0.801255337011064
"1554",15,28,1,2,114,2,2,1,4,0.750750392438859,0.721141347538204
"1555",15,39,1,2,115,2,2,1,3,0.428463699873626,0.398734078973488
"1556",15,32,1,2,116,2,1,0,3,0.749184481261282,0.758896037171587
"1557",15,25,1,1,117,3,1,1,3,1.01218747865251,0.971430899400886
"1558",15,26,1,1,118,3,1,1,3,0.695604377656813,0.636437424746742
"1559",15,18,1,1,119,2,2,0,2,0.642730323785251,0.727557131536308
"1560",15,23,1,1,120,2,1,1,4,0.603696125686537,0.5285253572025
"1561",15,34,1,1,121,2,2,0,3,0.70915321015336,0.75264887913958
"1562",15,31,1,2,122,3,2,1,2,0.732801798092675,0.709622560191482
"1563",15,25,1,1,123,1,2,0,3,0.577308681288848,0.564482631100458
"1564",15,28,1,1,124,3,1,1,2,0.45123920016742,0.39420969342125
"1565",15,39,1,2,125,3,1,0,2,1.18270167562796,1.23773143766586
"1566",15,32,1,2,126,1,1,0,4,0.612609577011457,0.567750738116192
"1567",15,25,1,1,127,1,1,1,5,0.237541150699226,0.275199834552455
"1568",15,26,1,2,128,1,2,1,4,0.486186320805699,0.477965179520271
"1569",15,18,1,2,129,1,2,1,5,0.393396989221176,0.294896567738994
"1570",15,23,1,2,130,1,2,1,5,0.567243646021475,0.591945075061782
"1571",15,34,1,1,131,1,1,1,5,0.416523856303808,0.412436338439029
"1572",15,31,1,1,132,2,1,1,3,0.680146595956468,0.678195321553952
"1573",15,25,1,1,133,3,2,0,1,1.21088043201095,1.29963908929746
"1574",15,28,1,1,134,3,2,0,1,1.06529209478809,1.13640298982077
"1575",15,39,1,1,135,1,2,0,4,0.618394184940402,0.627756488855055
"1576",15,32,1,2,136,3,2,1,2,0.850849318384496,0.924948988262539
