"","subj_no","age","group","stim","trial","difficulty","resp","corr","conf","RT_day1","RT_day2"
"1",22,26,2,1,1,1,2,0,3,0.521579072106468,0.548737662657049
"2",22,18,2,1,2,2,1,1,3,0.659922338778205,0.58723678818924
"3",22,34,2,1,3,2,1,1,3,0.554952707701922,0.574333637977259
"4",22,36,2,2,4,2,1,0,3,0.487137418436771,0.45156203991491
"5",22,21,2,1,5,1,1,1,4,0.322791770555136,0.329367204617499
"6",22,21,2,1,6,3,2,0,1,1.21449249921256,1.27362876976397
"7",22,36,2,1,7,1,1,1,5,0.418145905024783,0.48211116722688
"8",22,36,2,1,8,1,2,0,3,0.482024756994457,0.425739748190412
"9",22,21,2,2,9,3,1,0,1,1.56515706771406,1.5973388344422
"10",22,33,2,2,10,3,1,0,1,0.768313452134556,0.790881001786826
"11",22,26,2,2,11,1,2,1,5,0.477226450141071,0.486015985000081
"12",22,18,2,2,12,3,1,0,1,0.46454014826227,0.367545342435683
"13",22,34,2,2,13,3,2,1,3,0.749336444725971,0.74871845895813
"14",22,36,2,2,14,1,2,1,4,0.335601485025997,0.340187430943968
"15",22,21,2,1,15,3,1,1,2,1.03423175280342,1.04597225067644
"16",22,21,2,2,16,3,1,0,1,1.4605253080084,1.4470397221706
"17",22,36,2,1,17,1,2,0,4,0.681733678446311,0.735043788532811
"18",22,36,2,2,18,3,1,0,1,0.690806794355714,0.607091949506045
"19",22,21,2,1,19,1,1,1,4,0.358632966930826,0.396514553769803
"20",22,33,2,2,20,3,1,0,2,1.19803111371964,1.18281475527172
"21",22,26,2,2,21,2,2,1,3,0.613387014793258,0.70294055211605
"22",22,18,2,2,22,1,2,1,5,0.501536404579873,0.485966240350939
"23",22,34,2,2,23,3,2,1,2,1.15474973947905,1.1227123916331
"24",22,36,2,1,24,1,2,0,3,0.585774430748851,0.522752934019312
"25",22,21,2,1,25,1,1,1,5,0.464601322481824,0.407191774124402
"26",22,21,2,2,26,1,2,1,5,0.236755215837792,0.206871481690896
"27",22,36,2,1,27,1,1,1,4,0.494935676689464,0.468138591812963
"28",22,36,2,2,28,2,1,0,3,0.512069017240057,0.52428066965853
"29",22,21,2,2,29,3,1,0,2,1.4651723767908,1.51367297364618
"30",22,33,2,1,30,1,1,1,4,0.449457700941779,0.409760043519953
"31",22,26,2,2,31,2,1,0,2,0.516411290039994,0.430918472932488
"32",22,18,2,1,32,3,2,0,1,1.09074059581169,1.01931813496568
"33",22,34,2,1,33,1,1,1,4,0.574656236226705,0.64677832792532
"34",22,36,2,2,34,3,1,0,1,0.690686887457539,0.751448876754579
"35",22,21,2,1,35,1,2,0,3,0.576374910840897,0.497673027170808
"36",22,21,2,2,36,2,1,0,3,0.830965709644895,0.844532608339806
"37",22,36,2,2,37,1,2,1,5,0.333870828633095,0.298691438696754
"38",22,36,2,1,38,3,1,1,3,0.941269501375545,0.912208195987178
"39",22,21,2,1,39,2,1,1,3,0.676078123866607,0.726428656526037
"40",22,33,2,1,40,1,1,1,5,0.217361914439674,0.219758966777302
"41",22,26,2,1,41,3,1,1,2,0.941125690058851,0.970423840951081
"42",22,18,2,2,42,1,1,0,3,0.49643148432423,0.402704452841351
"43",22,34,2,1,43,3,1,1,3,0.787344490841055,0.872611519805175
"44",22,36,2,1,44,1,1,1,4,0.469440330581479,0.434679314928697
"45",22,21,2,2,45,2,2,1,3,0.358452956259951,0.411371002370293
"46",22,21,2,1,46,1,1,1,5,0.546865365856649,0.605635879005022
"47",22,36,2,2,47,1,2,1,5,0.310837499288462,0.274973495224093
"48",22,36,2,1,48,1,2,0,4,0.581304726578605,0.491015369504107
"49",22,21,2,1,49,3,1,1,2,0.658254972415828,0.689086824664918
"50",22,33,2,2,50,3,1,0,2,0.932377581145793,0.830906403872483
"51",22,26,2,2,51,2,1,0,3,0.814100309475863,0.818068144749382
"52",22,18,2,2,52,2,1,0,2,0.717690416499201,0.677226297674372
"53",22,34,2,1,53,3,1,1,2,0.886623569968328,0.913261251399995
"54",22,36,2,2,54,1,1,0,4,0.812196482202029,0.841200159491022
"55",22,21,2,1,55,1,2,0,4,0.423534002018397,0.358693630563054
"56",22,21,2,1,56,2,1,1,3,0.950440381088023,0.928673063892304
"57",22,36,2,1,57,2,1,1,3,0.698798499106635,0.699023461970483
"58",22,36,2,2,58,1,2,1,5,0.310402614930731,0.284119212822757
"59",22,21,2,1,59,3,1,1,2,0.798684768736502,0.8206293671565
"60",22,33,2,2,60,2,1,0,2,0.849533278768555,0.891120795161457
"61",22,26,2,2,61,2,2,1,3,0.498495609075987,0.437338295550555
"62",22,18,2,2,62,3,1,0,1,1.29657244462447,1.21776578843164
"63",22,34,2,2,63,2,2,1,4,0.650373812901915,0.747038202199315
"64",22,36,2,2,64,1,1,0,4,0.560373998202994,0.570877346894766
"65",22,21,2,1,65,3,2,0,1,1.16621082429621,1.20410500951814
"66",22,21,2,1,66,2,1,1,3,0.61357739072032,0.670462918264723
"67",22,36,2,1,67,3,2,0,1,0.6312240581057,0.649322199467512
"68",22,36,2,1,68,2,1,1,4,0.475551263990323,0.463228863036742
"69",22,21,2,1,69,1,1,1,4,0.250868075975054,0.27907245772216
"70",22,33,2,1,70,1,1,1,5,0.194095742817794,0.214408562014002
"71",22,26,2,2,71,3,1,0,1,0.98499025918551,0.959377807122356
"72",22,18,2,2,72,1,2,1,4,0.358509729689231,0.279265988770069
"73",22,34,2,1,73,3,2,0,1,1.10353542598379,1.07843574919475
"74",22,36,2,1,74,1,1,1,4,0.284969475427513,0.301150624861571
"75",22,21,2,2,75,3,2,1,3,0.661906983102241,0.693735218959544
"76",22,21,2,1,76,2,1,1,3,0.632639935919655,0.640127100487536
"77",22,36,2,1,77,3,1,1,3,0.559087196864037,0.621609299212707
"78",22,36,2,2,78,3,1,0,2,0.934718081211066,0.959106437044666
"79",22,21,2,2,79,2,1,0,3,0.782036815656599,0.738551373632877
"80",22,33,2,2,80,2,2,1,4,0.773894786472701,0.763968207793549
"81",22,26,2,1,81,2,2,0,2,0.85763406242863,0.81679620112479
"82",22,18,2,1,82,3,2,0,1,1.55577628083428,1.4954679174988
"83",22,34,2,1,83,1,1,1,5,0.339179699846586,0.335162440819855
"84",22,36,2,1,84,3,2,0,1,1.32275577289741,1.2713482951471
"85",22,21,2,2,85,1,1,0,3,0.693089600396236,0.690508069936485
"86",22,21,2,2,86,2,2,1,3,0.643036268158709,0.708304068806884
"87",22,36,2,2,87,3,2,1,2,0.988820753767904,0.997847381936003
"88",22,36,2,2,88,3,2,1,3,0.949654905067103,0.991665231186357
"89",22,21,2,1,89,1,1,1,4,0.347593222986674,0.35623234985145
"90",22,33,2,2,90,1,2,1,4,0.389103508746659,0.353866473471279
"91",22,26,2,2,91,3,1,0,2,0.976419746240329,0.997753644851907
"92",22,18,2,1,92,2,1,1,4,0.671169246947788,0.680555662579391
"93",22,34,2,2,93,1,1,0,3,0.656655958832203,0.622371436305003
"94",22,36,2,1,94,2,2,0,2,0.76904052234594,0.758084476861982
"95",22,21,2,1,95,2,2,0,3,0.715215670988121,0.66467330428747
"96",22,21,2,2,96,2,1,0,3,0.776891084670061,0.713672540874693
"97",22,36,2,1,97,1,1,1,5,0.31495588706352,0.330330873526616
"98",22,36,2,1,98,2,1,1,3,0.675087901673143,0.692131506429747
"99",22,21,2,2,99,3,2,1,2,0.939071010248677,0.963205666122101
"100",22,33,2,1,100,2,1,1,3,0.713413848802291,0.772107539659917
"101",22,26,2,1,101,3,2,0,2,0.653273974871538,0.705033011333835
"102",22,18,2,2,102,1,2,1,4,0.347851253490753,0.269803469916534
"103",22,34,2,1,103,1,1,1,5,0.372582999217529,0.417363110210326
"104",22,36,2,1,104,1,1,1,4,0.550035633101335,0.522389482981564
"105",22,21,2,1,105,1,1,1,5,0.446494162997368,0.387401616547506
"106",22,21,2,1,106,2,2,0,2,0.554001178844423,0.541107297703872
"107",22,36,2,1,107,2,2,0,2,0.827429625336938,0.76046662390124
"108",22,36,2,2,108,3,1,0,1,0.643084216108103,0.657881110395502
"109",22,21,2,1,109,2,1,1,3,0.590138585740499,0.530808217513551
"110",22,33,2,1,110,3,1,1,3,0.596575061145566,0.471626023771043
"111",22,26,2,2,111,2,2,1,4,0.702780347716632,0.664043799399032
"112",22,18,2,2,112,3,1,0,2,0.458711471724392,0.534010670641479
"113",22,34,2,1,113,3,1,1,3,0.973779960298863,0.881470263562717
"114",22,36,2,2,114,2,2,1,3,0.784348342497635,0.791000479197694
"115",22,21,2,2,115,2,1,0,2,0.538430911823946,0.462646248578019
"116",22,21,2,2,116,2,2,1,4,0.523645284601539,0.49695195004806
"117",22,36,2,1,117,2,1,1,4,0.560692773012885,0.422915946365759
"118",22,36,2,1,118,1,1,1,5,0.350391557308367,0.399756552888049
"119",22,21,2,1,119,1,1,1,4,0.316592346729947,0.191702703925391
"120",22,33,2,2,120,3,1,0,1,1.1642605563229,1.19724745655171
"121",22,26,2,1,121,2,2,0,3,0.681721991915874,0.637592594210549
"122",22,18,2,1,122,3,1,1,3,1.03363737801816,1.03728483271795
"123",22,34,2,2,123,2,2,1,3,0.822488711703111,0.777556173230936
"124",22,36,2,2,124,1,2,1,5,0.340940278267008,0.291629019965
"125",22,21,2,2,125,2,1,0,2,0.660506204590993,0.628926955208665
"126",22,21,2,2,126,1,2,1,4,0.464149590562291,0.477134926745845
"127",22,36,2,2,127,1,1,0,4,0.426564853434416,0.449754772727307
"128",22,36,2,2,128,2,2,1,3,0.457786595042786,0.472344282900809
"129",22,21,2,2,129,3,2,1,2,0.605373087405828,0.622525732380148
"130",22,33,2,1,130,1,1,1,4,0.491855402384427,0.53064931029681
"131",22,26,2,1,131,3,1,1,2,0.847876283403957,0.846284597665843
"132",22,18,2,1,132,2,2,0,3,0.828843304359088,0.829186491672854
"133",22,34,2,1,133,1,1,1,5,0.319396735951371,0.310217177426883
"134",22,36,2,1,134,3,1,1,3,0.843260719112426,0.870535488930571
"135",22,21,2,2,135,3,1,0,1,1.18355251884814,1.16331741854903
"136",22,21,2,1,136,1,1,1,5,0.328182774609216,0.347236598311358
"137",22,36,2,1,137,1,1,1,4,0.392381767493347,0.477156044586394
"138",22,36,2,2,138,1,2,1,4,0.378970622613121,0.33362347471308
"139",22,21,2,1,139,1,1,1,4,0.398329788924769,0.327073767194669
"140",22,33,2,2,140,1,2,1,4,0.323393168822162,0.303357431289157
"141",22,26,2,1,141,3,2,0,1,0.842465645764376,0.807558143993841
"142",22,18,2,1,142,2,2,0,3,0.580744550696582,0.565609468597408
"143",22,34,2,1,143,3,1,1,2,0.882573319215691,0.917119465884099
"144",22,36,2,1,144,3,2,0,1,0.878282655321699,0.915999875750536
"145",22,21,2,1,145,3,1,1,2,0.709651463486082,0.744082289135711
"146",22,21,2,1,146,3,1,1,3,0.718428156228296,0.659407239158857
"147",22,36,2,2,147,1,2,1,5,0.416460938098341,0.546587455983968
"148",22,36,2,2,148,3,1,0,2,0.951828307135463,0.957100293675907
"149",22,21,2,2,149,2,2,1,3,0.610958635977324,0.597187264343355
"150",22,33,2,2,150,2,1,0,3,0.541912891412558,0.528090334292915
"151",22,26,2,2,151,2,2,1,3,0.593747582232113,0.547099251006846
"152",22,18,2,2,152,2,1,0,2,0.67476060160198,0.623896951095438
"153",22,34,2,2,153,3,2,1,3,0.805612864010556,0.79320947414062
"154",22,36,2,1,154,3,2,0,1,0.532517817531819,0.487191889906971
"155",22,21,2,1,155,2,1,1,4,0.544112173176634,0.617574235553955
"156",22,21,2,2,156,2,2,1,4,0.482389566305159,0.436485684928331
"157",22,36,2,2,157,1,1,0,4,0.531192595301393,0.572066224268302
"158",22,36,2,2,158,3,1,0,1,0.717671867763985,0.801826354883316
"159",22,21,2,2,159,2,2,1,4,0.796631027850663,0.830909645884808
"160",22,33,2,2,160,1,2,1,4,0.483235785338048,0.473374145295062
"161",22,26,2,2,161,1,2,1,4,0.350170868121828,0.38315986706247
"162",22,18,2,1,162,1,2,0,4,0.491128110239625,0.6302035075023
"163",22,34,2,2,163,1,2,1,5,0.41343826858379,0.370934933826886
"164",22,36,2,1,164,3,2,0,1,0.652283516128896,0.640049458658438
"165",22,21,2,2,165,1,2,1,5,0.319407780331194,0.218323490349737
"166",22,21,2,2,166,1,1,0,3,0.628484692464685,0.605785548377927
"167",22,36,2,2,167,2,2,1,3,0.625653484249335,0.574945596144258
"168",22,36,2,2,168,2,1,0,3,0.446538490875269,0.454914549036854
"169",22,21,2,1,169,3,1,1,3,0.789503204326458,0.679861528457935
"170",22,33,2,2,170,1,2,1,4,0.289819815318694,0.301145860681858
"171",22,26,2,2,171,2,2,1,4,0.582000737594634,0.54512907763545
"172",22,18,2,2,172,2,2,1,4,0.603348860289705,0.525710927521818
"173",22,34,2,1,173,2,2,0,2,0.719906761542448,0.783672355406808
"174",22,36,2,2,174,3,1,0,2,0.829785755226681,0.781180751051413
"175",22,21,2,2,175,2,2,1,3,0.644769485473077,0.563139169361935
"176",22,21,2,1,176,3,2,0,2,1.06212643643007,1.1139317958877
"177",22,36,2,2,177,3,1,0,1,0.408422182664191,0.374752523435117
"178",22,36,2,1,178,3,1,1,3,1.1213363322236,1.22038812065715
"179",22,21,2,1,179,2,2,0,2,0.493350428322584,0.421606793044185
"180",22,33,2,2,180,1,2,1,4,0.510187995227131,0.457790040618731
"181",22,26,2,1,181,1,1,1,5,0.3496495799857,0.404600539759648
"182",22,18,2,1,182,2,2,0,3,0.976289353518119,0.864684016624449
"183",22,34,2,2,183,1,1,0,4,0.43503616408596,0.472015955919369
"184",22,36,2,1,184,2,2,0,2,0.620231722986667,0.59149018722807
"185",22,21,2,2,185,1,2,1,5,0.365166036602704,0.316165647280546
"186",22,21,2,2,186,2,1,0,2,0.540723828929607,0.530758064775803
"187",22,36,2,2,187,1,2,1,4,0.521171135005082,0.517055562920836
"188",22,36,2,1,188,1,1,1,4,0.395326965572598,0.463903501816948
"189",22,21,2,1,189,2,2,0,3,0.924656167507707,0.882579617771818
"190",22,33,2,1,190,1,1,1,4,0.428010806598828,0.339948218524726
"191",22,26,2,2,191,1,2,1,4,0.401866532203424,0.423010274456306
"192",22,18,2,2,192,2,1,0,3,0.79389360714996,0.86016895968787
"193",22,34,2,1,193,3,1,1,3,0.928627257250954,0.889835258610534
"194",22,36,2,1,194,3,1,1,2,0.84337862809993,0.828444581058978
"195",22,21,2,2,195,2,2,1,3,0.572606488074749,0.497474963092598
"196",22,21,2,1,196,2,1,1,3,0.659655713487623,0.685799689276622
"197",22,36,2,1,197,1,1,1,4,0.324361612648421,0.352806773202973
"198",22,36,2,2,198,1,2,1,4,0.342225779726153,0.382540647075848
"199",22,21,2,2,199,2,1,0,3,0.941787430472853,0.975062535351142
"200",22,33,2,2,200,1,2,1,4,0.541781793993155,0.669764595603582
"201",22,26,2,1,201,3,1,1,2,0.59138508917256,0.665646584256498
"202",22,18,2,1,202,2,1,1,3,0.508958061396851,0.416769863463209
"203",22,34,2,1,203,3,2,0,1,1.31227191778113,1.36908065353587
"204",22,36,2,2,204,3,2,1,3,0.934520401775808,0.889181221917003
"205",22,21,2,1,205,2,1,1,3,0.758775979156502,0.770622240649623
"206",22,21,2,1,206,3,2,0,2,0.462128051476341,0.497170919183354
"207",22,36,2,2,207,2,1,0,2,0.663126498802077,0.632969671676988
"208",22,36,2,2,208,3,1,0,1,0.989334110893855,0.952574482174398
"209",22,21,2,1,209,2,1,1,3,0.663880740878259,0.711617755332221
"210",22,33,2,1,210,2,1,1,4,0.302690200072957,0.379501834386431
"211",22,26,2,1,211,1,1,1,5,0.607737972199627,0.619494738565438
"212",22,18,2,2,212,3,2,1,2,1.14614444011125,1.07333702393061
"213",22,34,2,2,213,3,2,1,3,0.799080012166685,0.789318936433604
"214",22,36,2,1,214,2,1,1,4,0.698949228673101,0.688175121730896
"215",22,21,2,2,215,3,1,0,2,0.79150961760026,0.877503100699373
"216",22,21,2,1,216,3,1,1,2,0.761140973155545,0.728404945845536
"217",22,36,2,2,217,1,2,1,5,0.239157349512896,0.287030245147447
"218",22,36,2,2,218,2,2,1,4,0.579412317072515,0.570209646414739
"219",22,21,2,1,219,2,2,0,2,0.633781261657657,0.542232511802789
"220",22,33,2,2,220,3,2,1,2,0.723994587956197,0.779502356791597
"221",22,26,2,1,221,1,1,1,4,0.319570868683846,0.369865123445886
"222",22,18,2,2,222,1,2,1,4,0.378636470774385,0.377801653154114
"223",22,34,2,2,223,3,1,0,1,0.415283467241556,0.354236727914456
"224",22,36,2,1,224,2,2,0,3,0.661657381176017,0.746799218339607
"225",22,21,2,2,225,2,1,0,2,0.741212243348062,0.753642777674557
"226",22,21,2,1,226,1,1,1,4,0.257281053096338,0.216556839620376
"227",22,36,2,2,227,1,2,1,5,0.633709742635892,0.671241871969662
"228",22,36,2,2,228,2,1,0,3,0.796149683973728,0.789943641056224
"229",22,21,2,1,229,3,1,1,3,0.604313789152376,0.680404448850418
"230",22,33,2,2,230,2,1,0,2,0.663331404445446,0.566061323028111
"231",22,26,2,2,231,3,1,0,1,1.68165961594467,1.68686258561024
"232",22,18,2,1,232,2,2,0,3,0.7391761129827,0.700980582837237
"233",22,34,2,1,233,2,1,1,3,0.325180697495555,0.370364444383938
"234",22,36,2,1,234,3,2,0,2,1.29067165395557,1.30933840300067
"235",22,21,2,2,235,3,1,0,1,0.452495940081917,0.511020669826429
"236",22,21,2,2,236,1,2,1,5,0.366478785661171,0.386493151946478
"237",22,36,2,1,237,3,2,0,2,1.37131085570861,1.31248871847223
"238",22,36,2,2,238,2,2,1,3,0.61832014131514,0.684987203228004
"239",22,21,2,1,239,3,1,1,3,0.906088438549975,0.865345018243451
"240",22,33,2,1,240,3,2,0,2,0.93581664446197,0.941784605448553
"241",21,26,1,2,1,3,2,1,3,0.741085167347784,0.645581909915182
"242",21,34,1,2,2,3,2,1,3,0.600584303321001,0.519208935205966
"243",21,24,1,1,3,3,1,1,2,0.852047014506837,0.81040414947972
"244",21,19,1,2,4,3,1,0,1,0.833526302814717,0.807086695350563
"245",21,38,1,1,5,3,1,1,2,0.889916439577888,0.835928211026502
"246",21,35,1,1,6,1,1,1,4,0.308384712998421,0.365552943189338
"247",21,21,1,2,7,1,2,1,4,0.371840002022067,0.331769922207177
"248",21,19,1,1,8,3,2,0,1,1.04276411503646,1.0023875885345
"249",21,23,1,1,9,2,2,0,2,0.875204429357557,0.85589299836784
"250",21,29,1,2,10,2,2,1,4,0.832712112716213,0.844754190056825
"251",21,26,1,2,11,3,2,1,3,0.708235124743015,0.733161161142997
"252",21,34,1,1,12,3,2,0,2,0.437024380880592,0.454308691292302
"253",21,24,1,2,13,2,2,1,4,0.676157723341658,0.608183597717906
"254",21,19,1,1,14,2,1,1,3,0.54885186210078,0.544632926795612
"255",21,38,1,1,15,3,1,1,3,0.847609098950703,0.818680043110978
"256",21,35,1,2,16,1,2,1,4,0.502402004617772,0.52873398303239
"257",21,21,1,2,17,2,2,1,4,0.603982848931876,0.523064188357818
"258",21,19,1,2,18,1,2,1,5,0.466293513558702,0.480477980358121
"259",21,23,1,2,19,1,1,0,4,0.472040449528924,0.434247748664259
"260",21,29,1,1,20,1,2,0,3,0.506793199579414,0.528641195636217
"261",21,26,1,2,21,3,1,0,2,1.47078951117439,1.4726950216017
"262",21,34,1,1,22,1,1,1,5,0.541093544724325,0.598729682822406
"263",21,24,1,1,23,2,2,0,2,0.752621500101958,0.809591505591406
"264",21,19,1,2,24,2,2,1,3,0.600915970300735,0.604518426242792
"265",21,38,1,2,25,1,2,1,5,0.404109644407304,0.442713228596459
"266",21,35,1,2,26,3,1,0,2,1.20129366475662,1.20989429863092
"267",21,21,1,1,27,2,2,0,3,0.56014982191013,0.537470789227043
"268",21,19,1,1,28,2,1,1,3,0.630509226543864,0.521325014930061
"269",21,23,1,1,29,2,1,1,4,0.52417351799345,0.472663096494102
"270",21,29,1,1,30,2,2,0,3,0.820824141564799,0.768459300537563
"271",21,26,1,1,31,3,1,1,2,0.723702256483957,0.641710324839492
"272",21,34,1,1,32,1,1,1,5,0.334094204481895,0.285126537619484
"273",21,24,1,2,33,1,2,1,5,0.277486771560722,0.285113744041988
"274",21,19,1,2,34,1,2,1,4,0.435670939526186,0.485577674604398
"275",21,38,1,1,35,2,2,0,3,0.916574204260798,0.917647242491639
"276",21,35,1,2,36,2,2,1,4,0.651500859281101,0.736934284785822
"277",21,21,1,1,37,3,2,0,2,1.58632948938541,1.64205354364117
"278",21,19,1,2,38,1,2,1,5,0.587229246839633,0.593558620548435
"279",21,23,1,2,39,3,2,1,3,0.830871004238574,0.806361005057487
"280",21,29,1,1,40,2,1,1,4,0.598246209815559,0.660673748245144
"281",21,26,1,2,41,2,2,1,3,0.43048081254266,0.340320372626517
"282",21,34,1,2,42,2,2,1,4,0.640418244185496,0.679760230036672
"283",21,24,1,1,43,2,2,0,3,0.611245550208996,0.690451793657041
"284",21,19,1,1,44,1,1,1,5,0.533839722851672,0.460308556246294
"285",21,38,1,1,45,3,1,1,3,0.565827261115781,0.603877413875469
"286",21,35,1,1,46,3,1,1,2,1.00587617838221,1.03612129588749
"287",21,21,1,2,47,3,1,0,1,1.20607447321301,1.16135759089487
"288",21,19,1,2,48,2,1,0,3,0.76086773203347,0.723894435408108
"289",21,23,1,1,49,1,1,1,5,0.369042218426625,0.374960931593019
"290",21,29,1,1,50,2,2,0,2,1.01057247061795,0.930823558410796
"291",21,26,1,2,51,3,1,0,2,1.75675969366807,1.67358858788817
"292",21,34,1,1,52,3,2,0,2,1.17204891975699,1.14521123972123
"293",21,24,1,1,53,2,1,1,4,0.672109198614731,0.698415828051786
"294",21,19,1,1,54,2,1,1,3,0.585304473333351,0.662674959028483
"295",21,38,1,1,55,3,1,1,2,0.951722614764135,0.971441748797498
"296",21,35,1,2,56,3,1,0,2,0.989492202559257,0.991318399139308
"297",21,21,1,1,57,2,2,0,3,0.620103158853988,0.684907200754257
"298",21,19,1,1,58,2,1,1,3,0.592827984103687,0.557034500183492
"299",21,23,1,1,59,1,2,0,4,0.573722208332706,0.606997442511855
"300",21,29,1,2,60,2,1,0,2,0.61005995015939,0.634344010078118
"301",21,26,1,1,61,1,1,1,4,0.277467367183405,0.299053058405531
"302",21,34,1,1,62,1,1,1,4,0.29969891260679,0.286397936543267
"303",21,24,1,1,63,3,1,1,2,0.808810483535939,0.79701313247941
"304",21,19,1,2,64,2,2,1,3,0.759829352989261,0.860867636791617
"305",21,38,1,2,65,2,1,0,2,0.883876799169199,0.837243366455826
"306",21,35,1,1,66,2,1,1,3,0.3604737155688,0.317627406384754
"307",21,21,1,1,67,2,1,1,3,0.710114639417652,0.669118767182139
"308",21,19,1,2,68,2,1,0,3,0.681452973417924,0.711752294038488
"309",21,23,1,1,69,1,1,1,4,0.37182345800457,0.40982166016465
"310",21,29,1,2,70,3,2,1,2,0.783214137994336,0.828862221206549
"311",21,26,1,1,71,3,1,1,2,0.990558763153481,0.994141168870683
"312",21,34,1,2,72,3,1,0,2,0.766977516951211,0.846952737115844
"313",21,24,1,1,73,1,2,0,3,0.590002133019945,0.624680491640226
"314",21,19,1,1,74,3,1,1,3,0.57784694118683,0.514466220108036
"315",21,38,1,2,75,2,1,0,3,0.599348144240223,0.658474188991536
"316",21,35,1,1,76,1,1,1,4,0.309084443975534,0.343072411025951
"317",21,21,1,1,77,1,1,1,5,0.355847282531535,0.349811821500231
"318",21,19,1,2,78,3,2,1,2,0.745318556025591,0.700543742832861
"319",21,23,1,1,79,1,2,0,3,0.651206837900356,0.610616746008135
"320",21,29,1,2,80,2,2,1,3,0.630202736309324,0.594249524447009
"321",21,26,1,1,81,2,2,0,3,0.689906237083869,0.731123064797741
"322",21,34,1,2,82,1,2,1,4,0.483028089249755,0.478580193186744
"323",21,24,1,2,83,1,2,1,5,0.39413634378352,0.388581622002641
"324",21,19,1,1,84,2,1,1,4,0.522039920037108,0.511253384865803
"325",21,38,1,1,85,3,1,1,3,0.714811284459626,0.769652163294949
"326",21,35,1,2,86,2,1,0,2,0.553836611588767,0.565497822198038
"327",21,21,1,2,87,1,2,1,5,0.433194515471834,0.388185569102007
"328",21,19,1,1,88,3,2,0,2,0.850182059344063,0.873921506951192
"329",21,23,1,2,89,3,1,0,1,1.09850982755891,1.12137116717302
"330",21,29,1,1,90,1,2,0,4,0.480442417136769,0.529942161626811
"331",21,26,1,1,91,3,1,1,2,1.18084329939724,1.17108473154546
"332",21,34,1,2,92,3,1,0,2,0.944410128184944,0.87734517438796
"333",21,24,1,1,93,2,2,0,2,0.609950329820411,0.606917629000829
"334",21,19,1,2,94,2,2,1,3,0.630495832538602,0.625615451020353
"335",21,38,1,2,95,3,1,0,1,0.526459588469446,0.532027356820783
"336",21,35,1,2,96,2,2,1,3,0.482247748856978,0.443315835250151
"337",21,21,1,2,97,2,2,1,4,0.578298959084919,0.474628610991532
"338",21,19,1,2,98,3,2,1,3,0.737084728105201,0.812694853003542
"339",21,23,1,2,99,1,2,1,5,0.397983950004132,0.362289726682779
"340",21,29,1,2,100,1,2,1,4,0.453497233293304,0.527847979810006
"341",21,26,1,1,101,3,2,0,1,1.32737262537993,1.32650098934995
"342",21,34,1,1,102,1,2,0,4,0.456431527731981,0.42712897039556
"343",21,24,1,1,103,3,1,1,2,0.698869993134332,0.643874263088414
"344",21,19,1,1,104,1,2,0,3,0.552866499464612,0.530670856451761
"345",21,38,1,1,105,3,1,1,3,0.691160653745031,0.738234941043865
"346",21,35,1,2,106,3,1,0,2,1.57249946716841,1.6957539838163
"347",21,21,1,1,107,2,2,0,3,0.397944305744585,0.43455027270977
"348",21,19,1,2,108,2,2,1,4,0.590308165611837,0.495755216436532
"349",21,23,1,1,109,3,1,1,3,0.6005456246233,0.618740293067667
"350",21,29,1,1,110,3,2,0,1,1.1057480044356,1.11279535989111
"351",21,26,1,1,111,1,1,1,4,0.428406968256541,0.450432652232547
"352",21,34,1,1,112,1,1,1,4,0.321996711047614,0.280636944255725
"353",21,24,1,2,113,2,1,0,3,0.844054861928867,0.857991038210081
"354",21,19,1,2,114,1,2,1,4,0.334059798978997,0.35790825061517
"355",21,38,1,2,115,1,2,1,4,0.276833726687754,0.282236792726775
"356",21,35,1,2,116,3,2,1,2,0.702204288428471,0.755076388774529
"357",21,21,1,2,117,1,2,1,4,0.366350939522292,0.401234725389932
"358",21,19,1,2,118,1,2,1,4,0.372550346487576,0.41802295435676
"359",21,23,1,1,119,1,1,1,5,0.312515820996668,0.28631610003796
"360",21,29,1,1,120,2,2,0,3,0.835610512248275,0.869004894512309
"361",21,26,1,2,121,2,1,0,2,0.729424092385047,0.810104650579925
"362",21,34,1,1,122,3,1,1,2,1.16008256122208,1.19287931152087
"363",21,24,1,2,123,3,1,0,2,1.55538095605097,1.57482337743236
"364",21,19,1,2,124,3,1,0,1,0.552778593447815,0.528836279209002
"365",21,38,1,2,125,1,1,0,4,0.634814315705194,0.572873140234451
"366",21,35,1,2,126,1,2,1,4,0.409107002027872,0.387341269572201
"367",21,21,1,1,127,3,2,0,1,0.909082564425989,0.910655107361
"368",21,19,1,1,128,3,2,0,1,1.21221496635555,1.18385344147377
"369",21,23,1,2,129,1,2,1,5,0.304882591661561,0.26393525950488
"370",21,29,1,1,130,1,1,1,4,0.484553482866897,0.456934744871332
"371",21,26,1,1,131,1,1,1,5,0.459275356921127,0.502366805906152
"372",21,34,1,1,132,2,1,1,4,0.555240154850291,0.464694222192568
"373",21,24,1,2,133,1,2,1,4,0.333763158648932,0.321462642278364
"374",21,19,1,1,134,3,1,1,3,0.77152127210979,0.794239721059567
"375",21,38,1,2,135,3,1,0,2,1.19745013612112,1.18546363015905
"376",21,35,1,1,136,3,1,1,3,1.00336696330026,0.965345327433586
"377",21,21,1,2,137,2,1,0,2,0.67078032850452,0.615752661911763
"378",21,19,1,2,138,2,1,0,3,0.814850102430062,0.779761976266307
"379",21,23,1,2,139,1,2,1,4,0.40198009134155,0.466243930518329
"380",21,29,1,2,140,1,2,1,5,0.412828336187726,0.37835729214089
"381",21,26,1,2,141,2,2,1,3,0.503697363876901,0.442120150108083
"382",21,34,1,2,142,3,2,1,2,0.482445247167788,0.586656640739977
"383",21,24,1,2,143,2,2,1,4,0.729658396901966,0.794198522184282
"384",21,19,1,1,144,2,1,1,4,0.62329984909491,0.573440951333039
"385",21,38,1,2,145,3,2,1,2,0.661042920831067,0.614560136670209
"386",21,35,1,2,146,1,1,0,4,0.612550261870963,0.5941129887075
"387",21,21,1,1,147,2,2,0,3,0.78020160003706,0.803215683788899
"388",21,19,1,2,148,3,2,1,2,0.890596150220593,0.923836944731237
"389",21,23,1,1,149,3,1,1,2,0.777269389065663,0.856796536028433
"390",21,29,1,1,150,1,1,1,4,0.506425638419472,0.550558010588372
"391",21,26,1,2,151,3,2,1,2,0.833367402555015,0.861550734998261
"392",21,34,1,1,152,3,2,0,2,1.0596711413064,1.03924667104038
"393",21,24,1,1,153,1,1,1,4,0.196645865588539,0.215082816133242
"394",21,19,1,2,154,2,2,1,3,0.450543544629124,0.530351821937808
"395",21,38,1,2,155,2,1,0,2,0.426347105254596,0.361804091582276
"396",21,35,1,1,156,2,1,1,3,0.592681867315204,0.671662493560672
"397",21,21,1,1,157,2,2,0,2,0.603659197515154,0.578560381732869
"398",21,19,1,2,158,2,2,1,3,0.653632766242505,0.632558719230056
"399",21,23,1,2,159,3,2,1,2,0.898759531955336,0.91026346812604
"400",21,29,1,1,160,3,1,1,2,0.421620258006554,0.446635647682845
"401",21,26,1,2,161,3,2,1,2,0.657463433225797,0.678979700714852
"402",21,34,1,2,162,3,1,0,1,1.02700004668383,1.10895957551849
"403",21,24,1,1,163,1,1,1,4,0.278786865170212,0.181310140609298
"404",21,19,1,2,164,1,2,1,5,0.471046548771869,0.438815099698328
"405",21,38,1,2,165,3,1,0,1,0.481331951446073,0.57743009413822
"406",21,35,1,2,166,1,2,1,5,0.387419177381233,0.527013041797871
"407",21,21,1,1,167,1,1,1,5,0.429804840093514,0.448077273296286
"408",21,19,1,1,168,3,1,1,2,0.924096932783792,0.887205785873571
"409",21,23,1,2,169,2,2,1,3,0.642602454169734,0.627138171321745
"410",21,29,1,1,170,3,2,0,1,1.35395858127924,1.27825275867435
"411",21,26,1,1,171,3,2,0,2,0.828088001161289,0.819332177388619
"412",21,34,1,1,172,3,1,1,2,1.01597925242471,0.971212774323994
"413",21,24,1,2,173,2,1,0,2,0.677227527615914,0.698865865423236
"414",21,19,1,2,174,2,1,0,3,0.478761838960839,0.398141675119637
"415",21,38,1,2,175,2,1,0,2,1.00796685531712,1.05748657319759
"416",21,35,1,2,176,3,1,0,2,1.32343584577173,1.35814150318507
"417",21,21,1,2,177,1,2,1,5,0.434463687753834,0.433784801817093
"418",21,19,1,1,178,3,2,0,2,1.18600904634181,1.17946621933727
"419",21,23,1,2,179,1,1,0,3,0.39651083872721,0.432298092126943
"420",21,29,1,1,180,3,1,1,3,0.969863155703654,1.04882862665084
"421",21,26,1,1,181,1,1,1,5,0.417640865808221,0.431587581153021
"422",21,34,1,2,182,2,1,0,3,0.570749787814989,0.509570283102087
"423",21,24,1,2,183,1,2,1,4,0.238041831711773,0.212593943724828
"424",21,19,1,2,184,1,2,1,4,0.344415525167339,0.401637139579754
"425",21,38,1,1,185,2,1,1,3,0.615587684846263,0.593693732554732
"426",21,35,1,2,186,1,2,1,5,0.432779051965486,0.355806652971721
"427",21,21,1,2,187,1,2,1,5,0.498457254347671,0.512110479337165
"428",21,19,1,2,188,3,1,0,2,1.58145156566089,1.58192224393733
"429",21,23,1,1,189,3,1,1,2,0.629165154413181,0.600103926026338
"430",21,29,1,1,190,2,2,0,2,0.755593408356713,0.66877132253772
"431",21,26,1,1,191,1,1,1,4,0.219328204013871,0.168884434859667
"432",21,34,1,1,192,1,1,1,5,0.387867792782583,0.362261030619644
"433",21,24,1,2,193,1,2,1,5,0.460102527978783,0.437052605636114
"434",21,19,1,1,194,2,1,1,4,0.80798012902712,0.830914186817344
"435",21,38,1,1,195,1,1,1,4,0.27792331991012,0.214968297403127
"436",21,35,1,1,196,1,2,0,3,0.439340822011546,0.468444257724362
"437",21,21,1,1,197,3,1,1,3,0.804967619224233,0.864046596159863
"438",21,19,1,1,198,2,1,1,4,0.389524444183222,0.31678934131058
"439",21,23,1,2,199,2,1,0,2,0.548036902584127,0.589732526205009
"440",21,29,1,2,200,3,1,0,2,1.56815141905109,1.59158192797296
"441",21,26,1,2,201,1,2,1,5,0.305822741411488,0.340194286700285
"442",21,34,1,2,202,3,1,0,2,1.2943132333105,1.24955676728079
"443",21,24,1,2,203,1,2,1,4,0.255543825336574,0.345734590361878
"444",21,19,1,2,204,2,1,0,2,0.739079646747481,0.784267647300627
"445",21,38,1,1,205,1,1,1,4,0.477400895797496,0.433575446800791
"446",21,35,1,2,206,1,1,0,3,0.682071807197916,0.718524351270935
"447",21,21,1,2,207,1,2,1,5,0.366538486665271,0.329680444721439
"448",21,19,1,2,208,2,1,0,2,0.53860486066015,0.507653169531245
"449",21,23,1,1,209,2,1,1,4,0.484573821835156,0.525851635583176
"450",21,29,1,1,210,3,2,0,1,0.938087599316713,0.945307519884743
"451",21,26,1,2,211,1,2,1,4,0.504039877374768,0.576434102738613
"452",21,34,1,2,212,1,1,0,4,0.601137185779383,0.585886670861017
"453",21,24,1,1,213,2,1,1,3,0.65523212908114,0.624845436945239
"454",21,19,1,2,214,3,2,1,3,0.920931877584392,0.924368867301297
"455",21,38,1,2,215,1,2,1,4,0.353177628752154,0.286984796238442
"456",21,35,1,2,216,3,1,0,2,1.05047821894809,1.00786579338252
"457",21,21,1,2,217,2,2,1,3,0.706358899672112,0.766512326128448
"458",21,19,1,2,218,3,2,1,2,0.925471928746203,0.922351560471812
"459",21,23,1,1,219,2,2,0,3,0.782080500352475,0.697361125673299
"460",21,29,1,1,220,2,2,0,3,0.73094995657301,0.679900678896061
"461",21,26,1,1,221,2,1,1,4,0.483180682369189,0.455817256628747
"462",21,34,1,1,222,2,1,1,4,0.738175513486016,0.735582751749548
"463",21,24,1,1,223,1,1,1,5,0.379436468244227,0.439790475182487
"464",21,19,1,2,224,1,2,1,4,0.534238999020477,0.54674348692053
"465",21,38,1,2,225,2,2,1,3,0.61467980019105,0.595037891873965
"466",21,35,1,1,226,1,1,1,5,0.443535602354374,0.470022403440643
"467",21,21,1,1,227,1,1,1,4,0.453336968743242,0.447963381709711
"468",21,19,1,1,228,2,2,0,3,0.677219474326677,0.581437887875155
"469",21,23,1,1,229,1,1,1,5,0.301092707658971,0.329141870428577
"470",21,29,1,1,230,2,2,0,3,0.308784304319161,0.341509460233985
"471",21,26,1,1,231,2,2,0,3,0.883873897385012,0.928174687490169
"472",21,34,1,1,232,3,2,0,2,1.00227491843087,1.02134374935166
"473",21,24,1,1,233,2,2,0,2,0.659717931645849,0.636022558246502
"474",21,19,1,2,234,1,2,1,4,0.431399911151399,0.428400384428355
"475",21,38,1,1,235,1,1,1,5,0.394233402175494,0.373104442860292
"476",21,35,1,1,236,1,1,1,5,0.302578756464822,0.30202502680671
"477",21,21,1,1,237,3,2,0,1,0.337897607209492,0.321180304812351
"478",21,19,1,2,238,3,2,1,2,0.89431982314889,0.882894104175044
"479",21,23,1,2,239,2,1,0,2,0.878461572873568,0.918263284484474
"480",21,29,1,2,240,3,2,1,3,0.705459083428557,0.669946228967955
"481",20,30,2,1,1,2,2,0,2,0.824339459669937,0.842230975815185
"482",20,22,2,2,2,2,1,0,3,0.817600912287059,0.823743448609853
"483",20,28,2,1,3,3,1,1,3,0.49897792382705,0.477198151129386
"484",20,30,2,1,4,2,1,1,4,0.539067559691124,0.518917533550054
"485",20,23,2,2,5,3,2,1,2,1.33980689416666,1.35914768950456
"486",20,38,2,1,6,2,1,1,3,0.664147804702696,0.761593934441336
"487",20,36,2,2,7,2,2,1,3,0.610526199110106,0.667811978326432
"488",20,39,2,2,8,3,1,0,2,1.37660580644855,1.44567946596679
"489",20,25,2,1,9,1,1,1,4,0.419510249773321,0.420176525783557
"490",20,32,2,1,10,2,2,0,2,0.795984173402457,0.851955910490164
"491",20,30,2,1,11,1,1,1,5,0.374450956828367,0.406570748080614
"492",20,22,2,1,12,3,2,0,1,0.750203205961421,0.714757241624125
"493",20,28,2,1,13,3,1,1,2,0.930228940311522,0.972601549217365
"494",20,30,2,1,14,3,1,1,3,0.764213455025938,0.772614259680042
"495",20,23,2,2,15,1,2,1,5,0.395681279985108,0.355586447690958
"496",20,38,2,2,16,2,1,0,3,0.64806131914951,0.700658022967587
"497",20,36,2,1,17,2,1,1,4,0.537511969784355,0.514842127235893
"498",20,39,2,1,18,2,1,1,4,0.48354477908096,0.405168956001604
"499",20,25,2,1,19,2,2,0,3,0.528663526609981,0.573634472591281
"500",20,32,2,2,20,1,2,1,4,0.562575828244162,0.555174633325676
"501",20,30,2,2,21,3,1,0,1,0.600142701039761,0.684138409296717
"502",20,22,2,1,22,2,1,1,4,0.733555190421884,0.695751559502281
"503",20,28,2,2,23,2,2,1,4,0.404088310405936,0.393064874588174
"504",20,30,2,1,24,2,2,0,2,0.831098465201805,0.778741682849535
"505",20,23,2,2,25,3,2,1,2,1.13591531221674,1.12528502867588
"506",20,38,2,1,26,1,2,0,4,0.676455592160083,0.728828069085501
"507",20,36,2,1,27,3,2,0,1,0.885938302880014,0.836469975505622
"508",20,39,2,2,28,3,1,0,2,1.51762395297551,1.54608406028186
"509",20,25,2,2,29,1,2,1,4,0.292739713475479,0.244290330523607
"510",20,32,2,1,30,3,2,0,2,0.80292680911735,0.776632399028561
"511",20,30,2,2,31,1,2,1,4,0.38464918262406,0.38278958526562
"512",20,22,2,1,32,1,1,1,4,0.457492113851111,0.450863630832011
"513",20,28,2,1,33,1,1,1,5,0.547399753016461,0.541722993778182
"514",20,30,2,1,34,3,2,0,2,0.858332186376965,0.86459103332188
"515",20,23,2,1,35,2,1,1,4,0.707578985806973,0.689598533335973
"516",20,38,2,1,36,3,1,1,2,0.568249247382219,0.602652463819745
"517",20,36,2,2,37,3,1,0,1,0.666997258477948,0.635900999209744
"518",20,39,2,2,38,2,2,1,3,0.621526465720395,0.626878694071494
"519",20,25,2,2,39,1,2,1,4,0.476451487505165,0.585852483098192
"520",20,32,2,2,40,2,1,0,3,0.579064034854685,0.546142962140439
"521",20,30,2,1,41,3,1,1,2,0.557956979356565,0.584533211028989
"522",20,22,2,2,42,3,2,1,2,0.742300758580421,0.732457878379454
"523",20,28,2,1,43,2,1,1,4,0.512114591185639,0.492284159469987
"524",20,30,2,2,44,3,1,0,2,0.848020313821258,0.821158290176572
"525",20,23,2,2,45,3,2,1,3,0.729555452591584,0.741584239470111
"526",20,38,2,1,46,1,1,1,4,0.502972054293717,0.487640190461385
"527",20,36,2,2,47,1,1,0,4,0.378385246576986,0.408149139577768
"528",20,39,2,1,48,3,1,1,3,0.48144993574352,0.414844383644246
"529",20,25,2,2,49,1,2,1,5,0.466189002076077,0.472072541267914
"530",20,32,2,1,50,2,2,0,2,0.918359462083417,0.961519259372329
"531",20,30,2,2,51,2,2,1,3,0.623164644092957,0.597249178148053
"532",20,22,2,1,52,2,2,0,3,0.614025502729214,0.595844926501827
"533",20,28,2,1,53,3,2,0,2,1.14875402850641,1.16000738410151
"534",20,30,2,1,54,3,2,0,2,1.34009170487056,1.31944296507059
"535",20,23,2,2,55,2,1,0,3,0.67595345619144,0.668598668755579
"536",20,38,2,2,56,3,1,0,2,0.549518308467455,0.445314334013979
"537",20,36,2,2,57,3,2,1,2,0.8230383993111,0.904851147502384
"538",20,39,2,2,58,1,2,1,5,0.379433488794809,0.383189925007782
"539",20,25,2,1,59,1,1,1,5,0.328797624110677,0.261733521483493
"540",20,32,2,2,60,1,2,1,4,0.379046163177503,0.407817433982497
"541",20,30,2,1,61,1,1,1,4,0.396432001462653,0.337985287138787
"542",20,22,2,2,62,3,1,0,2,0.624119425692037,0.652188339750134
"543",20,28,2,1,63,2,2,0,3,0.617471830377308,0.561909905381964
"544",20,30,2,2,64,3,1,0,1,1.32128843563479,1.28594323260007
"545",20,23,2,1,65,3,1,1,3,0.65235614662969,0.658130637352784
"546",20,38,2,2,66,2,2,1,3,0.724922382715156,0.663992599524525
"547",20,36,2,1,67,2,1,1,3,0.810308489777199,0.890526808943054
"548",20,39,2,1,68,3,2,0,2,1.47471374477342,1.42204168799824
"549",20,25,2,2,69,1,2,1,4,0.293648043186658,0.258898530856631
"550",20,32,2,1,70,3,2,0,2,1.45502374573811,1.54496152384645
"551",20,30,2,1,71,3,2,0,2,1.04882507288766,1.09517955588644
"552",20,22,2,1,72,2,2,0,2,0.552049068762157,0.549929613187008
"553",20,28,2,2,73,1,1,0,3,0.675039501257108,0.686206785777655
"554",20,30,2,2,74,3,1,0,2,1.15412889250219,1.12108772043227
"555",20,23,2,1,75,2,2,0,3,0.573409567848593,0.523830437002054
"556",20,38,2,1,76,1,1,1,5,0.446512917477243,0.433375895407655
"557",20,36,2,2,77,1,2,1,5,0.505105988355496,0.530680596683321
"558",20,39,2,2,78,2,2,1,4,0.577280064865189,0.599858378213074
"559",20,25,2,2,79,1,2,1,4,0.286927523716228,0.336748976822294
"560",20,32,2,2,80,1,2,1,4,0.370085738840504,0.357418074041362
"561",20,30,2,1,81,2,2,0,3,0.593950380580199,0.612728090648531
"562",20,22,2,2,82,3,1,0,2,1.13112530283772,1.17771387792447
"563",20,28,2,2,83,2,2,1,3,0.646219008503785,0.646220937165396
"564",20,30,2,2,84,1,2,1,5,0.263296926312951,0.353356111629393
"565",20,23,2,1,85,1,2,0,3,0.660763587485727,0.664837740086863
"566",20,38,2,2,86,3,1,0,2,0.942917086570372,0.950820989792759
"567",20,36,2,1,87,1,1,1,5,0.463791503337796,0.436130691854106
"568",20,39,2,1,88,2,1,1,3,0.621275688158559,0.685876250351913
"569",20,25,2,1,89,1,2,0,4,0.647438050902033,0.652239206232707
"570",20,32,2,2,90,3,1,0,2,0.666855283275555,0.708725280416658
"571",20,30,2,1,91,2,2,0,3,0.747048918685725,0.79451376989216
"572",20,22,2,1,92,1,1,1,5,0.245327857162004,0.202382488700889
"573",20,28,2,1,93,1,1,1,4,0.377868223955594,0.318367232442419
"574",20,30,2,2,94,2,1,0,2,0.776644677600845,0.743108027010565
"575",20,23,2,1,95,2,1,1,3,0.647502952235366,0.74511407030884
"576",20,38,2,2,96,2,2,1,4,0.577292096911177,0.534217019957997
"577",20,36,2,2,97,1,1,0,4,0.498306506287522,0.501092233011358
"578",20,39,2,1,98,2,1,1,3,0.776144589945087,0.786259538549057
"579",20,25,2,1,99,3,1,1,2,0.29049293812905,0.285870998431922
"580",20,32,2,1,100,1,1,1,5,0.472129969074856,0.376798064840645
"581",20,30,2,2,101,1,2,1,5,0.332040375117026,0.318698246286516
"582",20,22,2,2,102,3,2,1,2,0.67352780399002,0.71104084109669
"583",20,28,2,1,103,1,1,1,4,0.312526938708955,0.34624549319548
"584",20,30,2,1,104,3,1,1,3,0.692669621705722,0.705912489208288
"585",20,23,2,2,105,2,2,1,3,0.662379680794482,0.650764158039308
"586",20,38,2,1,106,3,1,1,3,0.685669728143197,0.719971542590001
"587",20,36,2,2,107,1,2,1,4,0.392490847842217,0.369822429489725
"588",20,39,2,1,108,3,2,0,1,0.60351705217392,0.593829429126006
"589",20,25,2,2,109,1,2,1,4,0.371107095180583,0.392157184270363
"590",20,32,2,2,110,3,2,1,2,0.694642553374836,0.680281194306369
"591",20,30,2,2,111,1,1,0,3,0.461341993443375,0.453311453343581
"592",20,22,2,1,112,2,2,0,3,0.79962494150136,0.855411002988407
"593",20,28,2,1,113,3,2,0,1,1.60230728044079,1.64838629688592
"594",20,30,2,1,114,1,1,1,5,0.367798945139201,0.274881540648416
"595",20,23,2,2,115,2,2,1,3,0.536089207746537,0.591664574212618
"596",20,38,2,2,116,1,2,1,4,0.399969925413706,0.359664784668046
"597",20,36,2,1,117,3,2,0,2,0.947249258691367,0.987561474115013
"598",20,39,2,2,118,2,1,0,3,0.674199557416175,0.565699623399642
"599",20,25,2,1,119,3,2,0,2,1.01399147650966,0.991565699204749
"600",20,32,2,2,120,1,2,1,4,0.588815287388056,0.501766395845394
"601",20,30,2,1,121,1,1,1,5,0.34473269607597,0.380854223582872
"602",20,22,2,2,122,3,1,0,2,0.815520382819423,0.76059040093953
"603",20,28,2,1,123,1,1,1,4,0.418447548629996,0.461717250181478
"604",20,30,2,2,124,2,2,1,3,0.45713743992998,0.442138613006055
"605",20,23,2,2,125,1,1,0,4,0.461980029706374,0.498190779652989
"606",20,38,2,1,126,3,1,1,3,0.796095379135023,0.831189679755674
"607",20,36,2,1,127,3,1,1,3,0.616481381629322,0.531120757435677
"608",20,39,2,2,128,1,2,1,5,0.329830981063327,0.345667898931281
"609",20,25,2,1,129,2,2,0,2,0.876376979783033,0.812654468506978
"610",20,32,2,1,130,3,1,1,2,0.834017480559091,0.909665261056924
"611",20,30,2,2,131,2,1,0,3,0.717227961649717,0.72619060997347
"612",20,22,2,2,132,1,2,1,5,0.453303020653923,0.463375671607309
"613",20,28,2,2,133,3,1,0,1,1.12994863326368,1.07297449376126
"614",20,30,2,2,134,2,1,0,2,0.661035924286971,0.604090957845178
"615",20,23,2,1,135,3,2,0,2,0.971956479855856,0.926452458996581
"616",20,38,2,1,136,1,2,0,4,0.603544499950802,0.602740081805713
"617",20,36,2,1,137,3,1,1,3,0.764303440028831,0.774201035622169
"618",20,39,2,2,138,2,2,1,3,0.914045529159515,0.906014698687028
"619",20,25,2,2,139,1,1,0,4,0.514989297751686,0.578020268830728
"620",20,32,2,2,140,3,1,0,1,0.886674078388081,0.864715989510898
"621",20,30,2,1,141,2,1,1,3,0.533286169871286,0.498224776575948
"622",20,22,2,2,142,3,1,0,1,1.29620374203015,1.30204274538617
"623",20,28,2,1,143,2,1,1,4,0.526590522640595,0.534317040528751
"624",20,30,2,1,144,3,1,1,2,0.719374128802757,0.750443801767491
"625",20,23,2,1,145,3,1,1,3,0.593884037873303,0.630533830298973
"626",20,38,2,1,146,2,1,1,4,0.770908683809438,0.642401964492957
"627",20,36,2,1,147,3,2,0,2,0.468319968009257,0.495259963567136
"628",20,39,2,1,148,2,2,0,3,0.712389089277952,0.667369373937749
"629",20,25,2,2,149,2,1,0,3,0.406596873316308,0.413974054021561
"630",20,32,2,2,150,2,1,0,2,0.684115981358407,0.753004819388449
"631",20,30,2,2,151,3,1,0,1,1.39644156841998,1.36856728589472
"632",20,22,2,1,152,3,2,0,1,1.52718783331346,1.50966936446919
"633",20,28,2,1,153,3,2,0,2,0.700166160053915,0.676120410727749
"634",20,30,2,2,154,1,2,1,5,0.461887999139396,0.366676775456474
"635",20,23,2,1,155,1,1,1,5,0.518811149468143,0.426752822980165
"636",20,38,2,2,156,2,2,1,4,0.528782037205776,0.506530703940105
"637",20,36,2,1,157,3,2,0,2,1.05502131366301,1.1004221460716
"638",20,39,2,1,158,1,2,0,4,0.336044308113592,0.41617790280371
"639",20,25,2,2,159,1,2,1,5,0.284544462496152,0.333753003539298
"640",20,32,2,2,160,1,2,1,5,0.369211395990128,0.294874591072217
"641",20,30,2,1,161,3,2,0,2,0.960850044139309,1.0086698865793
"642",20,22,2,2,162,2,1,0,2,0.632540808893116,0.71486353058478
"643",20,28,2,2,163,1,1,0,3,0.586989613981655,0.487439523485906
"644",20,30,2,2,164,2,2,1,4,0.622055689868904,0.590426481536318
"645",20,23,2,2,165,3,1,0,1,0.800228111673437,0.747007862559972
"646",20,38,2,2,166,1,2,1,5,0.364953135042869,0.365926126616167
"647",20,36,2,1,167,2,2,0,3,0.692828089821533,0.709459211480404
"648",20,39,2,1,168,3,2,0,1,1.87069380007407,1.79887762926435
"649",20,25,2,2,169,1,2,1,5,0.334470798312955,0.341208199813883
"650",20,32,2,1,170,2,2,0,3,0.805649069185905,0.792795982303576
"651",20,30,2,1,171,2,2,0,3,0.630837343414868,0.731336227023715
"652",20,22,2,2,172,1,2,1,5,0.375685975933737,0.28882589941779
"653",20,28,2,1,173,3,2,0,1,1.42264133768785,1.38787776612997
"654",20,30,2,2,174,2,2,1,3,0.881384926277528,0.846733985784779
"655",20,23,2,1,175,1,1,1,4,0.364415374467688,0.393398606496533
"656",20,38,2,2,176,3,2,1,3,0.714247483962728,0.725826319983775
"657",20,36,2,1,177,1,1,1,4,0.50697223832801,0.488426204909321
"658",20,39,2,2,178,1,2,1,5,0.470446379772548,0.520720508037821
"659",20,25,2,2,179,1,1,0,3,0.302805710066212,0.327375881250063
"660",20,32,2,1,180,2,1,1,3,0.641061034347969,0.573478456948136
"661",20,30,2,2,181,1,2,1,4,0.51046455339789,0.527383198895013
"662",20,22,2,1,182,1,2,0,3,0.62830181800797,0.590796665411401
"663",20,28,2,2,183,2,1,0,3,0.665447588637465,0.688995300313896
"664",20,30,2,2,184,2,1,0,2,0.819791482408888,0.795715554083142
"665",20,23,2,1,185,1,1,1,4,0.41118366608164,0.365297892091126
"666",20,38,2,2,186,2,2,1,4,0.393893840164372,0.454897356339944
"667",20,36,2,1,187,1,1,1,4,0.384235364738327,0.353886476358814
"668",20,39,2,1,188,3,2,0,2,0.810539780384826,0.834666377993805
"669",20,25,2,2,189,3,2,1,3,0.470487069591442,0.509317950752973
"670",20,32,2,1,190,2,1,1,3,0.407716832064416,0.39057833501476
"671",20,30,2,1,191,1,1,1,4,0.371189154353358,0.307937030549234
"672",20,22,2,1,192,2,1,1,3,0.809587922345055,0.785663102520544
"673",20,28,2,2,193,2,2,1,3,0.635669514556135,0.557661681862488
"674",20,30,2,1,194,3,2,0,1,0.80326590887811,0.76415009733885
"675",20,23,2,2,195,1,2,1,4,0.518275211125332,0.601051323212715
"676",20,38,2,2,196,3,2,1,2,1.17235383661447,1.21939444779046
"677",20,36,2,2,197,1,2,1,5,0.429092685566327,0.422750209961274
"678",20,39,2,2,198,1,2,1,4,0.413709878293393,0.493216983982891
"679",20,25,2,1,199,3,1,1,2,0.885161741989702,0.815762693680981
"680",20,32,2,1,200,1,1,1,5,0.222161038669368,0.197470699287885
"681",20,30,2,1,201,1,1,1,5,0.444566897419657,0.385417524830574
"682",20,22,2,2,202,3,2,1,2,0.825403471177539,0.758257676227107
"683",20,28,2,2,203,3,2,1,2,0.581732211013291,0.49463358048759
"684",20,30,2,2,204,1,2,1,5,0.362869832226446,0.401848795634481
"685",20,23,2,1,205,2,1,1,4,0.728931796391366,0.675005854778472
"686",20,38,2,1,206,2,1,1,3,0.569053375835441,0.548127840244989
"687",20,36,2,1,207,2,2,0,2,0.650946977793333,0.638165133451182
"688",20,39,2,1,208,2,1,1,3,0.412757310259591,0.476083293196051
"689",20,25,2,1,209,2,2,0,2,0.844025391104916,0.791461039070774
"690",20,32,2,2,210,1,2,1,5,0.372619253406727,0.46929535030823
"691",20,30,2,2,211,3,2,1,2,1.28299060892272,1.26660429040817
"692",20,22,2,2,212,1,2,1,5,0.518489555491071,0.434760817339015
"693",20,28,2,2,213,1,2,1,4,0.390537032509979,0.391885178651939
"694",20,30,2,2,214,3,1,0,2,1.79831448430757,1.90330313081054
"695",20,23,2,1,215,2,1,1,3,0.849285239204569,0.824722801992718
"696",20,38,2,2,216,3,2,1,3,0.619615220274735,0.685839463508789
"697",20,36,2,1,217,2,2,0,2,0.819477695515106,0.820687416863864
"698",20,39,2,2,218,1,2,1,4,0.377068084889116,0.338909856268806
"699",20,25,2,2,219,1,2,1,4,0.318095055731774,0.330988268400397
"700",20,32,2,2,220,3,1,0,1,1.48361148692163,1.51106951858008
"701",20,30,2,1,221,2,2,0,2,0.622085464814824,0.713906878190114
"702",20,22,2,2,222,1,2,1,5,0.346173702390003,0.295139836517619
"703",20,28,2,1,223,3,1,1,2,0.81547301640377,0.805502448636081
"704",20,30,2,2,224,2,1,0,2,0.865396413076009,0.816244424367312
"705",20,23,2,2,225,2,1,0,3,0.741368842699043,0.728635509709912
"706",20,38,2,2,226,2,1,0,3,0.558007639032261,0.563394609656131
"707",20,36,2,2,227,2,2,1,3,0.582060672499575,0.489871690952589
"708",20,39,2,1,228,3,1,1,2,0.72129262615069,0.646581757926047
"709",20,25,2,2,229,2,1,0,3,0.756435823859338,0.656895003606126
"710",20,32,2,1,230,2,1,1,3,0.572640569769565,0.550815567526403
"711",20,30,2,2,231,3,2,1,2,0.781756167941832,0.805743026576022
"712",20,22,2,1,232,3,2,0,1,0.949648117868065,0.99667758363506
"713",20,28,2,2,233,1,2,1,5,0.421712379705915,0.383496678135818
"714",20,30,2,1,234,3,1,1,3,0.922428707690597,0.950279844388308
"715",20,23,2,2,235,2,1,0,2,0.629704683222186,0.685889212423586
"716",20,38,2,1,236,3,1,1,2,1.1843876342278,1.16142250156979
"717",20,36,2,1,237,1,1,1,4,0.37380913171017,0.409301455127921
"718",20,39,2,2,238,1,2,1,5,0.461325955008921,0.495859473809044
"719",20,25,2,2,239,1,2,1,5,0.53737791564213,0.522479410338257
"720",20,32,2,1,240,2,1,1,4,0.605188144903941,0.58669954758661
"721",19,31,1,1,1,2,1,1,4,0.684224684194549,0.559322555237488
"722",19,39,1,2,2,1,2,1,4,0.224943692015209,0.298618639756188
"723",19,39,1,2,3,2,2,1,4,0.816127121148196,0.820263980644369
"724",19,29,1,1,4,2,1,1,3,0.505067976784613,0.474029955367569
"725",19,29,1,2,5,1,2,1,5,0.449287541540791,0.362451406368672
"726",19,32,1,2,6,2,2,1,3,0.586610960058194,0.570877189332425
"727",19,24,1,1,7,3,2,0,1,0.705994734457198,0.704064628803023
"728",19,36,1,1,8,3,1,1,3,0.623000900181553,0.601676649679935
"729",19,30,1,2,9,3,2,1,2,0.813861150267281,0.786311876990156
"730",19,36,1,2,10,1,2,1,4,0.333202309035002,0.326922210446413
"731",19,31,1,1,11,3,1,1,3,0.78426468839521,0.907641319283084
"732",19,39,1,2,12,1,2,1,5,0.403101696542534,0.436020199691125
"733",19,39,1,2,13,1,1,0,4,0.667187639578759,0.636467101383107
"734",19,29,1,1,14,1,1,1,5,0.434186664946021,0.556054114579033
"735",19,29,1,2,15,1,2,1,5,0.382765039386157,0.343662740193637
"736",19,32,1,2,16,1,2,1,4,0.477306557517536,0.450909324801501
"737",19,24,1,2,17,1,2,1,5,0.461723075337797,0.413831374628073
"738",19,36,1,2,18,3,2,1,2,0.941948988660609,0.947473417695873
"739",19,30,1,1,19,2,2,0,2,0.796278932184779,0.83730275780288
"740",19,36,1,1,20,3,2,0,2,0.626561466225983,0.663801334607281
"741",19,31,1,1,21,1,1,1,4,0.335286439439385,0.405570225744798
"742",19,39,1,2,22,3,1,0,2,1.35485037989841,1.29658781182912
"743",19,39,1,1,23,3,1,1,2,1.11240178067516,1.08292881689244
"744",19,29,1,2,24,3,2,1,3,0.686714156068954,0.699423323375422
"745",19,29,1,1,25,2,2,0,3,0.665923216781943,0.745590119691575
"746",19,32,1,1,26,3,2,0,2,1.22095967025728,1.22701327828635
"747",19,24,1,2,27,3,1,0,2,0.711787684836971,0.701314549227543
"748",19,36,1,1,28,1,1,1,4,0.40859464233854,0.400170113964148
"749",19,30,1,2,29,3,1,0,1,1.01512597902527,1.02529339548216
"750",19,36,1,1,30,2,1,1,3,0.505368219091508,0.480457205582477
"751",19,31,1,1,31,2,1,1,4,0.773879522719609,0.779468740609259
"752",19,39,1,1,32,1,2,0,3,0.678696492321423,0.710211460344342
"753",19,39,1,1,33,2,1,1,4,0.556264101516318,0.553211454260747
"754",19,29,1,2,34,3,2,1,3,0.748697156755427,0.805315402174928
"755",19,29,1,2,35,3,1,0,1,1.59951601073805,1.6460486575545
"756",19,32,1,2,36,3,2,1,3,0.787480716846919,0.708876052821837
"757",19,24,1,1,37,1,1,1,5,0.431488921805736,0.435868204034932
"758",19,36,1,2,38,3,2,1,3,0.331329652472056,0.375761754815654
"759",19,30,1,1,39,2,1,1,3,0.534133475749175,0.657367933067574
"760",19,36,1,1,40,1,1,1,4,0.384157543391926,0.330759333806712
"761",19,31,1,1,41,2,1,1,3,0.606907957303135,0.703756401970935
"762",19,39,1,1,42,1,1,1,4,0.372049618021333,0.387884723396671
"763",19,39,1,2,43,2,2,1,3,0.662188013367192,0.631566046490804
"764",19,29,1,2,44,3,1,0,2,0.713917062462172,0.766022608369464
"765",19,29,1,1,45,2,1,1,4,0.51926142421623,0.47595553354965
"766",19,32,1,1,46,2,2,0,2,0.732307514675096,0.765764764211679
"767",19,24,1,2,47,1,2,1,5,0.433880324405193,0.439202182375747
"768",19,36,1,1,48,1,1,1,5,0.302582053054259,0.343626485554177
"769",19,30,1,2,49,2,2,1,4,0.349682222317797,0.26288560850806
"770",19,36,1,2,50,2,1,0,2,0.518009399713844,0.472839246688458
"771",19,31,1,2,51,2,2,1,4,0.555302506741363,0.527267121162885
"772",19,39,1,1,52,3,2,0,2,0.840131788289857,0.807692521190661
"773",19,39,1,2,53,2,2,1,3,0.621774874354444,0.602078443967551
"774",19,29,1,2,54,2,2,1,4,0.599663556239344,0.54704028998259
"775",19,29,1,1,55,3,1,1,2,0.965146966126921,0.956098461871263
"776",19,32,1,2,56,1,2,1,4,0.429071659436283,0.438824255235735
"777",19,24,1,1,57,2,2,0,2,0.618184738665514,0.639093150958432
"778",19,36,1,2,58,3,1,0,1,0.951484303693778,0.930650143285604
"779",19,30,1,1,59,3,2,0,2,0.746396323707512,0.723723199870494
"780",19,36,1,1,60,1,1,1,5,0.370381910859887,0.347725186583628
"781",19,31,1,1,61,2,1,1,3,0.631038655768218,0.552950059233021
"782",19,39,1,1,62,2,1,1,4,0.589842394374896,0.482290130769562
"783",19,39,1,1,63,2,1,1,4,0.742272138323444,0.743610976647987
"784",19,29,1,1,64,1,2,0,3,0.471450403641625,0.393167621327009
"785",19,29,1,1,65,1,1,1,4,0.403003431727459,0.40121886240771
"786",19,32,1,1,66,3,1,1,2,0.771484281023982,0.745398757689368
"787",19,24,1,2,67,3,2,1,3,0.833533845967914,0.869491328428542
"788",19,36,1,2,68,1,2,1,4,0.414363175000511,0.385854632969234
"789",19,30,1,1,69,1,2,0,4,0.699218978786691,0.704496149100547
"790",19,36,1,2,70,1,2,1,4,0.460104899962176,0.520255975129767
"791",19,31,1,1,71,2,1,1,3,0.688369578925179,0.674627233270394
"792",19,39,1,1,72,3,2,0,2,0.264852068195128,0.182131642553322
"793",19,39,1,1,73,2,1,1,4,0.337100538488247,0.371331432402602
"794",19,29,1,2,74,2,2,1,3,0.552046155884668,0.527446965631628
"795",19,29,1,1,75,1,2,0,3,0.527464984102374,0.530750940529614
"796",19,32,1,2,76,3,1,0,2,1.36474774840166,1.35702328586667
"797",19,24,1,1,77,3,1,1,3,0.822175941871046,0.714294246236616
"798",19,36,1,1,78,2,2,0,2,0.411147954191659,0.516521510795327
"799",19,30,1,2,79,3,1,0,2,0.722064307765257,0.720228925045807
"800",19,36,1,2,80,1,1,0,4,0.48610107231737,0.484012593631078
"801",19,31,1,1,81,3,2,0,2,0.919554639440359,0.955718087171463
"802",19,39,1,2,82,1,2,1,5,0.479300309248889,0.435130409159516
"803",19,39,1,1,83,1,1,1,5,0.324866669318989,0.297397584063734
"804",19,29,1,1,84,2,2,0,3,0.788872974426654,0.791542731593307
"805",19,29,1,2,85,1,1,0,4,0.45513433914798,0.419815733473042
"806",19,32,1,2,86,1,2,1,5,0.334499386833568,0.327788062405177
"807",19,24,1,2,87,2,1,0,2,0.529818166523449,0.530951896837159
"808",19,36,1,2,88,2,2,1,3,0.636528213789405,0.659899701497711
"809",19,30,1,1,89,2,1,1,4,0.595470743903319,0.626166778264797
"810",19,36,1,2,90,3,1,0,2,0.707366312720227,0.715839981738848
"811",19,31,1,1,91,3,1,1,3,0.439242846083932,0.449980990208075
"812",19,39,1,2,92,2,1,0,3,0.939847925373776,0.8504577683105
"813",19,39,1,2,93,2,2,1,3,0.262332598218744,0.231867327072907
"814",19,29,1,2,94,2,1,0,2,0.820027253138739,0.836038857348791
"815",19,29,1,2,95,2,1,0,2,0.841431268043764,0.829485381401466
"816",19,32,1,2,96,2,1,0,2,0.511431148571603,0.517345457215586
"817",19,24,1,1,97,1,1,1,4,0.41183457866872,0.370982263551352
"818",19,36,1,1,98,1,1,1,4,0.505436478258554,0.440220972739673
"819",19,30,1,2,99,3,1,0,2,1.35064343416929,1.3686114088649
"820",19,36,1,2,100,3,2,1,3,1.04299953102999,1.05512232830795
"821",19,31,1,1,101,2,1,1,3,0.552502508396548,0.609474794651157
"822",19,39,1,1,102,1,1,1,5,0.453352915545171,0.476426648751587
"823",19,39,1,1,103,3,2,0,1,0.923025632309588,0.879900615931907
"824",19,29,1,2,104,3,2,1,2,0.795795843368672,0.669833571204058
"825",19,29,1,2,105,3,1,0,2,1.32618739615771,1.30319103819462
"826",19,32,1,1,106,1,1,1,4,0.402717085958039,0.348909477359666
"827",19,24,1,2,107,3,1,0,2,1.49855411186849,1.37374717365167
"828",19,36,1,2,108,1,2,1,5,0.376349043585915,0.384759956703324
"829",19,30,1,2,109,3,2,1,2,1.1222964315472,1.0947989495075
"830",19,36,1,1,110,2,1,1,3,0.812021660818678,0.796813731728868
"831",19,31,1,1,111,1,1,1,4,0.484200433735146,0.441351241152234
"832",19,39,1,2,112,2,1,0,2,0.409864468524187,0.398540217675845
"833",19,39,1,2,113,1,2,1,5,0.307444054867774,0.27781221531458
"834",19,29,1,2,114,3,1,0,1,1.73986448888108,1.732108994922
"835",19,29,1,2,115,2,1,0,2,0.666058902291999,0.675492984147593
"836",19,32,1,2,116,3,2,1,3,1.14502304739743,1.11788097451604
"837",19,24,1,1,117,1,1,1,5,0.390006594699963,0.451784451960797
"838",19,36,1,1,118,2,1,1,3,0.706412503132187,0.74153386480398
"839",19,30,1,1,119,1,2,0,3,0.440431774180736,0.551275645753538
"840",19,36,1,2,120,1,2,1,5,0.524243015854861,0.457729625585341
"841",19,31,1,2,121,1,2,1,4,0.373707757700136,0.332109182715002
"842",19,39,1,1,122,1,1,1,4,0.362985021361567,0.381937609417667
"843",19,39,1,2,123,3,1,0,2,0.936453952139737,0.861114911975223
"844",19,29,1,2,124,3,1,0,1,1.32093998584285,1.26670901528546
"845",19,29,1,1,125,1,1,1,4,0.300948056004084,0.239212369319616
"846",19,32,1,2,126,3,1,0,1,1.75748441682464,1.76774473464809
"847",19,24,1,1,127,2,2,0,2,0.588739043170277,0.514632851590544
"848",19,36,1,2,128,1,2,1,5,0.341464115207942,0.339106730174464
"849",19,30,1,1,129,2,1,1,4,0.363329985352366,0.345298910989445
"850",19,36,1,1,130,2,2,0,2,0.655733361504222,0.698836930944897
"851",19,31,1,2,131,2,1,0,3,0.26150321191576,0.295054542688009
"852",19,39,1,2,132,2,1,0,2,0.831309715629147,0.817581061810393
"853",19,39,1,2,133,3,2,1,3,0.462405597962697,0.490378217348035
"854",19,29,1,2,134,3,2,1,2,0.700024153299266,0.794621713387983
"855",19,29,1,1,135,3,2,0,1,0.990800457889074,0.936415649271894
"856",19,32,1,2,136,2,2,1,3,0.7207456106999,0.711109420422653
"857",19,24,1,2,137,1,2,1,5,0.279747880499746,0.28760576638295
"858",19,36,1,2,138,2,1,0,3,0.628225750425012,0.745421149142778
"859",19,30,1,1,139,2,2,0,2,0.939221095096057,0.964027101233158
"860",19,36,1,1,140,3,2,0,2,1.69661824570584,1.75746086849005
"861",19,31,1,2,141,3,2,1,3,1.11618970049597,1.16194317800874
"862",19,39,1,1,142,1,1,1,5,0.352706084439704,0.308580816704033
"863",19,39,1,2,143,1,1,0,3,0.663111455707572,0.672159361416317
"864",19,29,1,2,144,2,2,1,4,0.649261681699378,0.643969128791231
"865",19,29,1,2,145,2,2,1,3,0.742247293818971,0.765110701474898
"866",19,32,1,2,146,2,2,1,3,0.595064431430805,0.597433663901926
"867",19,24,1,1,147,3,1,1,3,0.531134013424794,0.593201712270715
"868",19,36,1,1,148,2,2,0,3,0.534697980454168,0.638771380170188
"869",19,30,1,2,149,1,2,1,5,0.382488658534356,0.412936273704292
"870",19,36,1,2,150,3,2,1,3,0.40313337445248,0.376101937074843
"871",19,31,1,1,151,3,2,0,1,0.499440840536894,0.563535830711314
"872",19,39,1,1,152,1,1,1,5,0.502161430454545,0.467667920096034
"873",19,39,1,1,153,1,1,1,4,0.423242038877402,0.48302959199781
"874",19,29,1,1,154,1,1,1,5,0.474917407479497,0.496193199523048
"875",19,29,1,2,155,1,2,1,4,0.285527754091715,0.266013866015234
"876",19,32,1,2,156,1,2,1,4,0.382447918936939,0.363133588466169
"877",19,24,1,2,157,3,1,0,2,0.972101078843392,0.925742550633828
"878",19,36,1,1,158,2,2,0,2,0.886616101866211,0.875279277822823
"879",19,30,1,1,159,1,2,0,4,0.589942462605737,0.553762481400188
"880",19,36,1,1,160,2,2,0,2,0.663084271434595,0.690222777003034
"881",19,31,1,1,161,2,1,1,3,0.476237239425049,0.473048531724261
"882",19,39,1,2,162,2,2,1,3,0.43531905305535,0.455804389879328
"883",19,39,1,2,163,3,2,1,3,0.945617677087145,0.952196154927465
"884",19,29,1,1,164,2,1,1,4,0.494391843539019,0.587525613029044
"885",19,29,1,1,165,1,1,1,5,0.409073777168102,0.453299818692818
"886",19,32,1,2,166,1,2,1,5,0.474014942906828,0.497920828655078
"887",19,24,1,2,167,1,2,1,4,0.362352792473515,0.396583677624505
"888",19,36,1,2,168,1,1,0,3,0.260653918288807,0.430422568837279
"889",19,30,1,1,169,3,1,1,2,0.815001749313645,0.878395914362369
"890",19,36,1,1,170,3,2,0,2,1.14585727290049,1.03223848252356
"891",19,31,1,1,171,2,1,1,3,0.654835252830363,0.623364141784362
"892",19,39,1,1,172,1,1,1,4,0.408633662749152,0.447987881132536
"893",19,39,1,1,173,2,1,1,4,0.510589189604822,0.528186032270054
"894",19,29,1,1,174,2,2,0,3,0.741946972263623,0.754806155114876
"895",19,29,1,1,175,1,1,1,5,0.366128280584625,0.375154539698891
"896",19,32,1,2,176,3,2,1,3,1.11344649843319,1.16623487881359
"897",19,24,1,2,177,3,2,1,3,0.959915576726317,0.981865171325986
"898",19,36,1,2,178,1,2,1,5,0.328452047878526,0.296785137946156
"899",19,30,1,1,179,1,1,1,5,0.330247317130308,0.293830050060548
"900",19,36,1,2,180,3,1,0,2,1.14225063982614,1.11277284749398
"901",19,31,1,2,181,1,2,1,4,0.403873604246471,0.485622214687519
"902",19,39,1,1,182,2,1,1,3,0.659930094498188,0.616657223214366
"903",19,39,1,2,183,2,2,1,4,0.499242967692098,0.451083718037543
"904",19,29,1,1,184,3,1,1,2,0.574813842030719,0.527220731804833
"905",19,29,1,1,185,3,1,1,3,0.507601966053658,0.522861733748521
"906",19,32,1,2,186,3,1,0,1,0.562219676778555,0.558919073694097
"907",19,24,1,2,187,3,1,0,2,0.759649367667242,0.766909422175039
"908",19,36,1,1,188,1,1,1,5,0.495350491104336,0.541029842824656
"909",19,30,1,1,189,2,2,0,3,0.721929696394875,0.748193130104081
"910",19,36,1,2,190,1,2,1,4,0.456306580345101,0.491846448736669
"911",19,31,1,1,191,1,1,1,5,0.435312525355355,0.397331485123913
"912",19,39,1,1,192,2,1,1,3,0.552006333002714,0.553691643486886
"913",19,39,1,2,193,2,2,1,3,0.460528811172403,0.466648331059611
"914",19,29,1,1,194,2,1,1,4,0.454133045272933,0.462757221645119
"915",19,29,1,2,195,3,1,0,2,1.09874220798571,1.03953001330768
"916",19,32,1,2,196,1,2,1,4,0.526922724675394,0.521257178652468
"917",19,24,1,2,197,3,2,1,3,0.831913266466564,0.907695286298504
"918",19,36,1,2,198,3,2,1,2,0.547793030295953,0.572707132620912
"919",19,30,1,1,199,3,1,1,3,1.19106405688801,1.22619497235261
"920",19,36,1,1,200,1,1,1,4,0.533913558371438,0.519412922033787
"921",19,31,1,1,201,2,1,1,3,0.710187712537362,0.731856844975938
"922",19,39,1,2,202,1,1,0,3,0.53568478422336,0.435550920033027
"923",19,39,1,1,203,1,1,1,4,0.361640184193658,0.438472304893997
"924",19,29,1,1,204,2,1,1,3,0.844134435465386,0.807895479303851
"925",19,29,1,1,205,1,1,1,5,0.548004522342638,0.551113672984321
"926",19,32,1,2,206,2,1,0,3,0.719023416331804,0.697023157558476
"927",19,24,1,1,207,1,2,0,3,0.574352600269293,0.615218204463394
"928",19,36,1,1,208,3,2,0,2,0.967634465886382,0.925900394107912
"929",19,30,1,1,209,1,1,1,5,0.317218669636479,0.223736774729734
"930",19,36,1,1,210,3,2,0,1,1.38728232501687,1.29134982339032
"931",19,31,1,2,211,2,2,1,4,0.420397534473842,0.364579458558644
"932",19,39,1,1,212,1,1,1,5,0.32399787946719,0.366506437990131
"933",19,39,1,1,213,2,1,1,4,0.422079824995028,0.31425176077447
"934",19,29,1,2,214,3,1,0,2,1.17066851240277,1.18466881476978
"935",19,29,1,1,215,2,2,0,2,0.710660002667359,0.733368491378848
"936",19,32,1,1,216,3,1,1,2,0.730596056261674,0.758932724926198
"937",19,24,1,2,217,2,1,0,2,0.45161519487144,0.433908785583118
"938",19,36,1,1,218,3,2,0,2,0.985036138265636,1.0364839840425
"939",19,30,1,1,219,3,1,1,2,0.69963197049353,0.731017068978515
"940",19,36,1,2,220,3,2,1,3,1.01298073872502,1.01886705674382
"941",19,31,1,1,221,2,2,0,2,0.671151846301741,0.688244766968176
"942",19,39,1,2,222,1,2,1,4,0.533818018384599,0.404668494433818
"943",19,39,1,2,223,1,2,1,5,0.374172866314949,0.335187603498538
"944",19,29,1,2,224,3,2,1,3,0.794512976509991,0.794130570753421
"945",19,29,1,2,225,1,2,1,5,0.37209609741537,0.48634293454722
"946",19,32,1,1,226,2,2,0,2,0.787460728117087,0.747926529417259
"947",19,24,1,1,227,1,1,1,5,0.464965046683724,0.366902983644167
"948",19,36,1,1,228,3,2,0,1,1.10764775253705,1.03694416641206
"949",19,30,1,2,229,3,1,0,1,1.01413457212023,1.0230655123483
"950",19,36,1,1,230,2,2,0,3,0.449879823706868,0.419847240708325
"951",19,31,1,2,231,2,2,1,3,0.706633622289211,0.771823935486536
"952",19,39,1,1,232,3,2,0,2,1.71780363290804,1.70541024308443
"953",19,39,1,2,233,3,1,0,2,1.25437953357485,1.25157330635294
"954",19,29,1,2,234,2,2,1,3,0.594413968990947,0.61098583952583
"955",19,29,1,1,235,3,2,0,1,0.482725649516966,0.556595004309203
"956",19,32,1,2,236,1,2,1,4,0.365122505213561,0.390095539905001
"957",19,24,1,2,237,1,1,0,4,0.542172727061147,0.461331285390407
"958",19,36,1,2,238,2,2,1,4,0.592265430129596,0.57845136871469
"959",19,30,1,1,239,3,2,0,1,1.03783564780078,1.00450116657212
"960",19,36,1,2,240,3,1,0,2,0.453519036862824,0.416079919565937
"961",18,19,2,2,1,3,1,0,1,0.583959984397133,0.579540432574434
"962",18,22,2,2,2,2,2,1,4,0.572264142521651,0.584237685790597
"963",18,20,2,2,3,1,2,1,4,0.427260434244839,0.436249381943101
"964",18,34,2,1,4,3,2,0,2,0.899601688932103,0.786017738852375
"965",18,32,2,2,5,2,1,0,2,0.567925970731267,0.572048452015653
"966",18,33,2,2,6,1,2,1,5,0.342476741993821,0.334503250001231
"967",18,18,2,2,7,1,2,1,5,0.431548227062327,0.416527169789329
"968",18,36,2,1,8,3,1,1,3,0.599705955590283,0.536804559011358
"969",18,26,2,2,9,1,2,1,4,0.399392959352026,0.420830979733422
"970",18,23,2,2,10,1,1,0,4,0.576556386490251,0.568659006498118
"971",18,19,2,1,11,3,2,0,1,0.883011825220108,0.866932522685613
"972",18,22,2,1,12,2,1,1,3,0.880073615949815,0.877887905044861
"973",18,20,2,2,13,1,2,1,5,0.297693006945106,0.345267210471252
"974",18,34,2,2,14,1,2,1,4,0.352638216699052,0.429043743111422
"975",18,32,2,1,15,2,2,0,2,0.83765546361971,0.82442574901013
"976",18,33,2,2,16,2,2,1,4,0.681364350738443,0.690438524346701
"977",18,18,2,1,17,1,1,1,5,0.471304561874198,0.448270476690307
"978",18,36,2,2,18,3,2,1,2,0.819876703276811,0.823724464928418
"979",18,26,2,1,19,3,2,0,1,0.977906348223861,0.964419539393329
"980",18,23,2,1,20,3,2,0,1,1.07644860925403,0.998604729950736
"981",18,19,2,1,21,2,1,1,3,0.626509061698935,0.697820213824866
"982",18,22,2,1,22,1,2,0,4,0.43696375178903,0.373783956768574
"983",18,20,2,1,23,3,1,1,2,0.562625547899705,0.518011043672003
"984",18,34,2,1,24,1,2,0,4,0.553482071048995,0.593426520219277
"985",18,32,2,1,25,3,2,0,1,1.23963012463927,1.25507536764782
"986",18,33,2,2,26,1,2,1,4,0.448028723931122,0.485241360131209
"987",18,18,2,2,27,3,2,1,2,0.732843754155411,0.706877488426648
"988",18,36,2,1,28,1,1,1,4,0.351899332160348,0.406345168433006
"989",18,26,2,1,29,3,2,0,2,0.408918382219282,0.372377595771438
"990",18,23,2,1,30,2,1,1,3,0.853609126361689,0.864457178719646
"991",18,19,2,2,31,1,2,1,4,0.258502944188333,0.246718757597848
"992",18,22,2,2,32,3,1,0,1,0.933485234080526,0.869473954697236
"993",18,20,2,2,33,3,2,1,2,0.847006110553148,0.78642727717669
"994",18,34,2,1,34,3,2,0,2,1.06264252046373,1.08563842646333
"995",18,32,2,1,35,1,1,1,5,0.425962020655418,0.367262314638953
"996",18,33,2,2,36,3,2,1,2,1.07921642805466,1.18188923944466
"997",18,18,2,1,37,1,2,0,4,0.530865273958526,0.476407847131961
"998",18,36,2,1,38,1,1,1,5,0.205042721377359,0.251747094958215
"999",18,26,2,2,39,1,2,1,5,0.379873360293476,0.394354735044682
"1000",18,23,2,2,40,3,2,1,3,0.487363714831442,0.447897806169055
"1001",18,19,2,1,41,3,2,0,1,0.851479262846116,0.726966135430448
"1002",18,22,2,2,42,1,1,0,4,0.289300863497712,0.364511145142097
"1003",18,20,2,2,43,2,1,0,2,0.802892472390785,0.780267051226456
"1004",18,34,2,2,44,3,2,1,2,0.955575897638659,0.939675146778257
"1005",18,32,2,1,45,3,2,0,2,0.893482983646162,0.974493883987572
"1006",18,33,2,2,46,2,1,0,3,0.857689595471681,0.855864542587394
"1007",18,18,2,1,47,2,2,0,3,0.677131213046638,0.730463684159333
"1008",18,36,2,1,48,2,1,1,3,0.573148772542309,0.590567212030816
"1009",18,26,2,1,49,2,1,1,4,0.701153998084675,0.749469144001071
"1010",18,23,2,2,50,3,1,0,2,1.33228561623473,1.33929098434856
"1011",18,19,2,2,51,2,2,1,3,0.518872063979804,0.4827492244891
"1012",18,22,2,2,52,2,1,0,2,0.762886551847406,0.727103142787758
"1013",18,20,2,2,53,2,2,1,3,0.513780465763272,0.584280887754625
"1014",18,34,2,1,54,3,1,1,2,0.728516653072728,0.681408928395236
"1015",18,32,2,1,55,1,2,0,4,0.515822241318972,0.497049672171224
"1016",18,33,2,1,56,3,2,0,2,0.488421582374783,0.544626823928786
"1017",18,18,2,1,57,2,1,1,4,0.77683491813222,0.787424030838374
"1018",18,36,2,2,58,3,2,1,3,0.91307962571399,0.93483988130654
"1019",18,26,2,2,59,3,2,1,3,0.572319418208517,0.581892758292292
"1020",18,23,2,1,60,3,1,1,2,0.987559401344132,1.04385946954535
"1021",18,19,2,2,61,2,2,1,4,0.817499516905794,0.902219577533074
"1022",18,22,2,1,62,3,1,1,3,0.752113797249282,0.757701264487979
"1023",18,20,2,2,63,1,2,1,4,0.42076451646448,0.365273952549532
"1024",18,34,2,1,64,3,2,0,2,0.626470289778558,0.619152093079148
"1025",18,32,2,2,65,1,2,1,4,0.441283837593036,0.375781846033549
"1026",18,33,2,1,66,1,2,0,3,0.562706254140436,0.528151957503357
"1027",18,18,2,1,67,2,1,1,3,0.646554279867834,0.711359725460046
"1028",18,36,2,2,68,3,1,0,2,1.06925576499222,1.07562173905105
"1029",18,26,2,2,69,1,2,1,5,0.434859795150832,0.421405808377408
"1030",18,23,2,1,70,3,2,0,1,1.09875409673577,1.16244013735873
"1031",18,19,2,1,71,3,2,0,2,1.23840417126864,1.22377820491013
"1032",18,22,2,1,72,2,1,1,3,0.538891930592441,0.542348247906533
"1033",18,20,2,2,73,2,2,1,3,0.547159364192431,0.651322013114011
"1034",18,34,2,2,74,2,2,1,4,0.744083970994038,0.78488324572297
"1035",18,32,2,1,75,3,2,0,1,1.11462510483746,1.1092965703264
"1036",18,33,2,2,76,2,2,1,3,0.658272587617611,0.715039578124002
"1037",18,18,2,1,77,1,2,0,4,0.695379982812837,0.700882887614532
"1038",18,36,2,2,78,3,1,0,2,0.878806932652267,0.90793240424849
"1039",18,26,2,1,79,2,2,0,2,0.722116118175312,0.762066486811789
"1040",18,23,2,2,80,1,2,1,5,0.525472832837991,0.584345018930748
"1041",18,19,2,2,81,3,1,0,1,0.584432261646037,0.567368856930518
"1042",18,22,2,2,82,1,2,1,5,0.266053753133199,0.306787974580934
"1043",18,20,2,2,83,3,1,0,1,1.13384821061382,1.03739546494753
"1044",18,34,2,2,84,1,1,0,4,0.655208365813508,0.596522053937983
"1045",18,32,2,1,85,2,2,0,2,0.613728869683276,0.584044265742914
"1046",18,33,2,1,86,1,1,1,5,0.478870047619629,0.549617873021681
"1047",18,18,2,1,87,2,2,0,2,1.03740914181631,1.05100934389828
"1048",18,36,2,2,88,1,1,0,4,0.636742721993091,0.64058293673922
"1049",18,26,2,2,89,3,2,1,3,1.0149229300287,1.0924268574795
"1050",18,23,2,2,90,2,2,1,4,0.519448966766514,0.396530541711093
"1051",18,19,2,2,91,1,2,1,5,0.462275680456869,0.500380325336738
"1052",18,22,2,1,92,3,1,1,3,0.616846209112869,0.672943979876335
"1053",18,20,2,2,93,1,2,1,4,0.278416808324453,0.273168475337304
"1054",18,34,2,2,94,2,2,1,3,0.296515029774887,0.231695821999716
"1055",18,32,2,1,95,1,1,1,4,0.395191160099811,0.387479945467546
"1056",18,33,2,1,96,3,1,1,2,1.06814223861426,1.04479031738949
"1057",18,18,2,2,97,3,2,1,2,0.661477853124545,0.631876728452796
"1058",18,36,2,1,98,2,2,0,3,0.655437108509656,0.628603234620268
"1059",18,26,2,2,99,2,1,0,2,0.65687922300726,0.656259963181715
"1060",18,23,2,1,100,3,1,1,2,1.00503791688511,0.999044827369779
"1061",18,19,2,1,101,3,1,1,3,1.11347748500916,1.04150597211181
"1062",18,22,2,2,102,2,1,0,3,1.20498972872731,1.15569677026437
"1063",18,20,2,1,103,1,1,1,5,0.412648531611503,0.425010849121666
"1064",18,34,2,2,104,1,2,1,4,0.48136495209365,0.533749799855485
"1065",18,32,2,1,105,1,2,0,4,0.519203475815085,0.536613353192389
"1066",18,33,2,2,106,1,2,1,4,0.488583917348753,0.565835348216458
"1067",18,18,2,2,107,2,1,0,3,0.715894285159639,0.647268831322876
"1068",18,36,2,2,108,3,2,1,3,0.792427726066904,0.839903188993528
"1069",18,26,2,1,109,2,2,0,2,0.712286768612904,0.746705819510961
"1070",18,23,2,1,110,3,1,1,2,0.574713443048974,0.623739852242522
"1071",18,19,2,2,111,3,1,0,1,1.00179791992763,1.0267359281423
"1072",18,22,2,1,112,2,2,0,3,0.581764501763076,0.54059289715395
"1073",18,20,2,1,113,3,2,0,2,0.919068424622308,0.873172873008957
"1074",18,34,2,1,114,2,2,0,2,0.535905266489685,0.62386698943768
"1075",18,32,2,2,115,1,2,1,4,0.449219123545965,0.479412756886465
"1076",18,33,2,2,116,2,1,0,3,0.41875581484358,0.392066758950904
"1077",18,18,2,2,117,1,2,1,5,0.454967329040326,0.422003179990542
"1078",18,36,2,1,118,2,1,1,3,0.77252320341803,0.821038504324913
"1079",18,26,2,1,119,2,1,1,4,0.528816685455531,0.495345432036939
"1080",18,23,2,1,120,1,1,1,4,0.497884607063767,0.534058008509333
"1081",18,19,2,1,121,1,1,1,5,0.465688222427799,0.471087515644889
"1082",18,22,2,1,122,2,1,1,3,0.802405174986149,0.69265064693894
"1083",18,20,2,1,123,1,1,1,5,0.505209294097749,0.484693440124529
"1084",18,34,2,2,124,2,1,0,3,0.525487065778495,0.534745386408928
"1085",18,32,2,2,125,2,2,1,3,0.506882465637567,0.546301927192724
"1086",18,33,2,1,126,1,1,1,5,0.505010666537817,0.489634305004276
"1087",18,18,2,1,127,1,2,0,4,0.394981886831904,0.501233408479359
"1088",18,36,2,1,128,3,1,1,3,0.886638583167571,0.837921356770426
"1089",18,26,2,1,129,2,1,1,4,0.470099830510426,0.524781021509604
"1090",18,23,2,2,130,2,2,1,3,0.60319834116523,0.482110692398761
"1091",18,19,2,2,131,3,2,1,2,1.05070841582915,1.10211487638566
"1092",18,22,2,2,132,1,2,1,5,0.328252097356721,0.386348449374756
"1093",18,20,2,2,133,1,1,0,3,0.595421292715224,0.681512641566146
"1094",18,34,2,1,134,3,1,1,3,0.506726727966882,0.500290375654557
"1095",18,32,2,2,135,1,2,1,5,0.449927345527352,0.417805767850787
"1096",18,33,2,2,136,2,2,1,3,0.569041160443709,0.646454600937813
"1097",18,18,2,1,137,1,1,1,4,0.438753818310547,0.397795735978893
"1098",18,36,2,1,138,2,2,0,3,0.48830458722936,0.465619114081908
"1099",18,26,2,2,139,1,2,1,4,0.646988096795127,0.733156633862397
"1100",18,23,2,2,140,1,2,1,4,0.401681376560781,0.343951025481852
"1101",18,19,2,2,141,1,2,1,5,0.550046564920919,0.574176204955527
"1102",18,22,2,1,142,2,2,0,3,0.573947261452889,0.650615511737444
"1103",18,20,2,1,143,3,1,1,2,0.904776528996671,0.848928904680189
"1104",18,34,2,2,144,2,2,1,4,0.473687205280144,0.471723680196348
"1105",18,32,2,2,145,3,1,0,1,1.54109074209754,1.58027915914251
"1106",18,33,2,1,146,2,1,1,3,0.658672750653138,0.670263065816707
"1107",18,18,2,1,147,1,2,0,4,0.635655041325251,0.630153045000062
"1108",18,36,2,1,148,1,1,1,5,0.308870700582219,0.334074108371517
"1109",18,26,2,1,149,2,1,1,3,0.430839072773834,0.464612101380677
"1110",18,23,2,2,150,3,1,0,2,0.978653740634109,0.996853245750423
"1111",18,19,2,2,151,1,2,1,4,0.356404111734542,0.305070759450586
"1112",18,22,2,1,152,3,1,1,3,0.829746629273513,0.822684521769392
"1113",18,20,2,2,153,2,2,1,4,0.86336943723494,0.805039311225994
"1114",18,34,2,1,154,3,1,1,2,0.765312153985592,0.796043565069698
"1115",18,32,2,2,155,2,1,0,3,0.80442633521256,0.725118784251083
"1116",18,33,2,1,156,1,1,1,5,0.41949707136294,0.454124659830334
"1117",18,18,2,2,157,2,2,1,3,0.625384865558441,0.527205132842642
"1118",18,36,2,2,158,3,2,1,2,0.827689537814022,0.814362096977851
"1119",18,26,2,2,159,2,1,0,3,0.413730693829375,0.376367190323687
"1120",18,23,2,2,160,2,2,1,4,0.80731867998565,0.794105385021315
"1121",18,19,2,2,161,3,2,1,2,1.07499337832488,1.06134824567144
"1122",18,22,2,1,162,3,2,0,1,1.35660623199009,1.31861451542561
"1123",18,20,2,2,163,3,1,0,2,0.85589004869935,0.860087682175443
"1124",18,34,2,1,164,2,1,1,3,0.479012938067598,0.457401332439943
"1125",18,32,2,2,165,1,2,1,4,0.311434366302256,0.364821189951554
"1126",18,33,2,2,166,1,2,1,5,0.485614073324306,0.458462425778006
"1127",18,18,2,2,167,2,2,1,3,0.646262382578155,0.659087382345855
"1128",18,36,2,1,168,2,1,1,4,0.59388789996375,0.587039079048515
"1129",18,26,2,1,169,3,2,0,1,0.613110546556908,0.683277441211215
"1130",18,23,2,2,170,3,1,0,2,1.4293822126767,1.34619957028906
"1131",18,19,2,2,171,1,2,1,5,0.388525308567616,0.541524114938419
"1132",18,22,2,1,172,2,1,1,4,0.584177789632137,0.588507795644982
"1133",18,20,2,1,173,1,1,1,5,0.331830445965441,0.419851350716866
"1134",18,34,2,2,174,1,1,0,3,0.519310701364087,0.432399470433838
"1135",18,32,2,1,175,1,1,1,4,0.482788437110345,0.543003292204146
"1136",18,33,2,1,176,3,2,0,1,1.21251930715342,1.24040159951385
"1137",18,18,2,1,177,1,1,1,5,0.382018341365635,0.47466660087865
"1138",18,36,2,1,178,3,2,0,2,1.60877148609755,1.61538193577677
"1139",18,26,2,1,179,3,1,1,2,0.527996712612773,0.471171685235901
"1140",18,23,2,2,180,3,1,0,1,1.61062662622328,1.55144653249315
"1141",18,19,2,2,181,3,2,1,2,1.03023793383473,1.04256204687397
"1142",18,22,2,2,182,3,1,0,1,1.15790290276204,1.17138905509818
"1143",18,20,2,2,183,1,1,0,3,0.720765152014686,0.795178576976695
"1144",18,34,2,2,184,3,2,1,2,0.765966196234362,0.757171826192251
"1145",18,32,2,2,185,1,2,1,4,0.409843048250479,0.468124164979131
"1146",18,33,2,1,186,1,2,0,3,0.429433628453302,0.47148924299926
"1147",18,18,2,2,187,2,2,1,4,0.570026770060274,0.565317227019279
"1148",18,36,2,1,188,3,1,1,2,0.942538326946837,0.941868168078968
"1149",18,26,2,2,189,3,1,0,1,1.11231394646022,1.12426787965437
"1150",18,23,2,2,190,1,2,1,5,0.362185170545244,0.405344784276376
"1151",18,19,2,1,191,3,1,1,2,0.916335723711163,0.943010425186707
"1152",18,22,2,2,192,2,2,1,4,0.734215689706179,0.706958223464363
"1153",18,20,2,1,193,1,1,1,5,0.453452897884429,0.496999570292647
"1154",18,34,2,2,194,3,2,1,2,0.77743802075046,0.721294890377209
"1155",18,32,2,1,195,1,1,1,4,0.456139524606257,0.468743853020893
"1156",18,33,2,1,196,3,2,0,2,1.06426702690568,1.10431495527047
"1157",18,18,2,2,197,1,2,1,4,0.513036492774288,0.463013426987751
"1158",18,36,2,1,198,2,2,0,2,0.696927415353586,0.746139804984179
"1159",18,26,2,1,199,1,2,0,3,0.423720470627541,0.419854766827626
"1160",18,23,2,2,200,3,1,0,2,0.857551687456715,0.782360706687623
"1161",18,19,2,2,201,2,2,1,3,0.443244977922507,0.478723846453066
"1162",18,22,2,2,202,2,1,0,3,0.450838928721936,0.427693354276292
"1163",18,20,2,2,203,2,1,0,2,0.645655009776988,0.652992934690844
"1164",18,34,2,2,204,1,2,1,5,0.26401434459451,0.264563483441527
"1165",18,32,2,1,205,1,1,1,4,0.227680381387837,0.231321554234844
"1166",18,33,2,2,206,1,2,1,4,0.346023089498852,0.250323880488086
"1167",18,18,2,1,207,3,1,1,2,0.814327211844264,0.832236950189435
"1168",18,36,2,1,208,3,1,1,3,0.819527200160184,0.857104455873683
"1169",18,26,2,2,209,1,1,0,4,0.689010340245491,0.639869635665121
"1170",18,23,2,1,210,2,1,1,4,0.506124460194217,0.624168566306241
"1171",18,19,2,1,211,1,1,1,4,0.345874030513792,0.25755937102936
"1172",18,22,2,1,212,3,2,0,2,0.816924280824068,0.90268553414028
"1173",18,20,2,2,213,3,2,1,3,0.677890917080825,0.693523494733076
"1174",18,34,2,2,214,3,1,0,1,0.916051698910131,0.882940012097394
"1175",18,32,2,1,215,2,1,1,3,0.673865276560363,0.696296487942672
"1176",18,33,2,1,216,2,1,1,4,0.4581714675163,0.438157566456162
"1177",18,18,2,2,217,3,2,1,3,0.573476501231275,0.515216346732301
"1178",18,36,2,1,218,1,1,1,5,0.447203057397958,0.447661624835774
"1179",18,26,2,1,219,2,1,1,4,0.656122352946258,0.685662772371312
"1180",18,23,2,1,220,1,1,1,5,0.438696686162024,0.513948327907324
"1181",18,19,2,1,221,2,1,1,3,0.614022288184107,0.613317499722325
"1182",18,22,2,1,222,2,2,0,2,0.636670854744297,0.648967282087372
"1183",18,20,2,1,223,3,1,1,2,1.09903409543544,1.06150268871156
"1184",18,34,2,2,224,3,1,0,2,0.907457767155532,0.933327491255467
"1185",18,32,2,2,225,2,1,0,2,0.498234217463524,0.485241795483752
"1186",18,33,2,1,226,2,1,1,3,0.716776555440195,0.707293913455085
"1187",18,18,2,1,227,2,1,1,3,0.665215858019675,0.679287522505691
"1188",18,36,2,2,228,2,2,1,4,0.676716036207926,0.654034027844069
"1189",18,26,2,2,229,2,1,0,2,0.795200423329253,0.804086840643156
"1190",18,23,2,1,230,2,1,1,4,0.594072694139507,0.645447103699486
"1191",18,19,2,2,231,3,2,1,3,0.984993733596544,1.01628568529402
"1192",18,22,2,1,232,2,1,1,4,0.45149602693427,0.393652542926987
"1193",18,20,2,1,233,1,1,1,4,0.467720814673642,0.5446630023363
"1194",18,34,2,1,234,2,1,1,4,0.733752049730622,0.666784352840722
"1195",18,32,2,2,235,2,1,0,2,0.53499739452199,0.548975425875865
"1196",18,33,2,1,236,1,1,1,4,0.309862321602071,0.270485357923521
"1197",18,18,2,1,237,2,1,1,3,0.758118102949508,0.759049167514517
"1198",18,36,2,2,238,1,1,0,4,0.426250898926693,0.378905371224073
"1199",18,26,2,1,239,1,1,1,4,0.597864384966644,0.584115891640623
"1200",18,23,2,2,240,2,1,0,2,0.692994775237372,0.71529152144465
"1201",17,37,1,1,1,2,1,1,4,0.886095270702589,0.882411317473846
"1202",17,30,1,1,2,2,1,1,4,0.465129016106487,0.417891187062543
"1203",17,39,1,1,3,2,2,0,2,0.726624565665347,0.762866306568498
"1204",17,21,1,1,4,3,2,0,2,0.631617954937451,0.694367427984579
"1205",17,33,1,2,5,1,2,1,4,0.451487438325242,0.431168479006737
"1206",17,20,1,1,6,1,1,1,5,0.380127304950464,0.382479948440928
"1207",17,22,1,1,7,2,1,1,3,0.620464392508267,0.552225576670987
"1208",17,20,1,2,8,2,1,0,2,0.773118519370476,0.787596684896618
"1209",17,25,1,2,9,2,2,1,3,0.563519400317249,0.596057803311838
"1210",17,31,1,2,10,1,1,0,4,0.457482587826066,0.51621980994654
"1211",17,37,1,2,11,1,2,1,4,0.386693448928123,0.444299119389028
"1212",17,30,1,2,12,3,1,0,2,1.15952919503828,1.26537750885902
"1213",17,39,1,2,13,3,2,1,2,0.746567942145692,0.736633712514956
"1214",17,21,1,2,14,2,1,0,3,0.777151895136143,0.845550322723462
"1215",17,33,1,2,15,3,1,0,1,0.628586718915319,0.621014006583248
"1216",17,20,1,1,16,1,1,1,5,0.393470020273109,0.401674993625056
"1217",17,22,1,1,17,3,1,1,2,0.356810017087633,0.462018081133906
"1218",17,20,1,2,18,3,1,0,2,0.483327830639245,0.298270658664283
"1219",17,25,1,1,19,3,1,1,3,0.986396126473356,0.93539698307853
"1220",17,31,1,1,20,3,1,1,3,0.594807363956789,0.571639773176197
"1221",17,37,1,1,21,2,1,1,4,0.689736754692579,0.662411977198862
"1222",17,30,1,2,22,2,2,1,4,0.498931304184352,0.401919863623363
"1223",17,39,1,1,23,3,1,1,2,1.06632022651903,1.05407960341126
"1224",17,21,1,2,24,3,2,1,3,0.871758160352543,0.882051302941197
"1225",17,33,1,2,25,3,1,0,1,1.08838135782835,1.12835422509841
"1226",17,20,1,1,26,2,2,0,2,0.618205254448094,0.562916078980476
"1227",17,22,1,2,27,2,2,1,3,0.579838857458442,0.618201447831218
"1228",17,20,1,2,28,1,1,0,3,0.345609059249305,0.332364777154085
"1229",17,25,1,2,29,3,1,0,2,0.883767658603514,0.833395905021437
"1230",17,31,1,2,30,1,2,1,5,0.46504308836244,0.470553636130393
"1231",17,37,1,2,31,1,2,1,5,0.320029810114188,0.310908022111009
"1232",17,30,1,2,32,1,2,1,4,0.338092716401789,0.278076791487253
"1233",17,39,1,1,33,2,1,1,4,0.706580015696609,0.677986073688656
"1234",17,21,1,1,34,2,1,1,3,0.545218306290007,0.513575269539927
"1235",17,33,1,2,35,2,2,1,4,0.544397251367513,0.453935397846642
"1236",17,20,1,1,36,2,2,0,2,0.582214144533377,0.530847545287057
"1237",17,22,1,2,37,1,2,1,5,0.295729229316978,0.311857844934358
"1238",17,20,1,2,38,1,2,1,4,0.41568025394808,0.439225117041296
"1239",17,25,1,1,39,2,2,0,3,0.603761532337038,0.600890813988725
"1240",17,31,1,2,40,2,1,0,2,0.457740827172808,0.481016461563137
"1241",17,37,1,2,41,3,2,1,2,1.23229619638866,1.21635455313297
"1242",17,30,1,2,42,1,2,1,5,0.335721448170347,0.325307750319951
"1243",17,39,1,1,43,3,1,1,2,0.825680253585004,0.790704965849124
"1244",17,21,1,1,44,1,1,1,5,0.244172509346108,0.188530335704003
"1245",17,33,1,2,45,3,2,1,3,0.67901793218221,0.60619244589722
"1246",17,20,1,2,46,3,2,1,3,0.838136243620384,0.856290028703158
"1247",17,22,1,1,47,1,2,0,4,0.372490443662397,0.371461186954349
"1248",17,20,1,2,48,2,1,0,3,0.777421365935441,0.769526507401488
"1249",17,25,1,1,49,3,1,1,3,0.470763713506456,0.458498551472065
"1250",17,31,1,2,50,3,1,0,2,0.78243032590679,0.70939815328977
"1251",17,37,1,2,51,1,2,1,4,0.35794435088179,0.271971564896745
"1252",17,30,1,2,52,2,2,1,3,0.575977147878135,0.525486854566222
"1253",17,39,1,2,53,3,2,1,3,0.967978763588,0.977285630179076
"1254",17,21,1,1,54,3,2,0,1,0.868021275560344,0.865797698697962
"1255",17,33,1,1,55,3,1,1,3,0.676066818534179,0.657020555566682
"1256",17,20,1,2,56,1,2,1,5,0.178446062841931,0.127746437482021
"1257",17,22,1,1,57,1,1,1,5,0.4039250896163,0.399412974291288
"1258",17,20,1,2,58,2,1,0,2,0.874029081896628,0.860958296753172
"1259",17,25,1,1,59,2,2,0,2,0.557232618988148,0.563449258803276
"1260",17,31,1,1,60,1,2,0,3,0.560681981391746,0.657224567731051
"1261",17,37,1,1,61,3,1,1,2,1.0150367979747,1.01419852452423
"1262",17,30,1,2,62,1,2,1,5,0.329719517057887,0.357320377024244
"1263",17,39,1,2,63,2,2,1,3,0.679466139626006,0.70650854140436
"1264",17,21,1,2,64,2,2,1,3,0.75501479191848,0.6742452807995
"1265",17,33,1,1,65,1,1,1,5,0.449976845022069,0.40745662756508
"1266",17,20,1,1,66,1,2,0,3,0.39796176177661,0.405932198319502
"1267",17,22,1,1,67,2,2,0,2,0.679220426910925,0.71853025727487
"1268",17,20,1,1,68,2,1,1,3,0.776357172942892,0.687184449967858
"1269",17,25,1,2,69,2,1,0,3,0.637932955067777,0.598333919382249
"1270",17,31,1,2,70,3,1,0,2,0.305593194312483,0.26593246933592
"1271",17,37,1,2,71,2,1,0,3,0.806706787907415,0.831281716245315
"1272",17,30,1,1,72,1,1,1,4,0.499076229058365,0.559007240907958
"1273",17,39,1,1,73,1,1,1,4,0.280378357528483,0.279122343862283
"1274",17,21,1,2,74,2,1,0,2,0.628865483636208,0.696419854140837
"1275",17,33,1,1,75,3,1,1,2,0.939363241175775,0.875218994748892
"1276",17,20,1,1,76,3,1,1,3,0.961179596609684,0.959341919987226
"1277",17,22,1,1,77,2,1,1,3,0.544481458983994,0.506929072421167
"1278",17,20,1,2,78,2,1,0,2,0.662670811757518,0.709363245290687
"1279",17,25,1,2,79,3,2,1,2,0.614109365573837,0.552954490341715
"1280",17,31,1,1,80,1,2,0,4,0.602812893366479,0.586048246088414
"1281",17,37,1,2,81,3,2,1,2,1.03565660887807,1.01931464359527
"1282",17,30,1,2,82,2,1,0,3,1.00174048516389,0.952543723388404
"1283",17,39,1,2,83,1,1,0,4,0.606443951951165,0.646169695029497
"1284",17,21,1,1,84,1,1,1,4,0.319646958565444,0.320003883381725
"1285",17,33,1,2,85,1,2,1,5,0.441011132137483,0.426889889931395
"1286",17,20,1,2,86,3,2,1,2,1.20404263899614,1.23400285260052
"1287",17,22,1,2,87,3,2,1,2,0.665618370199776,0.62401473063229
"1288",17,20,1,2,88,3,1,0,1,0.822243384643862,0.798976612096975
"1289",17,25,1,1,89,2,2,0,2,0.650509472604797,0.586290116804257
"1290",17,31,1,2,90,2,2,1,3,0.536088676454014,0.521335710922067
"1291",17,37,1,1,91,1,1,1,4,0.44105564620883,0.403042719351207
"1292",17,30,1,2,92,1,1,0,4,0.631178990130572,0.567499146454986
"1293",17,39,1,1,93,2,1,1,4,0.452668086574024,0.553575828496396
"1294",17,21,1,1,94,1,1,1,4,0.455432757709037,0.429382323392953
"1295",17,33,1,2,95,3,1,0,2,1.45340408151634,1.50575033150355
"1296",17,20,1,2,96,2,1,0,3,0.729636771515807,0.779031523636798
"1297",17,22,1,2,97,2,2,1,3,0.680341656758213,0.721493594382648
"1298",17,20,1,1,98,3,1,1,2,0.652646863332561,0.730565529196235
"1299",17,25,1,1,99,1,1,1,5,0.437630992696934,0.397059421462665
"1300",17,31,1,1,100,2,2,0,2,0.662135729339072,0.620694662075001
"1301",17,37,1,2,101,1,2,1,5,0.289847485093959,0.315013679042392
"1302",17,30,1,2,102,1,1,0,4,0.615159160487593,0.588377507744722
"1303",17,39,1,1,103,1,1,1,4,0.36258248405853,0.312261292960628
"1304",17,21,1,2,104,2,1,0,3,0.733138409913243,0.69190685920051
"1305",17,33,1,2,105,1,2,1,4,0.448974352368828,0.374646771772068
"1306",17,20,1,1,106,3,2,0,2,1.3031235281121,1.32534715937305
"1307",17,22,1,2,107,1,2,1,5,0.418639260555681,0.432436086249885
"1308",17,20,1,1,108,3,1,1,2,0.654516856476989,0.587418612336212
"1309",17,25,1,1,109,3,2,0,2,0.758377467688176,0.772376719469337
"1310",17,31,1,1,110,2,2,0,2,0.882228568590927,0.854377375706835
"1311",17,37,1,1,111,2,2,0,3,0.771402641562407,0.806942735768965
"1312",17,30,1,1,112,3,2,0,1,0.601800910185075,0.525995703522496
"1313",17,39,1,1,113,2,2,0,3,0.777640194374839,0.754118362795386
"1314",17,21,1,1,114,1,1,1,4,0.448946022530504,0.452134409333373
"1315",17,33,1,2,115,3,1,0,1,0.680229344870412,0.633628446334267
"1316",17,20,1,1,116,2,1,1,4,0.684604291630598,0.571739186029922
"1317",17,22,1,2,117,3,1,0,2,1.14559481687898,1.26371496172148
"1318",17,20,1,1,118,1,1,1,5,0.388624964632776,0.445804019084257
"1319",17,25,1,2,119,2,1,0,2,0.849776672241963,0.813636837654217
"1320",17,31,1,1,120,2,1,1,4,0.362046952459778,0.485680297925949
"1321",17,37,1,1,121,2,1,1,4,0.682606015389001,0.639485194139363
"1322",17,30,1,2,122,3,1,0,1,1.34622375473836,1.38172611202875
"1323",17,39,1,2,123,1,2,1,5,0.465209387417304,0.386290571055379
"1324",17,21,1,2,124,2,2,1,4,0.461994650117339,0.34593982028939
"1325",17,33,1,1,125,2,1,1,3,0.371515263962131,0.364522889511545
"1326",17,20,1,1,126,3,1,1,2,0.790441996719225,0.782711605768847
"1327",17,22,1,1,127,3,2,0,2,0.67271263686025,0.595654217108505
"1328",17,20,1,2,128,2,1,0,3,1.0367226313292,1.05201488683191
"1329",17,25,1,1,129,1,1,1,5,0.556839240389413,0.58168114810953
"1330",17,31,1,2,130,2,2,1,3,0.600944557328888,0.674467713768691
"1331",17,37,1,1,131,2,1,1,3,0.699547259285781,0.75978182571526
"1332",17,30,1,2,132,3,2,1,3,1.02663618376143,1.00187215288458
"1333",17,39,1,2,133,1,2,1,4,0.265080824701403,0.272011666706483
"1334",17,21,1,2,134,1,2,1,5,0.343434930243373,0.345192784414948
"1335",17,33,1,1,135,3,2,0,2,1.02816554026009,1.04601858174888
"1336",17,20,1,1,136,3,2,0,1,1.78455159769027,1.76327541759793
"1337",17,22,1,1,137,3,2,0,1,0.310221481954864,0.274556945202673
"1338",17,20,1,1,138,1,2,0,3,0.442956512933906,0.323371512408454
"1339",17,25,1,1,139,3,1,1,2,0.629081653225939,0.593057147702691
"1340",17,31,1,1,140,3,2,0,2,0.630001310874953,0.63876120093802
"1341",17,37,1,2,141,1,2,1,4,0.333704459614199,0.438381148081849
"1342",17,30,1,2,142,3,2,1,2,0.761970834621062,0.760468719851527
"1343",17,39,1,2,143,2,2,1,3,0.584323672644154,0.593952247203061
"1344",17,21,1,2,144,3,2,1,3,0.805440119411071,0.805599381707272
"1345",17,33,1,2,145,3,1,0,2,1.16505388913099,1.08901580037005
"1346",17,20,1,1,146,2,2,0,2,0.57799092812052,0.563122554652512
"1347",17,22,1,1,147,2,2,0,3,0.838633146644324,0.768951912508544
"1348",17,20,1,2,148,3,1,0,1,0.547833554415622,0.528719512726714
"1349",17,25,1,2,149,1,1,0,4,0.605688643533365,0.519542804061751
"1350",17,31,1,2,150,3,1,0,1,0.718889615387956,0.714439966271421
"1351",17,37,1,2,151,3,1,0,2,1.2598101242676,1.21409544887043
"1352",17,30,1,1,152,3,2,0,2,0.285898493347324,0.310293031331984
"1353",17,39,1,1,153,1,1,1,4,0.508290450614936,0.491738145576284
"1354",17,21,1,1,154,2,1,1,4,0.542061402907872,0.487810756256844
"1355",17,33,1,2,155,2,2,1,4,0.532542417090339,0.532006297755777
"1356",17,20,1,1,156,1,1,1,4,0.363586256470991,0.393878551191754
"1357",17,22,1,2,157,2,1,0,3,0.563353052803874,0.531310121352873
"1358",17,20,1,1,158,3,1,1,3,0.791848609770276,0.694486938814954
"1359",17,25,1,1,159,2,2,0,2,0.611443740718078,0.612873096254255
"1360",17,31,1,2,160,3,1,0,2,0.48914734918504,0.550586749390193
"1361",17,37,1,2,161,2,2,1,3,0.745842009868564,0.780252266686959
"1362",17,30,1,1,162,3,1,1,3,1.25222718256066,1.22991424870775
"1363",17,39,1,2,163,1,2,1,5,0.46425910319742,0.545198109258726
"1364",17,21,1,1,164,1,1,1,4,0.631166726234641,0.705302387545012
"1365",17,33,1,1,165,1,1,1,5,0.373548391834532,0.438916639245071
"1366",17,20,1,2,166,1,2,1,5,0.447993849415968,0.488886195185567
"1367",17,22,1,1,167,1,1,1,4,0.341404701865453,0.345163806449744
"1368",17,20,1,1,168,1,1,1,5,0.474770063313332,0.503065907308755
"1369",17,25,1,2,169,3,1,0,1,0.903608059299807,0.957274185714662
"1370",17,31,1,1,170,1,1,1,5,0.4609131452937,0.385756570951752
"1371",17,37,1,1,171,3,2,0,1,0.892222512384508,0.974196059543439
"1372",17,30,1,2,172,2,2,1,4,0.509442169090814,0.577821181627868
"1373",17,39,1,2,173,3,2,1,2,0.920847223015964,0.954012712947081
"1374",17,21,1,2,174,1,1,0,4,0.477543642939878,0.462484264702419
"1375",17,33,1,2,175,1,2,1,4,0.388880392105253,0.402426517462934
"1376",17,20,1,2,176,3,1,0,1,1.49086810491924,1.55498205275246
"1377",17,22,1,1,177,2,2,0,2,0.658191905345815,0.728407426763675
"1378",17,20,1,2,178,2,2,1,3,0.78618927134936,0.832853903953817
"1379",17,25,1,1,179,3,2,0,1,0.713530964128466,0.792004362111929
"1380",17,31,1,1,180,2,1,1,4,0.564920955087982,0.56136344231077
"1381",17,37,1,2,181,3,1,0,1,1.14585400622008,1.22832013269127
"1382",17,30,1,1,182,1,2,0,3,0.485671381138098,0.501494377086639
"1383",17,39,1,1,183,3,2,0,2,0.712629227196372,0.671356813568495
"1384",17,21,1,1,184,3,1,1,3,0.977578613821567,0.950011235149858
"1385",17,33,1,2,185,2,2,1,3,0.475604570604455,0.445334054919837
"1386",17,20,1,2,186,1,1,0,4,0.624477483787638,0.61172811889103
"1387",17,22,1,1,187,2,1,1,3,0.255847609295889,0.215517342508094
"1388",17,20,1,2,188,1,1,0,3,0.488875953899023,0.421741185872924
"1389",17,25,1,2,189,1,2,1,4,0.380166353806923,0.393937728750575
"1390",17,31,1,1,190,1,1,1,4,0.442060824265381,0.416977547497187
"1391",17,37,1,2,191,3,2,1,2,0.888118563617223,0.906737305438683
"1392",17,30,1,1,192,3,2,0,1,1.46245412364671,1.47784938629037
"1393",17,39,1,2,193,2,1,0,2,0.76973689023438,0.817993614747721
"1394",17,21,1,2,194,3,1,0,1,0.73276754894037,0.755752305012746
"1395",17,33,1,1,195,3,1,1,2,0.589123412587202,0.613020093287448
"1396",17,20,1,2,196,3,1,0,1,0.490466337734729,0.478576134901515
"1397",17,22,1,1,197,2,1,1,3,0.605841699389878,0.630185465577568
"1398",17,20,1,1,198,3,1,1,3,0.970348526873618,0.959061682811226
"1399",17,25,1,2,199,1,2,1,4,0.370789663885201,0.359443281511976
"1400",17,31,1,2,200,2,2,1,4,0.65216811767046,0.675550160449987
"1401",17,37,1,1,201,1,1,1,5,0.345591109182826,0.354774223412465
"1402",17,30,1,1,202,1,2,0,3,0.59028716371771,0.647596921920042
"1403",17,39,1,1,203,2,2,0,2,0.832177663121298,0.877837491866057
"1404",17,21,1,2,204,2,2,1,4,0.608205792549989,0.583993082764521
"1405",17,33,1,1,205,3,1,1,3,0.737768569911005,0.670597311116065
"1406",17,20,1,2,206,3,2,1,3,0.895580122355381,0.84051187526498
"1407",17,22,1,2,207,1,2,1,4,0.557776693543329,0.589240735094289
"1408",17,20,1,1,208,1,1,1,4,0.395064456948477,0.416916843078428
"1409",17,25,1,1,209,2,2,0,2,0.796370493318457,0.763636782698948
"1410",17,31,1,1,210,2,2,0,3,0.955819857583194,0.994514105047495
"1411",17,37,1,2,211,3,1,0,1,0.505194394955901,0.484066253790181
"1412",17,30,1,2,212,3,1,0,1,1.285507139486,1.30631600193481
"1413",17,39,1,2,213,1,1,0,3,0.446679605202584,0.569679466562621
"1414",17,21,1,1,214,3,1,1,3,0.977715282482795,0.983435213728032
"1415",17,33,1,1,215,3,1,1,3,0.618202259872045,0.612427129112562
"1416",17,20,1,1,216,2,1,1,4,0.577645157654629,0.571954780917617
"1417",17,22,1,2,217,1,2,1,5,0.400861059972731,0.425021490908638
"1418",17,20,1,1,218,3,1,1,2,0.760602328025268,0.734253068002212
"1419",17,25,1,1,219,1,2,0,4,0.522440468927163,0.596157959686652
"1420",17,31,1,2,220,2,2,1,3,0.569026898448164,0.579169658593835
"1421",17,37,1,1,221,1,2,0,3,0.390064047237647,0.417801012189679
"1422",17,30,1,2,222,1,2,1,5,0.373866841252917,0.324731892068815
"1423",17,39,1,2,223,1,2,1,4,0.358106720743706,0.39264436283428
"1424",17,21,1,2,224,2,2,1,4,0.535653838724489,0.560659812379662
"1425",17,33,1,2,225,2,1,0,3,0.651918134525889,0.77395446586023
"1426",17,20,1,2,226,1,2,1,5,0.458240749819599,0.50285861063162
"1427",17,22,1,2,227,3,1,0,1,1.61195287249176,1.68720551746044
"1428",17,20,1,1,228,2,1,1,4,0.672448582723093,0.648935579794422
"1429",17,25,1,2,229,2,1,0,3,0.169467194151346,0.146753334536654
"1430",17,31,1,2,230,1,2,1,5,0.411554877535441,0.480554645095453
"1431",17,37,1,1,231,1,1,1,4,0.451309087739514,0.367841758248502
"1432",17,30,1,1,232,3,1,1,2,0.709824237996904,0.744677108039115
"1433",17,39,1,1,233,1,1,1,5,0.295002098705115,0.363115870934407
"1434",17,21,1,1,234,1,1,1,5,0.434029839952006,0.369061002710501
"1435",17,33,1,1,235,2,2,0,2,0.501897728445414,0.466195944739053
"1436",17,20,1,1,236,1,1,1,4,0.429832112033326,0.376879033106128
"1437",17,22,1,1,237,1,1,1,5,0.327206253886356,0.25963784308298
"1438",17,20,1,1,238,2,2,0,2,0.685037828591094,0.723079489869031
"1439",17,25,1,1,239,2,1,1,3,0.585498821126212,0.536413611382026
"1440",17,31,1,1,240,1,1,1,4,0.364914874573991,0.355705053034917
"1441",16,23,2,2,1,3,2,1,3,0.571775487489231,0.615912918223546
"1442",16,31,2,1,2,3,2,0,2,1.42551744678311,1.34457793058396
"1443",16,34,2,2,3,3,1,0,1,1.226817579567,1.20900647047412
"1444",16,37,2,2,4,3,1,0,2,1.0997667471299,1.12052535921278
"1445",16,26,2,1,5,3,2,0,2,1.0613945223487,1.1702977979995
"1446",16,24,2,1,6,2,1,1,3,0.596385055455093,0.575579156625424
"1447",16,22,2,2,7,2,1,0,2,0.445823833608925,0.44701484198564
"1448",16,40,2,1,8,2,1,1,4,0.505210197307005,0.517090724774143
"1449",16,25,2,1,9,2,1,1,3,0.654160794174586,0.581125730053701
"1450",16,34,2,2,10,3,1,0,1,1.30540950788014,1.35546255974162
"1451",16,23,2,2,11,1,2,1,5,0.383213585280867,0.414029884643334
"1452",16,31,2,2,12,3,1,0,2,0.733046366413291,0.735905753891831
"1453",16,34,2,2,13,2,2,1,3,0.767090025522118,0.749951445342085
"1454",16,37,2,2,14,3,2,1,2,0.96105282186542,0.965835877858286
"1455",16,26,2,2,15,1,2,1,5,0.435683343487977,0.392037497326164
"1456",16,24,2,2,16,1,2,1,4,0.437192808815089,0.418465845104083
"1457",16,22,2,2,17,1,2,1,4,0.404827491521439,0.375427613718292
"1458",16,40,2,1,18,2,1,1,4,0.556972824693092,0.551448219773993
"1459",16,25,2,1,19,2,2,0,2,0.623379074969989,0.579640155530531
"1460",16,34,2,2,20,3,2,1,2,0.721655246370749,0.59081256780566
"1461",16,23,2,1,21,3,1,1,2,0.542309795684505,0.607167838132435
"1462",16,31,2,1,22,3,1,1,3,0.810435734446952,0.871085734291154
"1463",16,34,2,2,23,1,1,0,3,0.503852491332699,0.513729176417373
"1464",16,37,2,2,24,2,1,0,2,0.699330517773224,0.714739779912289
"1465",16,26,2,1,25,2,2,0,3,0.805459862296424,0.88516433342639
"1466",16,24,2,1,26,1,1,1,4,0.459284934878356,0.473107106391437
"1467",16,22,2,1,27,1,2,0,3,0.640130323336675,0.684142211678441
"1468",16,40,2,1,28,3,1,1,3,0.427638124057225,0.508183315604797
"1469",16,25,2,2,29,1,2,1,4,0.444883042875464,0.449112445509177
"1470",16,34,2,2,30,2,1,0,2,0.737593094551342,0.701554801939074
"1471",16,23,2,2,31,2,2,1,3,0.652343530302887,0.692528176117188
"1472",16,31,2,1,32,1,1,1,5,0.334645851711645,0.338950515448546
"1473",16,34,2,1,33,1,1,1,4,0.354120530960244,0.424952266336295
"1474",16,37,2,2,34,1,1,0,3,0.49903904127409,0.495101683714517
"1475",16,26,2,2,35,1,2,1,5,0.450121797361222,0.35479202284055
"1476",16,24,2,2,36,3,1,0,2,0.814484217777623,0.820702374828764
"1477",16,22,2,1,37,2,2,0,2,0.66739945999663,0.750018244668806
"1478",16,40,2,1,38,1,1,1,5,0.498546420444739,0.464239636455483
"1479",16,25,2,2,39,3,1,0,2,0.451364369992772,0.473326844018446
"1480",16,34,2,2,40,1,2,1,5,0.60817718219166,0.44571454505501
"1481",16,23,2,2,41,1,1,0,4,0.49404296768692,0.442176008493802
"1482",16,31,2,1,42,3,1,1,3,0.983227653977609,1.02127342205208
"1483",16,34,2,1,43,2,1,1,4,0.433094498791652,0.440921837774012
"1484",16,37,2,2,44,1,2,1,5,0.358680661143806,0.301554452544688
"1485",16,26,2,2,45,3,2,1,2,0.632271152101262,0.632530057884764
"1486",16,24,2,1,46,3,2,0,1,1.42075953110119,1.4023318141312
"1487",16,22,2,1,47,1,1,1,4,0.390173579081167,0.443250193741917
"1488",16,40,2,1,48,2,1,1,4,0.47467114418032,0.554361402074025
"1489",16,25,2,1,49,3,2,0,2,1.10942225496127,1.12809170936556
"1490",16,34,2,2,50,2,2,1,4,0.462945381293339,0.526831478178831
"1491",16,23,2,1,51,1,1,1,4,0.475206276958157,0.516159023839174
"1492",16,31,2,2,52,3,2,1,2,1.04619833547253,1.03359773293403
"1493",16,34,2,2,53,1,2,1,4,0.433460735128723,0.408506002629023
"1494",16,37,2,1,54,3,1,1,3,0.791445101230773,0.705343360822699
"1495",16,26,2,2,55,1,1,0,3,0.776119863406876,0.783432547201985
"1496",16,24,2,2,56,1,2,1,4,0.32447685164256,0.374408716959648
"1497",16,22,2,1,57,1,1,1,4,0.375092163504112,0.410163048728564
"1498",16,40,2,2,58,2,2,1,3,0.692273778526611,0.731219639053608
"1499",16,25,2,2,59,3,2,1,3,0.791872302223317,0.822981305240645
"1500",16,34,2,1,60,1,1,1,4,0.385070524492737,0.425984573924616
"1501",16,23,2,2,61,2,2,1,3,0.598006613813432,0.597437894842127
"1502",16,31,2,1,62,3,1,1,2,0.871475797232685,0.819806374476199
"1503",16,34,2,2,63,3,1,0,2,1.1749021841987,1.1419880929452
"1504",16,37,2,1,64,2,1,1,3,0.699190993070674,0.683494367250617
"1505",16,26,2,1,65,1,1,1,5,0.432343255672905,0.420532341707221
"1506",16,24,2,1,66,3,1,1,2,0.764305098933713,0.855532051146615
"1507",16,22,2,2,67,2,1,0,2,0.905049864359047,0.913267803409465
"1508",16,40,2,1,68,3,1,1,2,0.766207150484264,0.746274100839746
"1509",16,25,2,1,69,2,1,1,4,0.611774643543071,0.565644334811961
"1510",16,34,2,2,70,2,1,0,2,0.8529697104136,0.908411238606175
"1511",16,23,2,2,71,2,2,1,4,0.678615842369157,0.724664852766667
"1512",16,31,2,2,72,3,2,1,3,1.34145926860453,1.32505457803808
"1513",16,34,2,1,73,2,2,0,2,0.754081756564491,0.746382725237002
"1514",16,37,2,2,74,3,2,1,2,0.728139954610851,0.664773527807958
"1515",16,26,2,2,75,1,2,1,5,0.370600938272102,0.313091518279144
"1516",16,24,2,1,76,2,2,0,2,0.484531299103236,0.448622815070155
"1517",16,22,2,1,77,1,1,1,5,0.429851647389031,0.444708617480328
"1518",16,40,2,1,78,2,2,0,2,0.809142069030247,0.885741604746355
"1519",16,25,2,2,79,1,2,1,4,0.483958563301356,0.527413613243549
"1520",16,34,2,2,80,3,1,0,2,0.740276778415283,0.738477880547362
"1521",16,23,2,2,81,1,2,1,5,0.430998870585116,0.463229053587992
"1522",16,31,2,2,82,1,2,1,4,0.484403469173573,0.506936963040835
"1523",16,34,2,1,83,2,2,0,3,0.544511097713625,0.50308666243227
"1524",16,37,2,2,84,2,2,1,4,0.758262062642267,0.732188896185467
"1525",16,26,2,1,85,1,1,1,4,0.404528017327112,0.400228557536145
"1526",16,24,2,1,86,3,1,1,2,0.758767941965602,0.777456935756211
"1527",16,22,2,1,87,1,2,0,4,0.727815023367514,0.770699201691189
"1528",16,40,2,1,88,3,1,1,2,0.914812672664397,0.886616581516938
"1529",16,25,2,1,89,1,1,1,4,0.468292684188046,0.524417734283958
"1530",16,34,2,2,90,1,2,1,4,0.444716649816192,0.521965118912275
"1531",16,23,2,1,91,1,1,1,4,0.459483595079655,0.506047728123058
"1532",16,31,2,1,92,2,1,1,4,0.698325308241163,0.609379189299574
"1533",16,34,2,2,93,2,1,0,3,0.846855318658979,0.883783067336613
"1534",16,37,2,2,94,3,2,1,2,0.918925996290041,0.839717900460147
"1535",16,26,2,2,95,3,1,0,2,0.88558498710002,0.844080593838908
"1536",16,24,2,1,96,2,1,1,3,0.498645340187118,0.42742698834487
"1537",16,22,2,2,97,2,2,1,4,0.60754812999192,0.605446708396467
"1538",16,40,2,1,98,3,2,0,1,1.20648514609414,1.24865215541915
"1539",16,25,2,1,99,3,1,1,3,1.2260902371177,1.20562482751322
"1540",16,34,2,1,100,2,1,1,3,0.457826127349963,0.420720549878046
"1541",16,23,2,2,101,2,2,1,4,0.425150300148583,0.421955048645644
"1542",16,31,2,2,102,3,2,1,3,0.753500606557177,0.658499223152383
"1543",16,34,2,1,103,2,2,0,3,0.702256627856924,0.745605917954456
"1544",16,37,2,1,104,1,2,0,4,0.647893993510909,0.608803751346239
"1545",16,26,2,1,105,1,2,0,4,0.607482462562781,0.573467162417526
"1546",16,24,2,2,106,3,1,0,1,1.267798767757,1.34680939847881
"1547",16,22,2,1,107,3,1,1,3,0.717402947415567,0.703619154982604
"1548",16,40,2,1,108,1,1,1,4,0.358138427956275,0.398463486295048
"1549",16,25,2,2,109,3,1,0,1,0.803078609821418,0.884367657088314
"1550",16,34,2,1,110,1,1,1,4,0.360697090847192,0.370427815172573
"1551",16,23,2,2,111,2,2,1,3,0.660204717834242,0.663878368114772
"1552",16,31,2,2,112,2,2,1,4,0.377574884931798,0.31228536002371
"1553",16,34,2,2,113,2,1,0,3,0.616426670319106,0.596666565442457
"1554",16,37,2,1,114,1,1,1,5,0.489187054500539,0.498574743643422
"1555",16,26,2,1,115,3,2,0,2,0.831349550830137,0.934359024029753
"1556",16,24,2,1,116,1,1,1,4,0.453649502894803,0.461481901399971
"1557",16,22,2,2,117,3,2,1,3,0.575286654485389,0.565696441559764
"1558",16,40,2,1,118,2,1,1,3,0.693379346790313,0.679566800728501
"1559",16,25,2,2,119,2,2,1,4,0.637012050182595,0.565359144261441
"1560",16,34,2,1,120,2,1,1,3,0.618114517696247,0.591081958537769
"1561",16,23,2,2,121,1,2,1,5,0.501809492242868,0.447278877708179
"1562",16,31,2,2,122,3,1,0,2,1.00851101522057,1.06780310132108
"1563",16,34,2,1,123,2,1,1,4,0.521674091589682,0.608541697102508
"1564",16,37,2,1,124,3,2,0,1,1.13430480160144,1.11823767293929
"1565",16,26,2,2,125,2,2,1,4,0.489233113927372,0.509525176975459
"1566",16,24,2,1,126,2,2,0,2,0.53178585772523,0.444622027413929
"1567",16,22,2,1,127,1,1,1,5,0.380057403483739,0.275479589686507
"1568",16,40,2,1,128,2,2,0,3,0.518770215323218,0.468113377194598
"1569",16,25,2,1,129,1,1,1,5,0.223753268051493,0.248494022693402
"1570",16,34,2,2,130,3,1,0,2,0.603567441148656,0.577776958631412
"1571",16,23,2,1,131,2,1,1,4,0.46598690982852,0.570959202126874
"1572",16,31,2,1,132,3,2,0,2,1.15036327377177,1.16219861828972
"1573",16,34,2,1,133,3,1,1,2,1.03925229796704,1.08238919969495
"1574",16,37,2,1,134,1,2,0,4,0.594501069129587,0.559693654562928
"1575",16,26,2,2,135,3,2,1,2,0.614163642673432,0.641507873577918
"1576",16,24,2,2,136,2,2,1,4,0.630954779993955,0.684264068306778
