"","subj_no","age","group","stim","trial","difficulty","resp","corr","conf","RT_day1","RT_day2"
"1",23,32,1,2,1,1,1,0,3,0.609397121867317,0.711024182387038
"2",23,18,1,1,2,1,1,1,5,0.403307123412471,0.386952724407756
"3",23,39,1,2,3,3,1,0,2,1.13493109315224,1.1065761447016
"4",23,25,1,2,4,3,1,0,1,0.832538134338265,0.859734885806064
"5",23,25,1,1,5,2,1,1,4,0.560808193405609,0.602870744942694
"6",23,37,1,1,6,3,1,1,3,0.668914714106144,0.591239675402403
"7",23,33,1,2,7,1,2,1,4,0.381894213428192,0.443577079201171
"8",23,19,1,1,8,2,1,1,4,0.674818548053177,0.563532298975041
"9",23,19,1,2,9,2,2,1,3,0.623478508797501,0.624421759260106
"10",23,25,1,2,10,3,1,0,1,0.950175695193688,0.960405462383419
"11",23,32,1,1,11,3,2,0,1,1.42681322903816,1.49523937000082
"12",23,18,1,2,12,2,1,0,3,0.833977494872017,0.877182461064239
"13",23,39,1,2,13,3,1,0,2,0.696557676891385,0.731212620145866
"14",23,25,1,2,14,3,1,0,1,0.741526982733391,0.72460176102999
"15",23,25,1,2,15,1,1,0,4,0.380895395354307,0.342610799782295
"16",23,37,1,1,16,1,1,1,4,0.325755141578916,0.364680406945987
"17",23,33,1,1,17,3,1,1,3,0.876042771242136,0.840001847907317
"18",23,19,1,1,18,3,2,0,1,1.64550532451718,1.65180185787715
"19",23,19,1,1,19,1,2,0,3,0.558898219111513,0.608928807629401
"20",23,25,1,1,20,1,1,1,4,0.495577471812511,0.503650441316138
"21",23,32,1,1,21,2,2,0,2,0.69247877726721,0.695172719083165
"22",23,18,1,2,22,1,2,1,4,0.460164994174161,0.462086472629172
"23",23,39,1,2,23,2,1,0,2,1.13148108108242,1.13535284465244
"24",23,25,1,1,24,1,2,0,4,0.446451299659337,0.403325495720507
"25",23,25,1,2,25,2,2,1,4,0.512171051534236,0.581530287895906
"26",23,37,1,2,26,2,1,0,2,0.762372107059159,0.788291508513283
"27",23,33,1,1,27,1,1,1,4,0.423909052655664,0.45092489903843
"28",23,19,1,1,28,2,1,1,3,0.438690835543373,0.451473407305732
"29",23,19,1,2,29,3,2,1,3,0.800510966781081,0.888673233686278
"30",23,25,1,2,30,3,2,1,2,0.988616939100536,1.10561518645222
"31",23,32,1,1,31,1,1,1,5,0.417935861919077,0.528751552819217
"32",23,18,1,2,32,2,1,0,3,0.833135087622838,0.800633656832447
"33",23,39,1,1,33,3,1,1,3,0.575705959942523,0.561175572246485
"34",23,25,1,1,34,1,2,0,4,0.56092614069463,0.628115277967924
"35",23,25,1,2,35,1,2,1,4,0.462326692675412,0.510695643662814
"36",23,37,1,1,36,3,2,0,1,1.5033994096089,1.52545698184999
"37",23,33,1,1,37,2,2,0,2,0.662220487018445,0.594414020620419
"38",23,19,1,1,38,3,2,0,1,1.227622038899,1.18083559645226
"39",23,19,1,1,39,3,2,0,1,1.26353206584409,1.28040134691354
"40",23,25,1,2,40,2,2,1,4,0.633489704232084,0.637128291205614
"41",23,32,1,1,41,2,1,1,3,0.609238552661468,0.63779914801682
"42",23,18,1,2,42,1,2,1,4,0.318223414808699,0.295659866542338
"43",23,39,1,2,43,1,1,0,4,0.589164095918976,0.619628745276944
"44",23,25,1,1,44,2,1,1,4,0.450886640312356,0.428433000836975
"45",23,25,1,2,45,2,1,0,2,0.853999628499832,0.909442918148277
"46",23,37,1,1,46,3,2,0,2,1.03114688359372,0.915060637228659
"47",23,33,1,2,47,2,2,1,4,0.342337617223124,0.330403131274435
"48",23,19,1,1,48,3,1,1,2,0.604595764320879,0.685130505098157
"49",23,19,1,2,49,2,2,1,3,0.413068370509455,0.469241476242431
"50",23,25,1,2,50,3,2,1,3,0.726309936093666,0.759796592355633
"51",23,32,1,2,51,3,2,1,2,0.756696711308754,0.763658265756245
"52",23,18,1,1,52,3,1,1,3,0.888333993192393,0.906688561305959
"53",23,39,1,1,53,1,1,1,5,0.33538053558341,0.310724845431696
"54",23,25,1,2,54,2,1,0,2,0.664221228912931,0.689669098086241
"55",23,25,1,2,55,2,2,1,3,0.64624690504463,0.671199661714295
"56",23,37,1,1,56,3,1,1,3,0.854991543619029,0.932333531873629
"57",23,33,1,2,57,3,1,0,1,0.957822209750376,1.01393597630571
"58",23,19,1,2,58,1,2,1,4,0.3503618531935,0.397816194562064
"59",23,19,1,1,59,2,2,0,3,1.00161553560911,0.921005853071317
"60",23,25,1,2,60,1,1,0,3,0.419033787241166,0.342034640767369
"61",23,32,1,2,61,1,2,1,5,0.379345172727812,0.391527417100501
"62",23,18,1,2,62,1,2,1,4,0.502153864508609,0.541687653014111
"63",23,39,1,1,63,1,1,1,5,0.416226906851874,0.396234701675247
"64",23,25,1,2,64,3,1,0,2,1.05957582492542,1.03076447874214
"65",23,25,1,2,65,3,1,0,1,1.27029030517212,1.24731742020713
"66",23,37,1,1,66,1,1,1,5,0.467792409448054,0.465504173407563
"67",23,33,1,1,67,3,1,1,2,0.728135828266192,0.758231495385108
"68",23,19,1,2,68,2,2,1,3,0.506480641213443,0.505836716661982
"69",23,19,1,1,69,2,2,0,2,0.541291694438261,0.47715379898086
"70",23,25,1,1,70,3,1,1,3,0.681868310237943,0.718897774662049
"71",23,32,1,1,71,2,1,1,4,0.671291699851579,0.696183216451773
"72",23,18,1,2,72,1,2,1,4,0.437247260271609,0.416392251317175
"73",23,39,1,2,73,3,2,1,3,0.708166117602741,0.678979444920247
"74",23,25,1,2,74,3,1,0,1,0.611008717458646,0.57813717876446
"75",23,25,1,1,75,1,1,1,5,0.342434670276906,0.309477828430458
"76",23,37,1,1,76,1,1,1,4,0.330060279459421,0.365831999546885
"77",23,33,1,2,77,3,1,0,1,0.955773074703878,0.97491587262621
"78",23,19,1,1,78,3,1,1,2,0.779184356257622,0.757849765119555
"79",23,19,1,2,79,1,2,1,5,0.548957256653867,0.470472216146093
"80",23,25,1,1,80,1,1,1,5,0.408297953830863,0.324047988117467
"81",23,32,1,2,81,1,2,1,4,0.177852189771687,0.183659517415451
"82",23,18,1,1,82,1,2,0,4,0.539766681254658,0.661637684869641
"83",23,39,1,1,83,3,2,0,2,0.972976663689688,0.947386955367569
"84",23,25,1,1,84,1,1,1,5,0.442833295671066,0.447717590341347
"85",23,25,1,2,85,3,2,1,3,0.900156604694302,0.988576591436449
"86",23,37,1,2,86,1,2,1,5,0.373977881455736,0.353255368439206
"87",23,33,1,2,87,3,1,0,2,0.459966468996961,0.443216349201732
"88",23,19,1,2,88,2,1,0,2,0.729230705443854,0.736797581341992
"89",23,19,1,1,89,2,1,1,4,0.5425955618072,0.540503443842197
"90",23,25,1,1,90,1,2,0,3,0.504832520440681,0.464021324569842
"91",23,32,1,2,91,1,2,1,5,0.365139770412184,0.39781225418044
"92",23,18,1,2,92,1,1,0,4,0.532256665724886,0.558923472340326
"93",23,39,1,2,93,2,2,1,4,0.589500283930681,0.627217518042401
"94",23,25,1,2,94,1,2,1,4,0.404326190367509,0.351779834254309
"95",23,25,1,1,95,2,1,1,4,0.73419045983362,0.697058711619064
"96",23,37,1,1,96,3,2,0,2,0.624024129175199,0.585619486515762
"97",23,33,1,2,97,1,2,1,4,0.272682939174276,0.326495829840955
"98",23,19,1,2,98,2,2,1,3,0.627845407321657,0.568304197293583
"99",23,19,1,2,99,3,2,1,2,0.818148941863996,0.908106689943592
"100",23,25,1,1,100,2,1,1,3,0.49383460407,0.613004179210809
"101",23,32,1,2,101,1,2,1,4,0.234952047974174,0.269835368020633
"102",23,18,1,1,102,2,2,0,3,0.455931769961067,0.407652516186436
"103",23,39,1,2,103,2,2,1,3,0.537949766285664,0.489970458357872
"104",23,25,1,1,104,2,1,1,3,0.424659862906374,0.381248612326473
"105",23,25,1,1,105,1,1,1,5,0.37280180738439,0.375842876228728
"106",23,37,1,1,106,1,1,1,4,0.322317429418706,0.2907598965242
"107",23,33,1,1,107,1,1,1,4,0.383510485404639,0.378296689217792
"108",23,19,1,1,108,2,1,1,4,0.486743531629113,0.583695900827344
"109",23,19,1,1,109,3,1,1,2,1.06563901220798,1.03500873807059
"110",23,25,1,1,110,1,1,1,5,0.195436304252713,0.15446065254114
"111",23,32,1,1,111,3,2,0,1,0.881998253754879,0.906202946159135
"112",23,18,1,2,112,2,2,1,4,0.611468405484209,0.569000689042026
"113",23,39,1,1,113,1,1,1,4,0.488152189609693,0.40580879483694
"114",23,25,1,2,114,1,2,1,4,0.354123575390989,0.368903074521764
"115",23,25,1,1,115,3,2,0,1,0.769174046635183,0.706800178318512
"116",23,37,1,2,116,3,1,0,1,0.869724164402907,0.935263184288096
"117",23,33,1,2,117,2,2,1,4,0.62649969054092,0.632414619800101
"118",23,19,1,2,118,1,1,0,4,0.579305585430633,0.635323573932832
"119",23,19,1,1,119,2,2,0,2,0.85844764032836,0.868102746398501
"120",23,25,1,1,120,2,2,0,3,0.810016796873799,0.883958899992353
"121",23,32,1,1,121,2,2,0,3,0.73962540730968,0.780775651869615
"122",23,18,1,1,122,2,1,1,3,0.46839279633614,0.446265180006681
"123",23,39,1,2,123,3,1,0,1,0.793992321366047,0.804793623406694
"124",23,25,1,1,124,1,1,1,4,0.412999113821066,0.467368501327553
"125",23,25,1,1,125,2,2,0,3,0.69274816704257,0.709385333943648
"126",23,37,1,2,126,1,2,1,5,0.468607925407077,0.56738722640312
"127",23,33,1,1,127,2,1,1,3,0.691515029090618,0.632770422257315
"128",23,19,1,1,128,1,1,1,5,0.41268896320546,0.464625896405091
"129",23,19,1,1,129,2,1,1,3,0.652877934607324,0.717770270090927
"130",23,25,1,1,130,2,1,1,4,0.481101352172122,0.433592442890255
"131",23,32,1,1,131,3,1,1,2,0.988913010388627,0.961478780401059
"132",23,18,1,2,132,2,2,1,3,0.636036368443023,0.629037790620971
"133",23,39,1,1,133,3,2,0,1,0.853829489269057,0.811031455529116
"134",23,25,1,2,134,1,2,1,4,0.326026279889203,0.388084111387672
"135",23,25,1,2,135,3,2,1,2,0.831119747915932,0.845369670956801
"136",23,37,1,2,136,2,1,0,2,0.530781084271862,0.540208217885032
"137",23,33,1,1,137,2,2,0,2,0.750993650079544,0.68536527095223
"138",23,19,1,1,138,1,1,1,5,0.229333927931147,0.222574061774717
"139",23,19,1,2,139,2,2,1,3,0.730799957928721,0.79010242226375
"140",23,25,1,2,140,2,1,0,3,0.836978372638608,0.810380921599151
"141",23,32,1,1,141,2,1,1,4,0.595397907404333,0.635939950845696
"142",23,18,1,2,142,3,2,1,3,0.534552611903353,0.48311654678987
"143",23,39,1,2,143,2,2,1,3,0.612190912792186,0.64100148532629
"144",23,25,1,2,144,3,2,1,3,0.626688731219722,0.624866365967483
"145",23,25,1,1,145,2,1,1,4,0.785259553978188,0.712885503261773
"146",23,37,1,2,146,1,2,1,5,0.40204635601085,0.476693441261191
"147",23,33,1,1,147,1,1,1,4,0.384867652147139,0.43933010400025
"148",23,19,1,2,148,2,1,0,3,0.6775879122639,0.718549752334784
"149",23,19,1,1,149,1,1,1,5,0.433550905494543,0.435387290685293
"150",23,25,1,1,150,3,2,0,2,0.902644469462938,0.924712059777022
"151",23,32,1,2,151,2,2,1,4,0.668662873835587,0.736988555786132
"152",23,18,1,2,152,3,1,0,2,1.03054353406835,1.07429845814718
"153",23,39,1,2,153,3,2,1,3,1.06248238249136,1.02726873515263
"154",23,25,1,2,154,1,2,1,4,0.439061899279936,0.498784376210757
"155",23,25,1,1,155,2,1,1,3,0.60362283901607,0.616687729190034
"156",23,37,1,2,156,2,2,1,3,0.811733987735249,0.722883441175925
"157",23,33,1,2,157,3,1,0,2,0.704972367383318,0.732538067919215
"158",23,19,1,1,158,3,1,1,3,0.619439911141988,0.549278090225621
"159",23,19,1,2,159,1,1,0,4,0.644758213503057,0.685169190960129
"160",23,25,1,2,160,2,2,1,3,0.731787008268244,0.614330011235575
"161",23,32,1,1,161,1,1,1,4,0.452852382659842,0.449303512735019
"162",23,18,1,2,162,2,2,1,3,0.628556630517942,0.640195427696253
"163",23,39,1,1,163,2,1,1,3,0.564446927326756,0.510736533632071
"164",23,25,1,2,164,2,2,1,4,0.754819842849873,0.763505331446313
"165",23,25,1,1,165,2,2,0,3,0.53776207368073,0.552099326218172
"166",23,37,1,2,166,1,2,1,5,0.373146930979661,0.327523129227402
"167",23,33,1,1,167,2,2,0,2,0.606131767737809,0.57987915434229
"168",23,19,1,2,168,2,2,1,4,0.623891379221191,0.539799038092609
"169",23,19,1,1,169,2,2,0,2,0.442951949077161,0.459262003936858
"170",23,25,1,2,170,3,1,0,2,1.33863122669843,1.37417393099286
"171",23,32,1,1,171,1,1,1,4,0.530046359449772,0.558961734667799
"172",23,18,1,1,172,1,1,1,4,0.42537303924252,0.475868354754426
"173",23,39,1,2,173,2,2,1,3,0.496445109081275,0.543291406132636
"174",23,25,1,1,174,3,2,0,2,0.581899606694592,0.475852771009918
"175",23,25,1,1,175,3,1,1,2,0.983696849418574,0.972295917508543
"176",23,37,1,2,176,3,1,0,1,1.46344171003065,1.49309329920945
"177",23,33,1,1,177,3,2,0,1,0.56215397709643,0.595231533706494
"178",23,19,1,2,178,3,2,1,2,0.776811854932468,0.752024997580337
"179",23,19,1,2,179,3,2,1,3,1.06201701118117,1.03349984686601
"180",23,25,1,2,180,1,1,0,3,0.476928096323059,0.399856758503397
"181",23,32,1,2,181,1,2,1,4,0.360797675523802,0.285384278933639
"182",23,18,1,1,182,2,2,0,3,0.729503360001893,0.79624899350875
"183",23,39,1,2,183,1,2,1,4,0.286233279233818,0.325981425680037
"184",23,25,1,1,184,1,1,1,4,0.458933643802227,0.452828306595885
"185",23,25,1,2,185,1,1,0,3,0.491381514616862,0.530229277954354
"186",23,37,1,1,186,3,1,1,2,1.16729155766566,1.13596172098893
"187",23,33,1,2,187,1,2,1,4,0.50302901171341,0.522996738086934
"188",23,19,1,1,188,3,1,1,2,1.06497443391071,1.0975423236536
"189",23,19,1,2,189,2,1,0,2,0.883611017150374,0.843687168530277
"190",23,25,1,1,190,3,1,1,2,0.654638938262657,0.668980189176581
"191",23,32,1,2,191,2,1,0,2,0.920234004060524,0.943573635560834
"192",23,18,1,2,192,1,2,1,5,0.315318163855787,0.350038602385417
"193",23,39,1,1,193,3,1,1,3,0.710945402001289,0.682219793346075
"194",23,25,1,2,194,1,2,1,4,0.360147672915241,0.367186558820071
"195",23,25,1,2,195,2,1,0,3,0.719864476207862,0.730283989138914
"196",23,37,1,1,196,1,1,1,5,0.340891106045353,0.289728133032303
"197",23,33,1,2,197,2,2,1,3,0.387478623205149,0.425935881940884
"198",23,19,1,1,198,3,1,1,3,0.760221946319995,0.689729299620731
"199",23,19,1,1,199,1,2,0,3,0.536530874646262,0.629079917441062
"200",23,25,1,1,200,2,1,1,3,0.792756443928845,0.754455115795025
"201",23,32,1,2,201,2,2,1,3,0.481068041965487,0.485792742884934
"202",23,18,1,2,202,3,2,1,3,0.19544949412918,0.209905832487511
"203",23,39,1,1,203,2,1,1,3,0.539931386867046,0.589461064600532
"204",23,25,1,1,204,3,2,0,1,0.623624228460198,0.5766034433559
"205",23,25,1,2,205,3,2,1,3,0.70947507164351,0.689541234223762
"206",23,37,1,2,206,2,1,0,2,0.793634483631991,0.832007431798732
"207",23,33,1,2,207,1,2,1,4,0.476778650311067,0.434576678262205
"208",23,19,1,2,208,3,1,0,1,1.36793623904288,1.3807783323627
"209",23,19,1,2,209,3,2,1,2,0.875520148875076,0.931577608514749
"210",23,25,1,2,210,3,1,0,2,0.70533498380597,0.724302707951138
"211",23,32,1,1,211,2,1,1,4,0.682000953061266,0.630002262549167
"212",23,18,1,1,212,3,2,0,1,0.627701578869322,0.63267884242552
"213",23,39,1,1,213,2,1,1,4,0.482067035826002,0.396730520481146
"214",23,25,1,1,214,3,1,1,2,0.635354306122654,0.630438804462589
"215",23,25,1,1,215,1,2,0,3,0.584344552905919,0.460404909577633
"216",23,37,1,1,216,1,1,1,4,0.509732672740816,0.459970667894808
"217",23,33,1,1,217,1,1,1,4,0.386851447014485,0.295189733995241
"218",23,19,1,1,218,3,1,1,2,0.659143241408242,0.694331317338742
"219",23,19,1,1,219,2,1,1,3,0.71886558102798,0.746942170797686
"220",23,25,1,1,220,1,1,1,4,0.475259377924898,0.444450027209766
"221",23,32,1,1,221,3,2,0,2,0.867529203169053,0.897774217048599
"222",23,18,1,2,222,3,2,1,2,0.792332216117809,0.630395937309744
"223",23,39,1,1,223,1,1,1,4,0.383291787182277,0.381529298980841
"224",23,25,1,2,224,3,1,0,1,1.26442411449471,1.19309198150813
"225",23,25,1,2,225,3,1,0,1,0.86211663640872,0.829334478641678
"226",23,37,1,1,226,1,2,0,3,0.562810090474992,0.668679890358431
"227",23,33,1,2,227,1,2,1,4,0.445461408595583,0.480606598276312
"228",23,19,1,2,228,3,2,1,2,0.758537450907077,0.724775421244704
"229",23,19,1,2,229,2,1,0,3,0.801179694128947,0.86704934406914
"230",23,25,1,2,230,2,2,1,4,0.67735408100079,0.635630378098306
"231",23,32,1,2,231,1,2,1,4,0.40584823570556,0.361038216197754
"232",23,18,1,2,232,1,1,0,3,0.430845493635341,0.442754231715327
"233",23,39,1,1,233,3,2,0,2,1.091469413566,1.04553121697995
"234",23,25,1,1,234,2,1,1,3,0.450430778287652,0.448488187875876
"235",23,25,1,1,235,3,2,0,1,1.04165445437811,1.02186715367337
"236",23,37,1,2,236,3,1,0,1,0.797629775008352,0.829250432254802
"237",23,33,1,1,237,1,1,1,5,0.486445693145952,0.44467404423126
"238",23,19,1,1,238,3,2,0,1,1.33340864851522,1.30265601695961
"239",23,19,1,2,239,1,2,1,5,0.380153268150092,0.479056825602278
"240",23,25,1,1,240,2,2,0,2,0.625788493560722,0.569859925607833
"241",22,26,2,1,1,1,2,0,3,0.521579072106468,0.548737662657049
"242",22,18,2,1,2,2,1,1,3,0.659922338778205,0.58723678818924
"243",22,34,2,1,3,2,1,1,3,0.554952707701922,0.574333637977259
"244",22,36,2,2,4,2,1,0,3,0.487137418436771,0.45156203991491
"245",22,21,2,1,5,1,1,1,4,0.322791770555136,0.329367204617499
"246",22,21,2,1,6,3,2,0,1,1.21449249921256,1.27362876976397
"247",22,36,2,1,7,1,1,1,5,0.418145905024783,0.48211116722688
"248",22,36,2,1,8,1,2,0,3,0.482024756994457,0.425739748190412
"249",22,21,2,2,9,3,1,0,1,1.56515706771406,1.5973388344422
"250",22,33,2,2,10,3,1,0,1,0.768313452134556,0.790881001786826
"251",22,26,2,2,11,1,2,1,5,0.477226450141071,0.486015985000081
"252",22,18,2,2,12,3,1,0,1,0.46454014826227,0.367545342435683
"253",22,34,2,2,13,3,2,1,3,0.749336444725971,0.74871845895813
"254",22,36,2,2,14,1,2,1,4,0.335601485025997,0.340187430943968
"255",22,21,2,1,15,3,1,1,2,1.03423175280342,1.04597225067644
"256",22,21,2,2,16,3,1,0,1,1.4605253080084,1.4470397221706
"257",22,36,2,1,17,1,2,0,4,0.681733678446311,0.735043788532811
"258",22,36,2,2,18,3,1,0,1,0.690806794355714,0.607091949506045
"259",22,21,2,1,19,1,1,1,4,0.358632966930826,0.396514553769803
"260",22,33,2,2,20,3,1,0,2,1.19803111371964,1.18281475527172
"261",22,26,2,2,21,2,2,1,3,0.613387014793258,0.70294055211605
"262",22,18,2,2,22,1,2,1,5,0.501536404579873,0.485966240350939
"263",22,34,2,2,23,3,2,1,2,1.15474973947905,1.1227123916331
"264",22,36,2,1,24,1,2,0,3,0.585774430748851,0.522752934019312
"265",22,21,2,1,25,1,1,1,5,0.464601322481824,0.407191774124402
"266",22,21,2,2,26,1,2,1,5,0.236755215837792,0.206871481690896
"267",22,36,2,1,27,1,1,1,4,0.494935676689464,0.468138591812963
"268",22,36,2,2,28,2,1,0,3,0.512069017240057,0.52428066965853
"269",22,21,2,2,29,3,1,0,2,1.4651723767908,1.51367297364618
"270",22,33,2,1,30,1,1,1,4,0.449457700941779,0.409760043519953
"271",22,26,2,2,31,2,1,0,2,0.516411290039994,0.430918472932488
"272",22,18,2,1,32,3,2,0,1,1.09074059581169,1.01931813496568
"273",22,34,2,1,33,1,1,1,4,0.574656236226705,0.64677832792532
"274",22,36,2,2,34,3,1,0,1,0.690686887457539,0.751448876754579
"275",22,21,2,1,35,1,2,0,3,0.576374910840897,0.497673027170808
"276",22,21,2,2,36,2,1,0,3,0.830965709644895,0.844532608339806
"277",22,36,2,2,37,1,2,1,5,0.333870828633095,0.298691438696754
"278",22,36,2,1,38,3,1,1,3,0.941269501375545,0.912208195987178
"279",22,21,2,1,39,2,1,1,3,0.676078123866607,0.726428656526037
"280",22,33,2,1,40,1,1,1,5,0.217361914439674,0.219758966777302
"281",22,26,2,1,41,3,1,1,2,0.941125690058851,0.970423840951081
"282",22,18,2,2,42,1,1,0,3,0.49643148432423,0.402704452841351
"283",22,34,2,1,43,3,1,1,3,0.787344490841055,0.872611519805175
"284",22,36,2,1,44,1,1,1,4,0.469440330581479,0.434679314928697
"285",22,21,2,2,45,2,2,1,3,0.358452956259951,0.411371002370293
"286",22,21,2,1,46,1,1,1,5,0.546865365856649,0.605635879005022
"287",22,36,2,2,47,1,2,1,5,0.310837499288462,0.274973495224093
"288",22,36,2,1,48,1,2,0,4,0.581304726578605,0.491015369504107
"289",22,21,2,1,49,3,1,1,2,0.658254972415828,0.689086824664918
"290",22,33,2,2,50,3,1,0,2,0.932377581145793,0.830906403872483
"291",22,26,2,2,51,2,1,0,3,0.814100309475863,0.818068144749382
"292",22,18,2,2,52,2,1,0,2,0.717690416499201,0.677226297674372
"293",22,34,2,1,53,3,1,1,2,0.886623569968328,0.913261251399995
"294",22,36,2,2,54,1,1,0,4,0.812196482202029,0.841200159491022
"295",22,21,2,1,55,1,2,0,4,0.423534002018397,0.358693630563054
"296",22,21,2,1,56,2,1,1,3,0.950440381088023,0.928673063892304
"297",22,36,2,1,57,2,1,1,3,0.698798499106635,0.699023461970483
"298",22,36,2,2,58,1,2,1,5,0.310402614930731,0.284119212822757
"299",22,21,2,1,59,3,1,1,2,0.798684768736502,0.8206293671565
"300",22,33,2,2,60,2,1,0,2,0.849533278768555,0.891120795161457
"301",22,26,2,2,61,2,2,1,3,0.498495609075987,0.437338295550555
"302",22,18,2,2,62,3,1,0,1,1.29657244462447,1.21776578843164
"303",22,34,2,2,63,2,2,1,4,0.650373812901915,0.747038202199315
"304",22,36,2,2,64,1,1,0,4,0.560373998202994,0.570877346894766
"305",22,21,2,1,65,3,2,0,1,1.16621082429621,1.20410500951814
"306",22,21,2,1,66,2,1,1,3,0.61357739072032,0.670462918264723
"307",22,36,2,1,67,3,2,0,1,0.6312240581057,0.649322199467512
"308",22,36,2,1,68,2,1,1,4,0.475551263990323,0.463228863036742
"309",22,21,2,1,69,1,1,1,4,0.250868075975054,0.27907245772216
"310",22,33,2,1,70,1,1,1,5,0.194095742817794,0.214408562014002
"311",22,26,2,2,71,3,1,0,1,0.98499025918551,0.959377807122356
"312",22,18,2,2,72,1,2,1,4,0.358509729689231,0.279265988770069
"313",22,34,2,1,73,3,2,0,1,1.10353542598379,1.07843574919475
"314",22,36,2,1,74,1,1,1,4,0.284969475427513,0.301150624861571
"315",22,21,2,2,75,3,2,1,3,0.661906983102241,0.693735218959544
"316",22,21,2,1,76,2,1,1,3,0.632639935919655,0.640127100487536
"317",22,36,2,1,77,3,1,1,3,0.559087196864037,0.621609299212707
"318",22,36,2,2,78,3,1,0,2,0.934718081211066,0.959106437044666
"319",22,21,2,2,79,2,1,0,3,0.782036815656599,0.738551373632877
"320",22,33,2,2,80,2,2,1,4,0.773894786472701,0.763968207793549
"321",22,26,2,1,81,2,2,0,2,0.85763406242863,0.81679620112479
"322",22,18,2,1,82,3,2,0,1,1.55577628083428,1.4954679174988
"323",22,34,2,1,83,1,1,1,5,0.339179699846586,0.335162440819855
"324",22,36,2,1,84,3,2,0,1,1.32275577289741,1.2713482951471
"325",22,21,2,2,85,1,1,0,3,0.693089600396236,0.690508069936485
"326",22,21,2,2,86,2,2,1,3,0.643036268158709,0.708304068806884
"327",22,36,2,2,87,3,2,1,2,0.988820753767904,0.997847381936003
"328",22,36,2,2,88,3,2,1,3,0.949654905067103,0.991665231186357
"329",22,21,2,1,89,1,1,1,4,0.347593222986674,0.35623234985145
"330",22,33,2,2,90,1,2,1,4,0.389103508746659,0.353866473471279
"331",22,26,2,2,91,3,1,0,2,0.976419746240329,0.997753644851907
"332",22,18,2,1,92,2,1,1,4,0.671169246947788,0.680555662579391
"333",22,34,2,2,93,1,1,0,3,0.656655958832203,0.622371436305003
"334",22,36,2,1,94,2,2,0,2,0.76904052234594,0.758084476861982
"335",22,21,2,1,95,2,2,0,3,0.715215670988121,0.66467330428747
"336",22,21,2,2,96,2,1,0,3,0.776891084670061,0.713672540874693
"337",22,36,2,1,97,1,1,1,5,0.31495588706352,0.330330873526616
"338",22,36,2,1,98,2,1,1,3,0.675087901673143,0.692131506429747
"339",22,21,2,2,99,3,2,1,2,0.939071010248677,0.963205666122101
"340",22,33,2,1,100,2,1,1,3,0.713413848802291,0.772107539659917
"341",22,26,2,1,101,3,2,0,2,0.653273974871538,0.705033011333835
"342",22,18,2,2,102,1,2,1,4,0.347851253490753,0.269803469916534
"343",22,34,2,1,103,1,1,1,5,0.372582999217529,0.417363110210326
"344",22,36,2,1,104,1,1,1,4,0.550035633101335,0.522389482981564
"345",22,21,2,1,105,1,1,1,5,0.446494162997368,0.387401616547506
"346",22,21,2,1,106,2,2,0,2,0.554001178844423,0.541107297703872
"347",22,36,2,1,107,2,2,0,2,0.827429625336938,0.76046662390124
"348",22,36,2,2,108,3,1,0,1,0.643084216108103,0.657881110395502
"349",22,21,2,1,109,2,1,1,3,0.590138585740499,0.530808217513551
"350",22,33,2,1,110,3,1,1,3,0.596575061145566,0.471626023771043
"351",22,26,2,2,111,2,2,1,4,0.702780347716632,0.664043799399032
"352",22,18,2,2,112,3,1,0,2,0.458711471724392,0.534010670641479
"353",22,34,2,1,113,3,1,1,3,0.973779960298863,0.881470263562717
"354",22,36,2,2,114,2,2,1,3,0.784348342497635,0.791000479197694
"355",22,21,2,2,115,2,1,0,2,0.538430911823946,0.462646248578019
"356",22,21,2,2,116,2,2,1,4,0.523645284601539,0.49695195004806
"357",22,36,2,1,117,2,1,1,4,0.560692773012885,0.422915946365759
"358",22,36,2,1,118,1,1,1,5,0.350391557308367,0.399756552888049
"359",22,21,2,1,119,1,1,1,4,0.316592346729947,0.191702703925391
"360",22,33,2,2,120,3,1,0,1,1.1642605563229,1.19724745655171
"361",22,26,2,1,121,2,2,0,3,0.681721991915874,0.637592594210549
"362",22,18,2,1,122,3,1,1,3,1.03363737801816,1.03728483271795
"363",22,34,2,2,123,2,2,1,3,0.822488711703111,0.777556173230936
"364",22,36,2,2,124,1,2,1,5,0.340940278267008,0.291629019965
"365",22,21,2,2,125,2,1,0,2,0.660506204590993,0.628926955208665
"366",22,21,2,2,126,1,2,1,4,0.464149590562291,0.477134926745845
"367",22,36,2,2,127,1,1,0,4,0.426564853434416,0.449754772727307
"368",22,36,2,2,128,2,2,1,3,0.457786595042786,0.472344282900809
"369",22,21,2,2,129,3,2,1,2,0.605373087405828,0.622525732380148
"370",22,33,2,1,130,1,1,1,4,0.491855402384427,0.53064931029681
"371",22,26,2,1,131,3,1,1,2,0.847876283403957,0.846284597665843
"372",22,18,2,1,132,2,2,0,3,0.828843304359088,0.829186491672854
"373",22,34,2,1,133,1,1,1,5,0.319396735951371,0.310217177426883
"374",22,36,2,1,134,3,1,1,3,0.843260719112426,0.870535488930571
"375",22,21,2,2,135,3,1,0,1,1.18355251884814,1.16331741854903
"376",22,21,2,1,136,1,1,1,5,0.328182774609216,0.347236598311358
"377",22,36,2,1,137,1,1,1,4,0.392381767493347,0.477156044586394
"378",22,36,2,2,138,1,2,1,4,0.378970622613121,0.33362347471308
"379",22,21,2,1,139,1,1,1,4,0.398329788924769,0.327073767194669
"380",22,33,2,2,140,1,2,1,4,0.323393168822162,0.303357431289157
"381",22,26,2,1,141,3,2,0,1,0.842465645764376,0.807558143993841
"382",22,18,2,1,142,2,2,0,3,0.580744550696582,0.565609468597408
"383",22,34,2,1,143,3,1,1,2,0.882573319215691,0.917119465884099
"384",22,36,2,1,144,3,2,0,1,0.878282655321699,0.915999875750536
"385",22,21,2,1,145,3,1,1,2,0.709651463486082,0.744082289135711
"386",22,21,2,1,146,3,1,1,3,0.718428156228296,0.659407239158857
"387",22,36,2,2,147,1,2,1,5,0.416460938098341,0.546587455983968
"388",22,36,2,2,148,3,1,0,2,0.951828307135463,0.957100293675907
"389",22,21,2,2,149,2,2,1,3,0.610958635977324,0.597187264343355
"390",22,33,2,2,150,2,1,0,3,0.541912891412558,0.528090334292915
"391",22,26,2,2,151,2,2,1,3,0.593747582232113,0.547099251006846
"392",22,18,2,2,152,2,1,0,2,0.67476060160198,0.623896951095438
"393",22,34,2,2,153,3,2,1,3,0.805612864010556,0.79320947414062
"394",22,36,2,1,154,3,2,0,1,0.532517817531819,0.487191889906971
"395",22,21,2,1,155,2,1,1,4,0.544112173176634,0.617574235553955
"396",22,21,2,2,156,2,2,1,4,0.482389566305159,0.436485684928331
"397",22,36,2,2,157,1,1,0,4,0.531192595301393,0.572066224268302
"398",22,36,2,2,158,3,1,0,1,0.717671867763985,0.801826354883316
"399",22,21,2,2,159,2,2,1,4,0.796631027850663,0.830909645884808
"400",22,33,2,2,160,1,2,1,4,0.483235785338048,0.473374145295062
"401",22,26,2,2,161,1,2,1,4,0.350170868121828,0.38315986706247
"402",22,18,2,1,162,1,2,0,4,0.491128110239625,0.6302035075023
"403",22,34,2,2,163,1,2,1,5,0.41343826858379,0.370934933826886
"404",22,36,2,1,164,3,2,0,1,0.652283516128896,0.640049458658438
"405",22,21,2,2,165,1,2,1,5,0.319407780331194,0.218323490349737
"406",22,21,2,2,166,1,1,0,3,0.628484692464685,0.605785548377927
"407",22,36,2,2,167,2,2,1,3,0.625653484249335,0.574945596144258
"408",22,36,2,2,168,2,1,0,3,0.446538490875269,0.454914549036854
"409",22,21,2,1,169,3,1,1,3,0.789503204326458,0.679861528457935
"410",22,33,2,2,170,1,2,1,4,0.289819815318694,0.301145860681858
"411",22,26,2,2,171,2,2,1,4,0.582000737594634,0.54512907763545
"412",22,18,2,2,172,2,2,1,4,0.603348860289705,0.525710927521818
"413",22,34,2,1,173,2,2,0,2,0.719906761542448,0.783672355406808
"414",22,36,2,2,174,3,1,0,2,0.829785755226681,0.781180751051413
"415",22,21,2,2,175,2,2,1,3,0.644769485473077,0.563139169361935
"416",22,21,2,1,176,3,2,0,2,1.06212643643007,1.1139317958877
"417",22,36,2,2,177,3,1,0,1,0.408422182664191,0.374752523435117
"418",22,36,2,1,178,3,1,1,3,1.1213363322236,1.22038812065715
"419",22,21,2,1,179,2,2,0,2,0.493350428322584,0.421606793044185
"420",22,33,2,2,180,1,2,1,4,0.510187995227131,0.457790040618731
"421",22,26,2,1,181,1,1,1,5,0.3496495799857,0.404600539759648
"422",22,18,2,1,182,2,2,0,3,0.976289353518119,0.864684016624449
"423",22,34,2,2,183,1,1,0,4,0.43503616408596,0.472015955919369
"424",22,36,2,1,184,2,2,0,2,0.620231722986667,0.59149018722807
"425",22,21,2,2,185,1,2,1,5,0.365166036602704,0.316165647280546
"426",22,21,2,2,186,2,1,0,2,0.540723828929607,0.530758064775803
"427",22,36,2,2,187,1,2,1,4,0.521171135005082,0.517055562920836
"428",22,36,2,1,188,1,1,1,4,0.395326965572598,0.463903501816948
"429",22,21,2,1,189,2,2,0,3,0.924656167507707,0.882579617771818
"430",22,33,2,1,190,1,1,1,4,0.428010806598828,0.339948218524726
"431",22,26,2,2,191,1,2,1,4,0.401866532203424,0.423010274456306
"432",22,18,2,2,192,2,1,0,3,0.79389360714996,0.86016895968787
"433",22,34,2,1,193,3,1,1,3,0.928627257250954,0.889835258610534
"434",22,36,2,1,194,3,1,1,2,0.84337862809993,0.828444581058978
"435",22,21,2,2,195,2,2,1,3,0.572606488074749,0.497474963092598
"436",22,21,2,1,196,2,1,1,3,0.659655713487623,0.685799689276622
"437",22,36,2,1,197,1,1,1,4,0.324361612648421,0.352806773202973
"438",22,36,2,2,198,1,2,1,4,0.342225779726153,0.382540647075848
"439",22,21,2,2,199,2,1,0,3,0.941787430472853,0.975062535351142
"440",22,33,2,2,200,1,2,1,4,0.541781793993155,0.669764595603582
"441",22,26,2,1,201,3,1,1,2,0.59138508917256,0.665646584256498
"442",22,18,2,1,202,2,1,1,3,0.508958061396851,0.416769863463209
"443",22,34,2,1,203,3,2,0,1,1.31227191778113,1.36908065353587
"444",22,36,2,2,204,3,2,1,3,0.934520401775808,0.889181221917003
"445",22,21,2,1,205,2,1,1,3,0.758775979156502,0.770622240649623
"446",22,21,2,1,206,3,2,0,2,0.462128051476341,0.497170919183354
"447",22,36,2,2,207,2,1,0,2,0.663126498802077,0.632969671676988
"448",22,36,2,2,208,3,1,0,1,0.989334110893855,0.952574482174398
"449",22,21,2,1,209,2,1,1,3,0.663880740878259,0.711617755332221
"450",22,33,2,1,210,2,1,1,4,0.302690200072957,0.379501834386431
"451",22,26,2,1,211,1,1,1,5,0.607737972199627,0.619494738565438
"452",22,18,2,2,212,3,2,1,2,1.14614444011125,1.07333702393061
"453",22,34,2,2,213,3,2,1,3,0.799080012166685,0.789318936433604
"454",22,36,2,1,214,2,1,1,4,0.698949228673101,0.688175121730896
"455",22,21,2,2,215,3,1,0,2,0.79150961760026,0.877503100699373
"456",22,21,2,1,216,3,1,1,2,0.761140973155545,0.728404945845536
"457",22,36,2,2,217,1,2,1,5,0.239157349512896,0.287030245147447
"458",22,36,2,2,218,2,2,1,4,0.579412317072515,0.570209646414739
"459",22,21,2,1,219,2,2,0,2,0.633781261657657,0.542232511802789
"460",22,33,2,2,220,3,2,1,2,0.723994587956197,0.779502356791597
"461",22,26,2,1,221,1,1,1,4,0.319570868683846,0.369865123445886
"462",22,18,2,2,222,1,2,1,4,0.378636470774385,0.377801653154114
"463",22,34,2,2,223,3,1,0,1,0.415283467241556,0.354236727914456
"464",22,36,2,1,224,2,2,0,3,0.661657381176017,0.746799218339607
"465",22,21,2,2,225,2,1,0,2,0.741212243348062,0.753642777674557
"466",22,21,2,1,226,1,1,1,4,0.257281053096338,0.216556839620376
"467",22,36,2,2,227,1,2,1,5,0.633709742635892,0.671241871969662
"468",22,36,2,2,228,2,1,0,3,0.796149683973728,0.789943641056224
"469",22,21,2,1,229,3,1,1,3,0.604313789152376,0.680404448850418
"470",22,33,2,2,230,2,1,0,2,0.663331404445446,0.566061323028111
"471",22,26,2,2,231,3,1,0,1,1.68165961594467,1.68686258561024
"472",22,18,2,1,232,2,2,0,3,0.7391761129827,0.700980582837237
"473",22,34,2,1,233,2,1,1,3,0.325180697495555,0.370364444383938
"474",22,36,2,1,234,3,2,0,2,1.29067165395557,1.30933840300067
"475",22,21,2,2,235,3,1,0,1,0.452495940081917,0.511020669826429
"476",22,21,2,2,236,1,2,1,5,0.366478785661171,0.386493151946478
"477",22,36,2,1,237,3,2,0,2,1.37131085570861,1.31248871847223
"478",22,36,2,2,238,2,2,1,3,0.61832014131514,0.684987203228004
"479",22,21,2,1,239,3,1,1,3,0.906088438549975,0.865345018243451
"480",22,33,2,1,240,3,2,0,2,0.93581664446197,0.941784605448553
"481",21,26,1,2,1,3,2,1,3,0.741085167347784,0.645581909915182
"482",21,34,1,2,2,3,2,1,3,0.600584303321001,0.519208935205966
"483",21,24,1,1,3,3,1,1,2,0.852047014506837,0.81040414947972
"484",21,19,1,2,4,3,1,0,1,0.833526302814717,0.807086695350563
"485",21,38,1,1,5,3,1,1,2,0.889916439577888,0.835928211026502
"486",21,35,1,1,6,1,1,1,4,0.308384712998421,0.365552943189338
"487",21,21,1,2,7,1,2,1,4,0.371840002022067,0.331769922207177
"488",21,19,1,1,8,3,2,0,1,1.04276411503646,1.0023875885345
"489",21,23,1,1,9,2,2,0,2,0.875204429357557,0.85589299836784
"490",21,29,1,2,10,2,2,1,4,0.832712112716213,0.844754190056825
"491",21,26,1,2,11,3,2,1,3,0.708235124743015,0.733161161142997
"492",21,34,1,1,12,3,2,0,2,0.437024380880592,0.454308691292302
"493",21,24,1,2,13,2,2,1,4,0.676157723341658,0.608183597717906
"494",21,19,1,1,14,2,1,1,3,0.54885186210078,0.544632926795612
"495",21,38,1,1,15,3,1,1,3,0.847609098950703,0.818680043110978
"496",21,35,1,2,16,1,2,1,4,0.502402004617772,0.52873398303239
"497",21,21,1,2,17,2,2,1,4,0.603982848931876,0.523064188357818
"498",21,19,1,2,18,1,2,1,5,0.466293513558702,0.480477980358121
"499",21,23,1,2,19,1,1,0,4,0.472040449528924,0.434247748664259
"500",21,29,1,1,20,1,2,0,3,0.506793199579414,0.528641195636217
"501",21,26,1,2,21,3,1,0,2,1.47078951117439,1.4726950216017
"502",21,34,1,1,22,1,1,1,5,0.541093544724325,0.598729682822406
"503",21,24,1,1,23,2,2,0,2,0.752621500101958,0.809591505591406
"504",21,19,1,2,24,2,2,1,3,0.600915970300735,0.604518426242792
"505",21,38,1,2,25,1,2,1,5,0.404109644407304,0.442713228596459
"506",21,35,1,2,26,3,1,0,2,1.20129366475662,1.20989429863092
"507",21,21,1,1,27,2,2,0,3,0.56014982191013,0.537470789227043
"508",21,19,1,1,28,2,1,1,3,0.630509226543864,0.521325014930061
"509",21,23,1,1,29,2,1,1,4,0.52417351799345,0.472663096494102
"510",21,29,1,1,30,2,2,0,3,0.820824141564799,0.768459300537563
"511",21,26,1,1,31,3,1,1,2,0.723702256483957,0.641710324839492
"512",21,34,1,1,32,1,1,1,5,0.334094204481895,0.285126537619484
"513",21,24,1,2,33,1,2,1,5,0.277486771560722,0.285113744041988
"514",21,19,1,2,34,1,2,1,4,0.435670939526186,0.485577674604398
"515",21,38,1,1,35,2,2,0,3,0.916574204260798,0.917647242491639
"516",21,35,1,2,36,2,2,1,4,0.651500859281101,0.736934284785822
"517",21,21,1,1,37,3,2,0,2,1.58632948938541,1.64205354364117
"518",21,19,1,2,38,1,2,1,5,0.587229246839633,0.593558620548435
"519",21,23,1,2,39,3,2,1,3,0.830871004238574,0.806361005057487
"520",21,29,1,1,40,2,1,1,4,0.598246209815559,0.660673748245144
"521",21,26,1,2,41,2,2,1,3,0.43048081254266,0.340320372626517
"522",21,34,1,2,42,2,2,1,4,0.640418244185496,0.679760230036672
"523",21,24,1,1,43,2,2,0,3,0.611245550208996,0.690451793657041
"524",21,19,1,1,44,1,1,1,5,0.533839722851672,0.460308556246294
"525",21,38,1,1,45,3,1,1,3,0.565827261115781,0.603877413875469
"526",21,35,1,1,46,3,1,1,2,1.00587617838221,1.03612129588749
"527",21,21,1,2,47,3,1,0,1,1.20607447321301,1.16135759089487
"528",21,19,1,2,48,2,1,0,3,0.76086773203347,0.723894435408108
"529",21,23,1,1,49,1,1,1,5,0.369042218426625,0.374960931593019
"530",21,29,1,1,50,2,2,0,2,1.01057247061795,0.930823558410796
"531",21,26,1,2,51,3,1,0,2,1.75675969366807,1.67358858788817
"532",21,34,1,1,52,3,2,0,2,1.17204891975699,1.14521123972123
"533",21,24,1,1,53,2,1,1,4,0.672109198614731,0.698415828051786
"534",21,19,1,1,54,2,1,1,3,0.585304473333351,0.662674959028483
"535",21,38,1,1,55,3,1,1,2,0.951722614764135,0.971441748797498
"536",21,35,1,2,56,3,1,0,2,0.989492202559257,0.991318399139308
"537",21,21,1,1,57,2,2,0,3,0.620103158853988,0.684907200754257
"538",21,19,1,1,58,2,1,1,3,0.592827984103687,0.557034500183492
"539",21,23,1,1,59,1,2,0,4,0.573722208332706,0.606997442511855
"540",21,29,1,2,60,2,1,0,2,0.61005995015939,0.634344010078118
"541",21,26,1,1,61,1,1,1,4,0.277467367183405,0.299053058405531
"542",21,34,1,1,62,1,1,1,4,0.29969891260679,0.286397936543267
"543",21,24,1,1,63,3,1,1,2,0.808810483535939,0.79701313247941
"544",21,19,1,2,64,2,2,1,3,0.759829352989261,0.860867636791617
"545",21,38,1,2,65,2,1,0,2,0.883876799169199,0.837243366455826
"546",21,35,1,1,66,2,1,1,3,0.3604737155688,0.317627406384754
"547",21,21,1,1,67,2,1,1,3,0.710114639417652,0.669118767182139
"548",21,19,1,2,68,2,1,0,3,0.681452973417924,0.711752294038488
"549",21,23,1,1,69,1,1,1,4,0.37182345800457,0.40982166016465
"550",21,29,1,2,70,3,2,1,2,0.783214137994336,0.828862221206549
"551",21,26,1,1,71,3,1,1,2,0.990558763153481,0.994141168870683
"552",21,34,1,2,72,3,1,0,2,0.766977516951211,0.846952737115844
"553",21,24,1,1,73,1,2,0,3,0.590002133019945,0.624680491640226
"554",21,19,1,1,74,3,1,1,3,0.57784694118683,0.514466220108036
"555",21,38,1,2,75,2,1,0,3,0.599348144240223,0.658474188991536
"556",21,35,1,1,76,1,1,1,4,0.309084443975534,0.343072411025951
"557",21,21,1,1,77,1,1,1,5,0.355847282531535,0.349811821500231
"558",21,19,1,2,78,3,2,1,2,0.745318556025591,0.700543742832861
"559",21,23,1,1,79,1,2,0,3,0.651206837900356,0.610616746008135
"560",21,29,1,2,80,2,2,1,3,0.630202736309324,0.594249524447009
"561",21,26,1,1,81,2,2,0,3,0.689906237083869,0.731123064797741
"562",21,34,1,2,82,1,2,1,4,0.483028089249755,0.478580193186744
"563",21,24,1,2,83,1,2,1,5,0.39413634378352,0.388581622002641
"564",21,19,1,1,84,2,1,1,4,0.522039920037108,0.511253384865803
"565",21,38,1,1,85,3,1,1,3,0.714811284459626,0.769652163294949
"566",21,35,1,2,86,2,1,0,2,0.553836611588767,0.565497822198038
"567",21,21,1,2,87,1,2,1,5,0.433194515471834,0.388185569102007
"568",21,19,1,1,88,3,2,0,2,0.850182059344063,0.873921506951192
"569",21,23,1,2,89,3,1,0,1,1.09850982755891,1.12137116717302
"570",21,29,1,1,90,1,2,0,4,0.480442417136769,0.529942161626811
"571",21,26,1,1,91,3,1,1,2,1.18084329939724,1.17108473154546
"572",21,34,1,2,92,3,1,0,2,0.944410128184944,0.87734517438796
"573",21,24,1,1,93,2,2,0,2,0.609950329820411,0.606917629000829
"574",21,19,1,2,94,2,2,1,3,0.630495832538602,0.625615451020353
"575",21,38,1,2,95,3,1,0,1,0.526459588469446,0.532027356820783
"576",21,35,1,2,96,2,2,1,3,0.482247748856978,0.443315835250151
"577",21,21,1,2,97,2,2,1,4,0.578298959084919,0.474628610991532
"578",21,19,1,2,98,3,2,1,3,0.737084728105201,0.812694853003542
"579",21,23,1,2,99,1,2,1,5,0.397983950004132,0.362289726682779
"580",21,29,1,2,100,1,2,1,4,0.453497233293304,0.527847979810006
"581",21,26,1,1,101,3,2,0,1,1.32737262537993,1.32650098934995
"582",21,34,1,1,102,1,2,0,4,0.456431527731981,0.42712897039556
"583",21,24,1,1,103,3,1,1,2,0.698869993134332,0.643874263088414
"584",21,19,1,1,104,1,2,0,3,0.552866499464612,0.530670856451761
"585",21,38,1,1,105,3,1,1,3,0.691160653745031,0.738234941043865
"586",21,35,1,2,106,3,1,0,2,1.57249946716841,1.6957539838163
"587",21,21,1,1,107,2,2,0,3,0.397944305744585,0.43455027270977
"588",21,19,1,2,108,2,2,1,4,0.590308165611837,0.495755216436532
"589",21,23,1,1,109,3,1,1,3,0.6005456246233,0.618740293067667
"590",21,29,1,1,110,3,2,0,1,1.1057480044356,1.11279535989111
"591",21,26,1,1,111,1,1,1,4,0.428406968256541,0.450432652232547
"592",21,34,1,1,112,1,1,1,4,0.321996711047614,0.280636944255725
"593",21,24,1,2,113,2,1,0,3,0.844054861928867,0.857991038210081
"594",21,19,1,2,114,1,2,1,4,0.334059798978997,0.35790825061517
"595",21,38,1,2,115,1,2,1,4,0.276833726687754,0.282236792726775
"596",21,35,1,2,116,3,2,1,2,0.702204288428471,0.755076388774529
"597",21,21,1,2,117,1,2,1,4,0.366350939522292,0.401234725389932
"598",21,19,1,2,118,1,2,1,4,0.372550346487576,0.41802295435676
"599",21,23,1,1,119,1,1,1,5,0.312515820996668,0.28631610003796
"600",21,29,1,1,120,2,2,0,3,0.835610512248275,0.869004894512309
"601",21,26,1,2,121,2,1,0,2,0.729424092385047,0.810104650579925
"602",21,34,1,1,122,3,1,1,2,1.16008256122208,1.19287931152087
"603",21,24,1,2,123,3,1,0,2,1.55538095605097,1.57482337743236
"604",21,19,1,2,124,3,1,0,1,0.552778593447815,0.528836279209002
"605",21,38,1,2,125,1,1,0,4,0.634814315705194,0.572873140234451
"606",21,35,1,2,126,1,2,1,4,0.409107002027872,0.387341269572201
"607",21,21,1,1,127,3,2,0,1,0.909082564425989,0.910655107361
"608",21,19,1,1,128,3,2,0,1,1.21221496635555,1.18385344147377
"609",21,23,1,2,129,1,2,1,5,0.304882591661561,0.26393525950488
"610",21,29,1,1,130,1,1,1,4,0.484553482866897,0.456934744871332
"611",21,26,1,1,131,1,1,1,5,0.459275356921127,0.502366805906152
"612",21,34,1,1,132,2,1,1,4,0.555240154850291,0.464694222192568
"613",21,24,1,2,133,1,2,1,4,0.333763158648932,0.321462642278364
"614",21,19,1,1,134,3,1,1,3,0.77152127210979,0.794239721059567
"615",21,38,1,2,135,3,1,0,2,1.19745013612112,1.18546363015905
"616",21,35,1,1,136,3,1,1,3,1.00336696330026,0.965345327433586
"617",21,21,1,2,137,2,1,0,2,0.67078032850452,0.615752661911763
"618",21,19,1,2,138,2,1,0,3,0.814850102430062,0.779761976266307
"619",21,23,1,2,139,1,2,1,4,0.40198009134155,0.466243930518329
"620",21,29,1,2,140,1,2,1,5,0.412828336187726,0.37835729214089
"621",21,26,1,2,141,2,2,1,3,0.503697363876901,0.442120150108083
"622",21,34,1,2,142,3,2,1,2,0.482445247167788,0.586656640739977
"623",21,24,1,2,143,2,2,1,4,0.729658396901966,0.794198522184282
"624",21,19,1,1,144,2,1,1,4,0.62329984909491,0.573440951333039
"625",21,38,1,2,145,3,2,1,2,0.661042920831067,0.614560136670209
"626",21,35,1,2,146,1,1,0,4,0.612550261870963,0.5941129887075
"627",21,21,1,1,147,2,2,0,3,0.78020160003706,0.803215683788899
"628",21,19,1,2,148,3,2,1,2,0.890596150220593,0.923836944731237
"629",21,23,1,1,149,3,1,1,2,0.777269389065663,0.856796536028433
"630",21,29,1,1,150,1,1,1,4,0.506425638419472,0.550558010588372
"631",21,26,1,2,151,3,2,1,2,0.833367402555015,0.861550734998261
"632",21,34,1,1,152,3,2,0,2,1.0596711413064,1.03924667104038
"633",21,24,1,1,153,1,1,1,4,0.196645865588539,0.215082816133242
"634",21,19,1,2,154,2,2,1,3,0.450543544629124,0.530351821937808
"635",21,38,1,2,155,2,1,0,2,0.426347105254596,0.361804091582276
"636",21,35,1,1,156,2,1,1,3,0.592681867315204,0.671662493560672
"637",21,21,1,1,157,2,2,0,2,0.603659197515154,0.578560381732869
"638",21,19,1,2,158,2,2,1,3,0.653632766242505,0.632558719230056
"639",21,23,1,2,159,3,2,1,2,0.898759531955336,0.91026346812604
"640",21,29,1,1,160,3,1,1,2,0.421620258006554,0.446635647682845
"641",21,26,1,2,161,3,2,1,2,0.657463433225797,0.678979700714852
"642",21,34,1,2,162,3,1,0,1,1.02700004668383,1.10895957551849
"643",21,24,1,1,163,1,1,1,4,0.278786865170212,0.181310140609298
"644",21,19,1,2,164,1,2,1,5,0.471046548771869,0.438815099698328
"645",21,38,1,2,165,3,1,0,1,0.481331951446073,0.57743009413822
"646",21,35,1,2,166,1,2,1,5,0.387419177381233,0.527013041797871
"647",21,21,1,1,167,1,1,1,5,0.429804840093514,0.448077273296286
"648",21,19,1,1,168,3,1,1,2,0.924096932783792,0.887205785873571
"649",21,23,1,2,169,2,2,1,3,0.642602454169734,0.627138171321745
"650",21,29,1,1,170,3,2,0,1,1.35395858127924,1.27825275867435
"651",21,26,1,1,171,3,2,0,2,0.828088001161289,0.819332177388619
"652",21,34,1,1,172,3,1,1,2,1.01597925242471,0.971212774323994
"653",21,24,1,2,173,2,1,0,2,0.677227527615914,0.698865865423236
"654",21,19,1,2,174,2,1,0,3,0.478761838960839,0.398141675119637
"655",21,38,1,2,175,2,1,0,2,1.00796685531712,1.05748657319759
"656",21,35,1,2,176,3,1,0,2,1.32343584577173,1.35814150318507
"657",21,21,1,2,177,1,2,1,5,0.434463687753834,0.433784801817093
"658",21,19,1,1,178,3,2,0,2,1.18600904634181,1.17946621933727
"659",21,23,1,2,179,1,1,0,3,0.39651083872721,0.432298092126943
"660",21,29,1,1,180,3,1,1,3,0.969863155703654,1.04882862665084
"661",21,26,1,1,181,1,1,1,5,0.417640865808221,0.431587581153021
"662",21,34,1,2,182,2,1,0,3,0.570749787814989,0.509570283102087
"663",21,24,1,2,183,1,2,1,4,0.238041831711773,0.212593943724828
"664",21,19,1,2,184,1,2,1,4,0.344415525167339,0.401637139579754
"665",21,38,1,1,185,2,1,1,3,0.615587684846263,0.593693732554732
"666",21,35,1,2,186,1,2,1,5,0.432779051965486,0.355806652971721
"667",21,21,1,2,187,1,2,1,5,0.498457254347671,0.512110479337165
"668",21,19,1,2,188,3,1,0,2,1.58145156566089,1.58192224393733
"669",21,23,1,1,189,3,1,1,2,0.629165154413181,0.600103926026338
"670",21,29,1,1,190,2,2,0,2,0.755593408356713,0.66877132253772
"671",21,26,1,1,191,1,1,1,4,0.219328204013871,0.168884434859667
"672",21,34,1,1,192,1,1,1,5,0.387867792782583,0.362261030619644
"673",21,24,1,2,193,1,2,1,5,0.460102527978783,0.437052605636114
"674",21,19,1,1,194,2,1,1,4,0.80798012902712,0.830914186817344
"675",21,38,1,1,195,1,1,1,4,0.27792331991012,0.214968297403127
"676",21,35,1,1,196,1,2,0,3,0.439340822011546,0.468444257724362
"677",21,21,1,1,197,3,1,1,3,0.804967619224233,0.864046596159863
"678",21,19,1,1,198,2,1,1,4,0.389524444183222,0.31678934131058
"679",21,23,1,2,199,2,1,0,2,0.548036902584127,0.589732526205009
"680",21,29,1,2,200,3,1,0,2,1.56815141905109,1.59158192797296
"681",21,26,1,2,201,1,2,1,5,0.305822741411488,0.340194286700285
"682",21,34,1,2,202,3,1,0,2,1.2943132333105,1.24955676728079
"683",21,24,1,2,203,1,2,1,4,0.255543825336574,0.345734590361878
"684",21,19,1,2,204,2,1,0,2,0.739079646747481,0.784267647300627
"685",21,38,1,1,205,1,1,1,4,0.477400895797496,0.433575446800791
"686",21,35,1,2,206,1,1,0,3,0.682071807197916,0.718524351270935
"687",21,21,1,2,207,1,2,1,5,0.366538486665271,0.329680444721439
"688",21,19,1,2,208,2,1,0,2,0.53860486066015,0.507653169531245
"689",21,23,1,1,209,2,1,1,4,0.484573821835156,0.525851635583176
"690",21,29,1,1,210,3,2,0,1,0.938087599316713,0.945307519884743
"691",21,26,1,2,211,1,2,1,4,0.504039877374768,0.576434102738613
"692",21,34,1,2,212,1,1,0,4,0.601137185779383,0.585886670861017
"693",21,24,1,1,213,2,1,1,3,0.65523212908114,0.624845436945239
"694",21,19,1,2,214,3,2,1,3,0.920931877584392,0.924368867301297
"695",21,38,1,2,215,1,2,1,4,0.353177628752154,0.286984796238442
"696",21,35,1,2,216,3,1,0,2,1.05047821894809,1.00786579338252
"697",21,21,1,2,217,2,2,1,3,0.706358899672112,0.766512326128448
"698",21,19,1,2,218,3,2,1,2,0.925471928746203,0.922351560471812
"699",21,23,1,1,219,2,2,0,3,0.782080500352475,0.697361125673299
"700",21,29,1,1,220,2,2,0,3,0.73094995657301,0.679900678896061
"701",21,26,1,1,221,2,1,1,4,0.483180682369189,0.455817256628747
"702",21,34,1,1,222,2,1,1,4,0.738175513486016,0.735582751749548
"703",21,24,1,1,223,1,1,1,5,0.379436468244227,0.439790475182487
"704",21,19,1,2,224,1,2,1,4,0.534238999020477,0.54674348692053
"705",21,38,1,2,225,2,2,1,3,0.61467980019105,0.595037891873965
"706",21,35,1,1,226,1,1,1,5,0.443535602354374,0.470022403440643
"707",21,21,1,1,227,1,1,1,4,0.453336968743242,0.447963381709711
"708",21,19,1,1,228,2,2,0,3,0.677219474326677,0.581437887875155
"709",21,23,1,1,229,1,1,1,5,0.301092707658971,0.329141870428577
"710",21,29,1,1,230,2,2,0,3,0.308784304319161,0.341509460233985
"711",21,26,1,1,231,2,2,0,3,0.883873897385012,0.928174687490169
"712",21,34,1,1,232,3,2,0,2,1.00227491843087,1.02134374935166
"713",21,24,1,1,233,2,2,0,2,0.659717931645849,0.636022558246502
"714",21,19,1,2,234,1,2,1,4,0.431399911151399,0.428400384428355
"715",21,38,1,1,235,1,1,1,5,0.394233402175494,0.373104442860292
"716",21,35,1,1,236,1,1,1,5,0.302578756464822,0.30202502680671
"717",21,21,1,1,237,3,2,0,1,0.337897607209492,0.321180304812351
"718",21,19,1,2,238,3,2,1,2,0.89431982314889,0.882894104175044
"719",21,23,1,2,239,2,1,0,2,0.878461572873568,0.918263284484474
"720",21,29,1,2,240,3,2,1,3,0.705459083428557,0.669946228967955
"721",20,30,2,1,1,2,2,0,2,0.824339459669937,0.842230975815185
"722",20,22,2,2,2,2,1,0,3,0.817600912287059,0.823743448609853
"723",20,28,2,1,3,3,1,1,3,0.49897792382705,0.477198151129386
"724",20,30,2,1,4,2,1,1,4,0.539067559691124,0.518917533550054
"725",20,23,2,2,5,3,2,1,2,1.33980689416666,1.35914768950456
"726",20,38,2,1,6,2,1,1,3,0.664147804702696,0.761593934441336
"727",20,36,2,2,7,2,2,1,3,0.610526199110106,0.667811978326432
"728",20,39,2,2,8,3,1,0,2,1.37660580644855,1.44567946596679
"729",20,25,2,1,9,1,1,1,4,0.419510249773321,0.420176525783557
"730",20,32,2,1,10,2,2,0,2,0.795984173402457,0.851955910490164
"731",20,30,2,1,11,1,1,1,5,0.374450956828367,0.406570748080614
"732",20,22,2,1,12,3,2,0,1,0.750203205961421,0.714757241624125
"733",20,28,2,1,13,3,1,1,2,0.930228940311522,0.972601549217365
"734",20,30,2,1,14,3,1,1,3,0.764213455025938,0.772614259680042
"735",20,23,2,2,15,1,2,1,5,0.395681279985108,0.355586447690958
"736",20,38,2,2,16,2,1,0,3,0.64806131914951,0.700658022967587
"737",20,36,2,1,17,2,1,1,4,0.537511969784355,0.514842127235893
"738",20,39,2,1,18,2,1,1,4,0.48354477908096,0.405168956001604
"739",20,25,2,1,19,2,2,0,3,0.528663526609981,0.573634472591281
"740",20,32,2,2,20,1,2,1,4,0.562575828244162,0.555174633325676
"741",20,30,2,2,21,3,1,0,1,0.600142701039761,0.684138409296717
"742",20,22,2,1,22,2,1,1,4,0.733555190421884,0.695751559502281
"743",20,28,2,2,23,2,2,1,4,0.404088310405936,0.393064874588174
"744",20,30,2,1,24,2,2,0,2,0.831098465201805,0.778741682849535
"745",20,23,2,2,25,3,2,1,2,1.13591531221674,1.12528502867588
"746",20,38,2,1,26,1,2,0,4,0.676455592160083,0.728828069085501
"747",20,36,2,1,27,3,2,0,1,0.885938302880014,0.836469975505622
"748",20,39,2,2,28,3,1,0,2,1.51762395297551,1.54608406028186
"749",20,25,2,2,29,1,2,1,4,0.292739713475479,0.244290330523607
"750",20,32,2,1,30,3,2,0,2,0.80292680911735,0.776632399028561
"751",20,30,2,2,31,1,2,1,4,0.38464918262406,0.38278958526562
"752",20,22,2,1,32,1,1,1,4,0.457492113851111,0.450863630832011
"753",20,28,2,1,33,1,1,1,5,0.547399753016461,0.541722993778182
"754",20,30,2,1,34,3,2,0,2,0.858332186376965,0.86459103332188
"755",20,23,2,1,35,2,1,1,4,0.707578985806973,0.689598533335973
"756",20,38,2,1,36,3,1,1,2,0.568249247382219,0.602652463819745
"757",20,36,2,2,37,3,1,0,1,0.666997258477948,0.635900999209744
"758",20,39,2,2,38,2,2,1,3,0.621526465720395,0.626878694071494
"759",20,25,2,2,39,1,2,1,4,0.476451487505165,0.585852483098192
"760",20,32,2,2,40,2,1,0,3,0.579064034854685,0.546142962140439
"761",20,30,2,1,41,3,1,1,2,0.557956979356565,0.584533211028989
"762",20,22,2,2,42,3,2,1,2,0.742300758580421,0.732457878379454
"763",20,28,2,1,43,2,1,1,4,0.512114591185639,0.492284159469987
"764",20,30,2,2,44,3,1,0,2,0.848020313821258,0.821158290176572
"765",20,23,2,2,45,3,2,1,3,0.729555452591584,0.741584239470111
"766",20,38,2,1,46,1,1,1,4,0.502972054293717,0.487640190461385
"767",20,36,2,2,47,1,1,0,4,0.378385246576986,0.408149139577768
"768",20,39,2,1,48,3,1,1,3,0.48144993574352,0.414844383644246
"769",20,25,2,2,49,1,2,1,5,0.466189002076077,0.472072541267914
"770",20,32,2,1,50,2,2,0,2,0.918359462083417,0.961519259372329
"771",20,30,2,2,51,2,2,1,3,0.623164644092957,0.597249178148053
"772",20,22,2,1,52,2,2,0,3,0.614025502729214,0.595844926501827
"773",20,28,2,1,53,3,2,0,2,1.14875402850641,1.16000738410151
"774",20,30,2,1,54,3,2,0,2,1.34009170487056,1.31944296507059
"775",20,23,2,2,55,2,1,0,3,0.67595345619144,0.668598668755579
"776",20,38,2,2,56,3,1,0,2,0.549518308467455,0.445314334013979
"777",20,36,2,2,57,3,2,1,2,0.8230383993111,0.904851147502384
"778",20,39,2,2,58,1,2,1,5,0.379433488794809,0.383189925007782
"779",20,25,2,1,59,1,1,1,5,0.328797624110677,0.261733521483493
"780",20,32,2,2,60,1,2,1,4,0.379046163177503,0.407817433982497
"781",20,30,2,1,61,1,1,1,4,0.396432001462653,0.337985287138787
"782",20,22,2,2,62,3,1,0,2,0.624119425692037,0.652188339750134
"783",20,28,2,1,63,2,2,0,3,0.617471830377308,0.561909905381964
"784",20,30,2,2,64,3,1,0,1,1.32128843563479,1.28594323260007
"785",20,23,2,1,65,3,1,1,3,0.65235614662969,0.658130637352784
"786",20,38,2,2,66,2,2,1,3,0.724922382715156,0.663992599524525
"787",20,36,2,1,67,2,1,1,3,0.810308489777199,0.890526808943054
"788",20,39,2,1,68,3,2,0,2,1.47471374477342,1.42204168799824
"789",20,25,2,2,69,1,2,1,4,0.293648043186658,0.258898530856631
"790",20,32,2,1,70,3,2,0,2,1.45502374573811,1.54496152384645
"791",20,30,2,1,71,3,2,0,2,1.04882507288766,1.09517955588644
"792",20,22,2,1,72,2,2,0,2,0.552049068762157,0.549929613187008
"793",20,28,2,2,73,1,1,0,3,0.675039501257108,0.686206785777655
"794",20,30,2,2,74,3,1,0,2,1.15412889250219,1.12108772043227
"795",20,23,2,1,75,2,2,0,3,0.573409567848593,0.523830437002054
"796",20,38,2,1,76,1,1,1,5,0.446512917477243,0.433375895407655
"797",20,36,2,2,77,1,2,1,5,0.505105988355496,0.530680596683321
"798",20,39,2,2,78,2,2,1,4,0.577280064865189,0.599858378213074
"799",20,25,2,2,79,1,2,1,4,0.286927523716228,0.336748976822294
"800",20,32,2,2,80,1,2,1,4,0.370085738840504,0.357418074041362
"801",20,30,2,1,81,2,2,0,3,0.593950380580199,0.612728090648531
"802",20,22,2,2,82,3,1,0,2,1.13112530283772,1.17771387792447
"803",20,28,2,2,83,2,2,1,3,0.646219008503785,0.646220937165396
"804",20,30,2,2,84,1,2,1,5,0.263296926312951,0.353356111629393
"805",20,23,2,1,85,1,2,0,3,0.660763587485727,0.664837740086863
"806",20,38,2,2,86,3,1,0,2,0.942917086570372,0.950820989792759
"807",20,36,2,1,87,1,1,1,5,0.463791503337796,0.436130691854106
"808",20,39,2,1,88,2,1,1,3,0.621275688158559,0.685876250351913
"809",20,25,2,1,89,1,2,0,4,0.647438050902033,0.652239206232707
"810",20,32,2,2,90,3,1,0,2,0.666855283275555,0.708725280416658
"811",20,30,2,1,91,2,2,0,3,0.747048918685725,0.79451376989216
"812",20,22,2,1,92,1,1,1,5,0.245327857162004,0.202382488700889
"813",20,28,2,1,93,1,1,1,4,0.377868223955594,0.318367232442419
"814",20,30,2,2,94,2,1,0,2,0.776644677600845,0.743108027010565
"815",20,23,2,1,95,2,1,1,3,0.647502952235366,0.74511407030884
"816",20,38,2,2,96,2,2,1,4,0.577292096911177,0.534217019957997
"817",20,36,2,2,97,1,1,0,4,0.498306506287522,0.501092233011358
"818",20,39,2,1,98,2,1,1,3,0.776144589945087,0.786259538549057
"819",20,25,2,1,99,3,1,1,2,0.29049293812905,0.285870998431922
"820",20,32,2,1,100,1,1,1,5,0.472129969074856,0.376798064840645
"821",20,30,2,2,101,1,2,1,5,0.332040375117026,0.318698246286516
"822",20,22,2,2,102,3,2,1,2,0.67352780399002,0.71104084109669
"823",20,28,2,1,103,1,1,1,4,0.312526938708955,0.34624549319548
"824",20,30,2,1,104,3,1,1,3,0.692669621705722,0.705912489208288
"825",20,23,2,2,105,2,2,1,3,0.662379680794482,0.650764158039308
"826",20,38,2,1,106,3,1,1,3,0.685669728143197,0.719971542590001
"827",20,36,2,2,107,1,2,1,4,0.392490847842217,0.369822429489725
"828",20,39,2,1,108,3,2,0,1,0.60351705217392,0.593829429126006
"829",20,25,2,2,109,1,2,1,4,0.371107095180583,0.392157184270363
"830",20,32,2,2,110,3,2,1,2,0.694642553374836,0.680281194306369
"831",20,30,2,2,111,1,1,0,3,0.461341993443375,0.453311453343581
"832",20,22,2,1,112,2,2,0,3,0.79962494150136,0.855411002988407
"833",20,28,2,1,113,3,2,0,1,1.60230728044079,1.64838629688592
"834",20,30,2,1,114,1,1,1,5,0.367798945139201,0.274881540648416
"835",20,23,2,2,115,2,2,1,3,0.536089207746537,0.591664574212618
"836",20,38,2,2,116,1,2,1,4,0.399969925413706,0.359664784668046
"837",20,36,2,1,117,3,2,0,2,0.947249258691367,0.987561474115013
"838",20,39,2,2,118,2,1,0,3,0.674199557416175,0.565699623399642
"839",20,25,2,1,119,3,2,0,2,1.01399147650966,0.991565699204749
"840",20,32,2,2,120,1,2,1,4,0.588815287388056,0.501766395845394
"841",20,30,2,1,121,1,1,1,5,0.34473269607597,0.380854223582872
"842",20,22,2,2,122,3,1,0,2,0.815520382819423,0.76059040093953
"843",20,28,2,1,123,1,1,1,4,0.418447548629996,0.461717250181478
"844",20,30,2,2,124,2,2,1,3,0.45713743992998,0.442138613006055
"845",20,23,2,2,125,1,1,0,4,0.461980029706374,0.498190779652989
"846",20,38,2,1,126,3,1,1,3,0.796095379135023,0.831189679755674
"847",20,36,2,1,127,3,1,1,3,0.616481381629322,0.531120757435677
"848",20,39,2,2,128,1,2,1,5,0.329830981063327,0.345667898931281
"849",20,25,2,1,129,2,2,0,2,0.876376979783033,0.812654468506978
"850",20,32,2,1,130,3,1,1,2,0.834017480559091,0.909665261056924
"851",20,30,2,2,131,2,1,0,3,0.717227961649717,0.72619060997347
"852",20,22,2,2,132,1,2,1,5,0.453303020653923,0.463375671607309
"853",20,28,2,2,133,3,1,0,1,1.12994863326368,1.07297449376126
"854",20,30,2,2,134,2,1,0,2,0.661035924286971,0.604090957845178
"855",20,23,2,1,135,3,2,0,2,0.971956479855856,0.926452458996581
"856",20,38,2,1,136,1,2,0,4,0.603544499950802,0.602740081805713
"857",20,36,2,1,137,3,1,1,3,0.764303440028831,0.774201035622169
"858",20,39,2,2,138,2,2,1,3,0.914045529159515,0.906014698687028
"859",20,25,2,2,139,1,1,0,4,0.514989297751686,0.578020268830728
"860",20,32,2,2,140,3,1,0,1,0.886674078388081,0.864715989510898
"861",20,30,2,1,141,2,1,1,3,0.533286169871286,0.498224776575948
"862",20,22,2,2,142,3,1,0,1,1.29620374203015,1.30204274538617
"863",20,28,2,1,143,2,1,1,4,0.526590522640595,0.534317040528751
"864",20,30,2,1,144,3,1,1,2,0.719374128802757,0.750443801767491
"865",20,23,2,1,145,3,1,1,3,0.593884037873303,0.630533830298973
"866",20,38,2,1,146,2,1,1,4,0.770908683809438,0.642401964492957
"867",20,36,2,1,147,3,2,0,2,0.468319968009257,0.495259963567136
"868",20,39,2,1,148,2,2,0,3,0.712389089277952,0.667369373937749
"869",20,25,2,2,149,2,1,0,3,0.406596873316308,0.413974054021561
"870",20,32,2,2,150,2,1,0,2,0.684115981358407,0.753004819388449
"871",20,30,2,2,151,3,1,0,1,1.39644156841998,1.36856728589472
"872",20,22,2,1,152,3,2,0,1,1.52718783331346,1.50966936446919
"873",20,28,2,1,153,3,2,0,2,0.700166160053915,0.676120410727749
"874",20,30,2,2,154,1,2,1,5,0.461887999139396,0.366676775456474
"875",20,23,2,1,155,1,1,1,5,0.518811149468143,0.426752822980165
"876",20,38,2,2,156,2,2,1,4,0.528782037205776,0.506530703940105
"877",20,36,2,1,157,3,2,0,2,1.05502131366301,1.1004221460716
"878",20,39,2,1,158,1,2,0,4,0.336044308113592,0.41617790280371
"879",20,25,2,2,159,1,2,1,5,0.284544462496152,0.333753003539298
"880",20,32,2,2,160,1,2,1,5,0.369211395990128,0.294874591072217
"881",20,30,2,1,161,3,2,0,2,0.960850044139309,1.0086698865793
"882",20,22,2,2,162,2,1,0,2,0.632540808893116,0.71486353058478
"883",20,28,2,2,163,1,1,0,3,0.586989613981655,0.487439523485906
"884",20,30,2,2,164,2,2,1,4,0.622055689868904,0.590426481536318
"885",20,23,2,2,165,3,1,0,1,0.800228111673437,0.747007862559972
"886",20,38,2,2,166,1,2,1,5,0.364953135042869,0.365926126616167
"887",20,36,2,1,167,2,2,0,3,0.692828089821533,0.709459211480404
"888",20,39,2,1,168,3,2,0,1,1.87069380007407,1.79887762926435
"889",20,25,2,2,169,1,2,1,5,0.334470798312955,0.341208199813883
"890",20,32,2,1,170,2,2,0,3,0.805649069185905,0.792795982303576
"891",20,30,2,1,171,2,2,0,3,0.630837343414868,0.731336227023715
"892",20,22,2,2,172,1,2,1,5,0.375685975933737,0.28882589941779
"893",20,28,2,1,173,3,2,0,1,1.42264133768785,1.38787776612997
"894",20,30,2,2,174,2,2,1,3,0.881384926277528,0.846733985784779
"895",20,23,2,1,175,1,1,1,4,0.364415374467688,0.393398606496533
"896",20,38,2,2,176,3,2,1,3,0.714247483962728,0.725826319983775
"897",20,36,2,1,177,1,1,1,4,0.50697223832801,0.488426204909321
"898",20,39,2,2,178,1,2,1,5,0.470446379772548,0.520720508037821
"899",20,25,2,2,179,1,1,0,3,0.302805710066212,0.327375881250063
"900",20,32,2,1,180,2,1,1,3,0.641061034347969,0.573478456948136
"901",20,30,2,2,181,1,2,1,4,0.51046455339789,0.527383198895013
"902",20,22,2,1,182,1,2,0,3,0.62830181800797,0.590796665411401
"903",20,28,2,2,183,2,1,0,3,0.665447588637465,0.688995300313896
"904",20,30,2,2,184,2,1,0,2,0.819791482408888,0.795715554083142
"905",20,23,2,1,185,1,1,1,4,0.41118366608164,0.365297892091126
"906",20,38,2,2,186,2,2,1,4,0.393893840164372,0.454897356339944
"907",20,36,2,1,187,1,1,1,4,0.384235364738327,0.353886476358814
"908",20,39,2,1,188,3,2,0,2,0.810539780384826,0.834666377993805
"909",20,25,2,2,189,3,2,1,3,0.470487069591442,0.509317950752973
"910",20,32,2,1,190,2,1,1,3,0.407716832064416,0.39057833501476
"911",20,30,2,1,191,1,1,1,4,0.371189154353358,0.307937030549234
"912",20,22,2,1,192,2,1,1,3,0.809587922345055,0.785663102520544
"913",20,28,2,2,193,2,2,1,3,0.635669514556135,0.557661681862488
"914",20,30,2,1,194,3,2,0,1,0.80326590887811,0.76415009733885
"915",20,23,2,2,195,1,2,1,4,0.518275211125332,0.601051323212715
"916",20,38,2,2,196,3,2,1,2,1.17235383661447,1.21939444779046
"917",20,36,2,2,197,1,2,1,5,0.429092685566327,0.422750209961274
"918",20,39,2,2,198,1,2,1,4,0.413709878293393,0.493216983982891
"919",20,25,2,1,199,3,1,1,2,0.885161741989702,0.815762693680981
"920",20,32,2,1,200,1,1,1,5,0.222161038669368,0.197470699287885
"921",20,30,2,1,201,1,1,1,5,0.444566897419657,0.385417524830574
"922",20,22,2,2,202,3,2,1,2,0.825403471177539,0.758257676227107
"923",20,28,2,2,203,3,2,1,2,0.581732211013291,0.49463358048759
"924",20,30,2,2,204,1,2,1,5,0.362869832226446,0.401848795634481
"925",20,23,2,1,205,2,1,1,4,0.728931796391366,0.675005854778472
"926",20,38,2,1,206,2,1,1,3,0.569053375835441,0.548127840244989
"927",20,36,2,1,207,2,2,0,2,0.650946977793333,0.638165133451182
"928",20,39,2,1,208,2,1,1,3,0.412757310259591,0.476083293196051
"929",20,25,2,1,209,2,2,0,2,0.844025391104916,0.791461039070774
"930",20,32,2,2,210,1,2,1,5,0.372619253406727,0.46929535030823
"931",20,30,2,2,211,3,2,1,2,1.28299060892272,1.26660429040817
"932",20,22,2,2,212,1,2,1,5,0.518489555491071,0.434760817339015
"933",20,28,2,2,213,1,2,1,4,0.390537032509979,0.391885178651939
"934",20,30,2,2,214,3,1,0,2,1.79831448430757,1.90330313081054
"935",20,23,2,1,215,2,1,1,3,0.849285239204569,0.824722801992718
"936",20,38,2,2,216,3,2,1,3,0.619615220274735,0.685839463508789
"937",20,36,2,1,217,2,2,0,2,0.819477695515106,0.820687416863864
"938",20,39,2,2,218,1,2,1,4,0.377068084889116,0.338909856268806
"939",20,25,2,2,219,1,2,1,4,0.318095055731774,0.330988268400397
"940",20,32,2,2,220,3,1,0,1,1.48361148692163,1.51106951858008
"941",20,30,2,1,221,2,2,0,2,0.622085464814824,0.713906878190114
"942",20,22,2,2,222,1,2,1,5,0.346173702390003,0.295139836517619
"943",20,28,2,1,223,3,1,1,2,0.81547301640377,0.805502448636081
"944",20,30,2,2,224,2,1,0,2,0.865396413076009,0.816244424367312
"945",20,23,2,2,225,2,1,0,3,0.741368842699043,0.728635509709912
"946",20,38,2,2,226,2,1,0,3,0.558007639032261,0.563394609656131
"947",20,36,2,2,227,2,2,1,3,0.582060672499575,0.489871690952589
"948",20,39,2,1,228,3,1,1,2,0.72129262615069,0.646581757926047
"949",20,25,2,2,229,2,1,0,3,0.756435823859338,0.656895003606126
"950",20,32,2,1,230,2,1,1,3,0.572640569769565,0.550815567526403
"951",20,30,2,2,231,3,2,1,2,0.781756167941832,0.805743026576022
"952",20,22,2,1,232,3,2,0,1,0.949648117868065,0.99667758363506
"953",20,28,2,2,233,1,2,1,5,0.421712379705915,0.383496678135818
"954",20,30,2,1,234,3,1,1,3,0.922428707690597,0.950279844388308
"955",20,23,2,2,235,2,1,0,2,0.629704683222186,0.685889212423586
"956",20,38,2,1,236,3,1,1,2,1.1843876342278,1.16142250156979
"957",20,36,2,1,237,1,1,1,4,0.37380913171017,0.409301455127921
"958",20,39,2,2,238,1,2,1,5,0.461325955008921,0.495859473809044
"959",20,25,2,2,239,1,2,1,5,0.53737791564213,0.522479410338257
"960",20,32,2,1,240,2,1,1,4,0.605188144903941,0.58669954758661
"961",19,31,1,1,1,2,1,1,4,0.684224684194549,0.559322555237488
"962",19,39,1,2,2,1,2,1,4,0.224943692015209,0.298618639756188
"963",19,39,1,2,3,2,2,1,4,0.816127121148196,0.820263980644369
"964",19,29,1,1,4,2,1,1,3,0.505067976784613,0.474029955367569
"965",19,29,1,2,5,1,2,1,5,0.449287541540791,0.362451406368672
"966",19,32,1,2,6,2,2,1,3,0.586610960058194,0.570877189332425
"967",19,24,1,1,7,3,2,0,1,0.705994734457198,0.704064628803023
"968",19,36,1,1,8,3,1,1,3,0.623000900181553,0.601676649679935
"969",19,30,1,2,9,3,2,1,2,0.813861150267281,0.786311876990156
"970",19,36,1,2,10,1,2,1,4,0.333202309035002,0.326922210446413
"971",19,31,1,1,11,3,1,1,3,0.78426468839521,0.907641319283084
"972",19,39,1,2,12,1,2,1,5,0.403101696542534,0.436020199691125
"973",19,39,1,2,13,1,1,0,4,0.667187639578759,0.636467101383107
"974",19,29,1,1,14,1,1,1,5,0.434186664946021,0.556054114579033
"975",19,29,1,2,15,1,2,1,5,0.382765039386157,0.343662740193637
"976",19,32,1,2,16,1,2,1,4,0.477306557517536,0.450909324801501
"977",19,24,1,2,17,1,2,1,5,0.461723075337797,0.413831374628073
"978",19,36,1,2,18,3,2,1,2,0.941948988660609,0.947473417695873
"979",19,30,1,1,19,2,2,0,2,0.796278932184779,0.83730275780288
"980",19,36,1,1,20,3,2,0,2,0.626561466225983,0.663801334607281
"981",19,31,1,1,21,1,1,1,4,0.335286439439385,0.405570225744798
"982",19,39,1,2,22,3,1,0,2,1.35485037989841,1.29658781182912
"983",19,39,1,1,23,3,1,1,2,1.11240178067516,1.08292881689244
"984",19,29,1,2,24,3,2,1,3,0.686714156068954,0.699423323375422
"985",19,29,1,1,25,2,2,0,3,0.665923216781943,0.745590119691575
"986",19,32,1,1,26,3,2,0,2,1.22095967025728,1.22701327828635
"987",19,24,1,2,27,3,1,0,2,0.711787684836971,0.701314549227543
"988",19,36,1,1,28,1,1,1,4,0.40859464233854,0.400170113964148
"989",19,30,1,2,29,3,1,0,1,1.01512597902527,1.02529339548216
"990",19,36,1,1,30,2,1,1,3,0.505368219091508,0.480457205582477
"991",19,31,1,1,31,2,1,1,4,0.773879522719609,0.779468740609259
"992",19,39,1,1,32,1,2,0,3,0.678696492321423,0.710211460344342
"993",19,39,1,1,33,2,1,1,4,0.556264101516318,0.553211454260747
"994",19,29,1,2,34,3,2,1,3,0.748697156755427,0.805315402174928
"995",19,29,1,2,35,3,1,0,1,1.59951601073805,1.6460486575545
"996",19,32,1,2,36,3,2,1,3,0.787480716846919,0.708876052821837
"997",19,24,1,1,37,1,1,1,5,0.431488921805736,0.435868204034932
"998",19,36,1,2,38,3,2,1,3,0.331329652472056,0.375761754815654
"999",19,30,1,1,39,2,1,1,3,0.534133475749175,0.657367933067574
"1000",19,36,1,1,40,1,1,1,4,0.384157543391926,0.330759333806712
"1001",19,31,1,1,41,2,1,1,3,0.606907957303135,0.703756401970935
"1002",19,39,1,1,42,1,1,1,4,0.372049618021333,0.387884723396671
"1003",19,39,1,2,43,2,2,1,3,0.662188013367192,0.631566046490804
"1004",19,29,1,2,44,3,1,0,2,0.713917062462172,0.766022608369464
"1005",19,29,1,1,45,2,1,1,4,0.51926142421623,0.47595553354965
"1006",19,32,1,1,46,2,2,0,2,0.732307514675096,0.765764764211679
"1007",19,24,1,2,47,1,2,1,5,0.433880324405193,0.439202182375747
"1008",19,36,1,1,48,1,1,1,5,0.302582053054259,0.343626485554177
"1009",19,30,1,2,49,2,2,1,4,0.349682222317797,0.26288560850806
"1010",19,36,1,2,50,2,1,0,2,0.518009399713844,0.472839246688458
"1011",19,31,1,2,51,2,2,1,4,0.555302506741363,0.527267121162885
"1012",19,39,1,1,52,3,2,0,2,0.840131788289857,0.807692521190661
"1013",19,39,1,2,53,2,2,1,3,0.621774874354444,0.602078443967551
"1014",19,29,1,2,54,2,2,1,4,0.599663556239344,0.54704028998259
"1015",19,29,1,1,55,3,1,1,2,0.965146966126921,0.956098461871263
"1016",19,32,1,2,56,1,2,1,4,0.429071659436283,0.438824255235735
"1017",19,24,1,1,57,2,2,0,2,0.618184738665514,0.639093150958432
"1018",19,36,1,2,58,3,1,0,1,0.951484303693778,0.930650143285604
"1019",19,30,1,1,59,3,2,0,2,0.746396323707512,0.723723199870494
"1020",19,36,1,1,60,1,1,1,5,0.370381910859887,0.347725186583628
"1021",19,31,1,1,61,2,1,1,3,0.631038655768218,0.552950059233021
"1022",19,39,1,1,62,2,1,1,4,0.589842394374896,0.482290130769562
"1023",19,39,1,1,63,2,1,1,4,0.742272138323444,0.743610976647987
"1024",19,29,1,1,64,1,2,0,3,0.471450403641625,0.393167621327009
"1025",19,29,1,1,65,1,1,1,4,0.403003431727459,0.40121886240771
"1026",19,32,1,1,66,3,1,1,2,0.771484281023982,0.745398757689368
"1027",19,24,1,2,67,3,2,1,3,0.833533845967914,0.869491328428542
"1028",19,36,1,2,68,1,2,1,4,0.414363175000511,0.385854632969234
"1029",19,30,1,1,69,1,2,0,4,0.699218978786691,0.704496149100547
"1030",19,36,1,2,70,1,2,1,4,0.460104899962176,0.520255975129767
"1031",19,31,1,1,71,2,1,1,3,0.688369578925179,0.674627233270394
"1032",19,39,1,1,72,3,2,0,2,0.264852068195128,0.182131642553322
"1033",19,39,1,1,73,2,1,1,4,0.337100538488247,0.371331432402602
"1034",19,29,1,2,74,2,2,1,3,0.552046155884668,0.527446965631628
"1035",19,29,1,1,75,1,2,0,3,0.527464984102374,0.530750940529614
"1036",19,32,1,2,76,3,1,0,2,1.36474774840166,1.35702328586667
"1037",19,24,1,1,77,3,1,1,3,0.822175941871046,0.714294246236616
"1038",19,36,1,1,78,2,2,0,2,0.411147954191659,0.516521510795327
"1039",19,30,1,2,79,3,1,0,2,0.722064307765257,0.720228925045807
"1040",19,36,1,2,80,1,1,0,4,0.48610107231737,0.484012593631078
"1041",19,31,1,1,81,3,2,0,2,0.919554639440359,0.955718087171463
"1042",19,39,1,2,82,1,2,1,5,0.479300309248889,0.435130409159516
"1043",19,39,1,1,83,1,1,1,5,0.324866669318989,0.297397584063734
"1044",19,29,1,1,84,2,2,0,3,0.788872974426654,0.791542731593307
"1045",19,29,1,2,85,1,1,0,4,0.45513433914798,0.419815733473042
"1046",19,32,1,2,86,1,2,1,5,0.334499386833568,0.327788062405177
"1047",19,24,1,2,87,2,1,0,2,0.529818166523449,0.530951896837159
"1048",19,36,1,2,88,2,2,1,3,0.636528213789405,0.659899701497711
"1049",19,30,1,1,89,2,1,1,4,0.595470743903319,0.626166778264797
"1050",19,36,1,2,90,3,1,0,2,0.707366312720227,0.715839981738848
"1051",19,31,1,1,91,3,1,1,3,0.439242846083932,0.449980990208075
"1052",19,39,1,2,92,2,1,0,3,0.939847925373776,0.8504577683105
"1053",19,39,1,2,93,2,2,1,3,0.262332598218744,0.231867327072907
"1054",19,29,1,2,94,2,1,0,2,0.820027253138739,0.836038857348791
"1055",19,29,1,2,95,2,1,0,2,0.841431268043764,0.829485381401466
"1056",19,32,1,2,96,2,1,0,2,0.511431148571603,0.517345457215586
"1057",19,24,1,1,97,1,1,1,4,0.41183457866872,0.370982263551352
"1058",19,36,1,1,98,1,1,1,4,0.505436478258554,0.440220972739673
"1059",19,30,1,2,99,3,1,0,2,1.35064343416929,1.3686114088649
"1060",19,36,1,2,100,3,2,1,3,1.04299953102999,1.05512232830795
"1061",19,31,1,1,101,2,1,1,3,0.552502508396548,0.609474794651157
"1062",19,39,1,1,102,1,1,1,5,0.453352915545171,0.476426648751587
"1063",19,39,1,1,103,3,2,0,1,0.923025632309588,0.879900615931907
"1064",19,29,1,2,104,3,2,1,2,0.795795843368672,0.669833571204058
"1065",19,29,1,2,105,3,1,0,2,1.32618739615771,1.30319103819462
"1066",19,32,1,1,106,1,1,1,4,0.402717085958039,0.348909477359666
"1067",19,24,1,2,107,3,1,0,2,1.49855411186849,1.37374717365167
"1068",19,36,1,2,108,1,2,1,5,0.376349043585915,0.384759956703324
"1069",19,30,1,2,109,3,2,1,2,1.1222964315472,1.0947989495075
"1070",19,36,1,1,110,2,1,1,3,0.812021660818678,0.796813731728868
"1071",19,31,1,1,111,1,1,1,4,0.484200433735146,0.441351241152234
"1072",19,39,1,2,112,2,1,0,2,0.409864468524187,0.398540217675845
"1073",19,39,1,2,113,1,2,1,5,0.307444054867774,0.27781221531458
"1074",19,29,1,2,114,3,1,0,1,1.73986448888108,1.732108994922
"1075",19,29,1,2,115,2,1,0,2,0.666058902291999,0.675492984147593
"1076",19,32,1,2,116,3,2,1,3,1.14502304739743,1.11788097451604
"1077",19,24,1,1,117,1,1,1,5,0.390006594699963,0.451784451960797
"1078",19,36,1,1,118,2,1,1,3,0.706412503132187,0.74153386480398
"1079",19,30,1,1,119,1,2,0,3,0.440431774180736,0.551275645753538
"1080",19,36,1,2,120,1,2,1,5,0.524243015854861,0.457729625585341
"1081",19,31,1,2,121,1,2,1,4,0.373707757700136,0.332109182715002
"1082",19,39,1,1,122,1,1,1,4,0.362985021361567,0.381937609417667
"1083",19,39,1,2,123,3,1,0,2,0.936453952139737,0.861114911975223
"1084",19,29,1,2,124,3,1,0,1,1.32093998584285,1.26670901528546
"1085",19,29,1,1,125,1,1,1,4,0.300948056004084,0.239212369319616
"1086",19,32,1,2,126,3,1,0,1,1.75748441682464,1.76774473464809
"1087",19,24,1,1,127,2,2,0,2,0.588739043170277,0.514632851590544
"1088",19,36,1,2,128,1,2,1,5,0.341464115207942,0.339106730174464
"1089",19,30,1,1,129,2,1,1,4,0.363329985352366,0.345298910989445
"1090",19,36,1,1,130,2,2,0,2,0.655733361504222,0.698836930944897
"1091",19,31,1,2,131,2,1,0,3,0.26150321191576,0.295054542688009
"1092",19,39,1,2,132,2,1,0,2,0.831309715629147,0.817581061810393
"1093",19,39,1,2,133,3,2,1,3,0.462405597962697,0.490378217348035
"1094",19,29,1,2,134,3,2,1,2,0.700024153299266,0.794621713387983
"1095",19,29,1,1,135,3,2,0,1,0.990800457889074,0.936415649271894
"1096",19,32,1,2,136,2,2,1,3,0.7207456106999,0.711109420422653
"1097",19,24,1,2,137,1,2,1,5,0.279747880499746,0.28760576638295
"1098",19,36,1,2,138,2,1,0,3,0.628225750425012,0.745421149142778
"1099",19,30,1,1,139,2,2,0,2,0.939221095096057,0.964027101233158
"1100",19,36,1,1,140,3,2,0,2,1.69661824570584,1.75746086849005
"1101",19,31,1,2,141,3,2,1,3,1.11618970049597,1.16194317800874
"1102",19,39,1,1,142,1,1,1,5,0.352706084439704,0.308580816704033
"1103",19,39,1,2,143,1,1,0,3,0.663111455707572,0.672159361416317
"1104",19,29,1,2,144,2,2,1,4,0.649261681699378,0.643969128791231
"1105",19,29,1,2,145,2,2,1,3,0.742247293818971,0.765110701474898
"1106",19,32,1,2,146,2,2,1,3,0.595064431430805,0.597433663901926
"1107",19,24,1,1,147,3,1,1,3,0.531134013424794,0.593201712270715
"1108",19,36,1,1,148,2,2,0,3,0.534697980454168,0.638771380170188
"1109",19,30,1,2,149,1,2,1,5,0.382488658534356,0.412936273704292
"1110",19,36,1,2,150,3,2,1,3,0.40313337445248,0.376101937074843
"1111",19,31,1,1,151,3,2,0,1,0.499440840536894,0.563535830711314
"1112",19,39,1,1,152,1,1,1,5,0.502161430454545,0.467667920096034
"1113",19,39,1,1,153,1,1,1,4,0.423242038877402,0.48302959199781
"1114",19,29,1,1,154,1,1,1,5,0.474917407479497,0.496193199523048
"1115",19,29,1,2,155,1,2,1,4,0.285527754091715,0.266013866015234
"1116",19,32,1,2,156,1,2,1,4,0.382447918936939,0.363133588466169
"1117",19,24,1,2,157,3,1,0,2,0.972101078843392,0.925742550633828
"1118",19,36,1,1,158,2,2,0,2,0.886616101866211,0.875279277822823
"1119",19,30,1,1,159,1,2,0,4,0.589942462605737,0.553762481400188
"1120",19,36,1,1,160,2,2,0,2,0.663084271434595,0.690222777003034
"1121",19,31,1,1,161,2,1,1,3,0.476237239425049,0.473048531724261
"1122",19,39,1,2,162,2,2,1,3,0.43531905305535,0.455804389879328
"1123",19,39,1,2,163,3,2,1,3,0.945617677087145,0.952196154927465
"1124",19,29,1,1,164,2,1,1,4,0.494391843539019,0.587525613029044
"1125",19,29,1,1,165,1,1,1,5,0.409073777168102,0.453299818692818
"1126",19,32,1,2,166,1,2,1,5,0.474014942906828,0.497920828655078
"1127",19,24,1,2,167,1,2,1,4,0.362352792473515,0.396583677624505
"1128",19,36,1,2,168,1,1,0,3,0.260653918288807,0.430422568837279
"1129",19,30,1,1,169,3,1,1,2,0.815001749313645,0.878395914362369
"1130",19,36,1,1,170,3,2,0,2,1.14585727290049,1.03223848252356
"1131",19,31,1,1,171,2,1,1,3,0.654835252830363,0.623364141784362
"1132",19,39,1,1,172,1,1,1,4,0.408633662749152,0.447987881132536
"1133",19,39,1,1,173,2,1,1,4,0.510589189604822,0.528186032270054
"1134",19,29,1,1,174,2,2,0,3,0.741946972263623,0.754806155114876
"1135",19,29,1,1,175,1,1,1,5,0.366128280584625,0.375154539698891
"1136",19,32,1,2,176,3,2,1,3,1.11344649843319,1.16623487881359
"1137",19,24,1,2,177,3,2,1,3,0.959915576726317,0.981865171325986
"1138",19,36,1,2,178,1,2,1,5,0.328452047878526,0.296785137946156
"1139",19,30,1,1,179,1,1,1,5,0.330247317130308,0.293830050060548
"1140",19,36,1,2,180,3,1,0,2,1.14225063982614,1.11277284749398
"1141",19,31,1,2,181,1,2,1,4,0.403873604246471,0.485622214687519
"1142",19,39,1,1,182,2,1,1,3,0.659930094498188,0.616657223214366
"1143",19,39,1,2,183,2,2,1,4,0.499242967692098,0.451083718037543
"1144",19,29,1,1,184,3,1,1,2,0.574813842030719,0.527220731804833
"1145",19,29,1,1,185,3,1,1,3,0.507601966053658,0.522861733748521
"1146",19,32,1,2,186,3,1,0,1,0.562219676778555,0.558919073694097
"1147",19,24,1,2,187,3,1,0,2,0.759649367667242,0.766909422175039
"1148",19,36,1,1,188,1,1,1,5,0.495350491104336,0.541029842824656
"1149",19,30,1,1,189,2,2,0,3,0.721929696394875,0.748193130104081
"1150",19,36,1,2,190,1,2,1,4,0.456306580345101,0.491846448736669
"1151",19,31,1,1,191,1,1,1,5,0.435312525355355,0.397331485123913
"1152",19,39,1,1,192,2,1,1,3,0.552006333002714,0.553691643486886
"1153",19,39,1,2,193,2,2,1,3,0.460528811172403,0.466648331059611
"1154",19,29,1,1,194,2,1,1,4,0.454133045272933,0.462757221645119
"1155",19,29,1,2,195,3,1,0,2,1.09874220798571,1.03953001330768
"1156",19,32,1,2,196,1,2,1,4,0.526922724675394,0.521257178652468
"1157",19,24,1,2,197,3,2,1,3,0.831913266466564,0.907695286298504
"1158",19,36,1,2,198,3,2,1,2,0.547793030295953,0.572707132620912
"1159",19,30,1,1,199,3,1,1,3,1.19106405688801,1.22619497235261
"1160",19,36,1,1,200,1,1,1,4,0.533913558371438,0.519412922033787
"1161",19,31,1,1,201,2,1,1,3,0.710187712537362,0.731856844975938
"1162",19,39,1,2,202,1,1,0,3,0.53568478422336,0.435550920033027
"1163",19,39,1,1,203,1,1,1,4,0.361640184193658,0.438472304893997
"1164",19,29,1,1,204,2,1,1,3,0.844134435465386,0.807895479303851
"1165",19,29,1,1,205,1,1,1,5,0.548004522342638,0.551113672984321
"1166",19,32,1,2,206,2,1,0,3,0.719023416331804,0.697023157558476
"1167",19,24,1,1,207,1,2,0,3,0.574352600269293,0.615218204463394
"1168",19,36,1,1,208,3,2,0,2,0.967634465886382,0.925900394107912
"1169",19,30,1,1,209,1,1,1,5,0.317218669636479,0.223736774729734
"1170",19,36,1,1,210,3,2,0,1,1.38728232501687,1.29134982339032
"1171",19,31,1,2,211,2,2,1,4,0.420397534473842,0.364579458558644
"1172",19,39,1,1,212,1,1,1,5,0.32399787946719,0.366506437990131
"1173",19,39,1,1,213,2,1,1,4,0.422079824995028,0.31425176077447
"1174",19,29,1,2,214,3,1,0,2,1.17066851240277,1.18466881476978
"1175",19,29,1,1,215,2,2,0,2,0.710660002667359,0.733368491378848
"1176",19,32,1,1,216,3,1,1,2,0.730596056261674,0.758932724926198
"1177",19,24,1,2,217,2,1,0,2,0.45161519487144,0.433908785583118
"1178",19,36,1,1,218,3,2,0,2,0.985036138265636,1.0364839840425
"1179",19,30,1,1,219,3,1,1,2,0.69963197049353,0.731017068978515
"1180",19,36,1,2,220,3,2,1,3,1.01298073872502,1.01886705674382
"1181",19,31,1,1,221,2,2,0,2,0.671151846301741,0.688244766968176
"1182",19,39,1,2,222,1,2,1,4,0.533818018384599,0.404668494433818
"1183",19,39,1,2,223,1,2,1,5,0.374172866314949,0.335187603498538
"1184",19,29,1,2,224,3,2,1,3,0.794512976509991,0.794130570753421
"1185",19,29,1,2,225,1,2,1,5,0.37209609741537,0.48634293454722
"1186",19,32,1,1,226,2,2,0,2,0.787460728117087,0.747926529417259
"1187",19,24,1,1,227,1,1,1,5,0.464965046683724,0.366902983644167
"1188",19,36,1,1,228,3,2,0,1,1.10764775253705,1.03694416641206
"1189",19,30,1,2,229,3,1,0,1,1.01413457212023,1.0230655123483
"1190",19,36,1,1,230,2,2,0,3,0.449879823706868,0.419847240708325
"1191",19,31,1,2,231,2,2,1,3,0.706633622289211,0.771823935486536
"1192",19,39,1,1,232,3,2,0,2,1.71780363290804,1.70541024308443
"1193",19,39,1,2,233,3,1,0,2,1.25437953357485,1.25157330635294
"1194",19,29,1,2,234,2,2,1,3,0.594413968990947,0.61098583952583
"1195",19,29,1,1,235,3,2,0,1,0.482725649516966,0.556595004309203
"1196",19,32,1,2,236,1,2,1,4,0.365122505213561,0.390095539905001
"1197",19,24,1,2,237,1,1,0,4,0.542172727061147,0.461331285390407
"1198",19,36,1,2,238,2,2,1,4,0.592265430129596,0.57845136871469
"1199",19,30,1,1,239,3,2,0,1,1.03783564780078,1.00450116657212
"1200",19,36,1,2,240,3,1,0,2,0.453519036862824,0.416079919565937
"1201",18,19,2,2,1,3,1,0,1,0.583959984397133,0.579540432574434
"1202",18,22,2,2,2,2,2,1,4,0.572264142521651,0.584237685790597
"1203",18,20,2,2,3,1,2,1,4,0.427260434244839,0.436249381943101
"1204",18,34,2,1,4,3,2,0,2,0.899601688932103,0.786017738852375
"1205",18,32,2,2,5,2,1,0,2,0.567925970731267,0.572048452015653
"1206",18,33,2,2,6,1,2,1,5,0.342476741993821,0.334503250001231
"1207",18,18,2,2,7,1,2,1,5,0.431548227062327,0.416527169789329
"1208",18,36,2,1,8,3,1,1,3,0.599705955590283,0.536804559011358
"1209",18,26,2,2,9,1,2,1,4,0.399392959352026,0.420830979733422
"1210",18,23,2,2,10,1,1,0,4,0.576556386490251,0.568659006498118
"1211",18,19,2,1,11,3,2,0,1,0.883011825220108,0.866932522685613
"1212",18,22,2,1,12,2,1,1,3,0.880073615949815,0.877887905044861
"1213",18,20,2,2,13,1,2,1,5,0.297693006945106,0.345267210471252
"1214",18,34,2,2,14,1,2,1,4,0.352638216699052,0.429043743111422
"1215",18,32,2,1,15,2,2,0,2,0.83765546361971,0.82442574901013
"1216",18,33,2,2,16,2,2,1,4,0.681364350738443,0.690438524346701
"1217",18,18,2,1,17,1,1,1,5,0.471304561874198,0.448270476690307
"1218",18,36,2,2,18,3,2,1,2,0.819876703276811,0.823724464928418
"1219",18,26,2,1,19,3,2,0,1,0.977906348223861,0.964419539393329
"1220",18,23,2,1,20,3,2,0,1,1.07644860925403,0.998604729950736
"1221",18,19,2,1,21,2,1,1,3,0.626509061698935,0.697820213824866
"1222",18,22,2,1,22,1,2,0,4,0.43696375178903,0.373783956768574
"1223",18,20,2,1,23,3,1,1,2,0.562625547899705,0.518011043672003
"1224",18,34,2,1,24,1,2,0,4,0.553482071048995,0.593426520219277
"1225",18,32,2,1,25,3,2,0,1,1.23963012463927,1.25507536764782
"1226",18,33,2,2,26,1,2,1,4,0.448028723931122,0.485241360131209
"1227",18,18,2,2,27,3,2,1,2,0.732843754155411,0.706877488426648
"1228",18,36,2,1,28,1,1,1,4,0.351899332160348,0.406345168433006
"1229",18,26,2,1,29,3,2,0,2,0.408918382219282,0.372377595771438
"1230",18,23,2,1,30,2,1,1,3,0.853609126361689,0.864457178719646
"1231",18,19,2,2,31,1,2,1,4,0.258502944188333,0.246718757597848
"1232",18,22,2,2,32,3,1,0,1,0.933485234080526,0.869473954697236
"1233",18,20,2,2,33,3,2,1,2,0.847006110553148,0.78642727717669
"1234",18,34,2,1,34,3,2,0,2,1.06264252046373,1.08563842646333
"1235",18,32,2,1,35,1,1,1,5,0.425962020655418,0.367262314638953
"1236",18,33,2,2,36,3,2,1,2,1.07921642805466,1.18188923944466
"1237",18,18,2,1,37,1,2,0,4,0.530865273958526,0.476407847131961
"1238",18,36,2,1,38,1,1,1,5,0.205042721377359,0.251747094958215
"1239",18,26,2,2,39,1,2,1,5,0.379873360293476,0.394354735044682
"1240",18,23,2,2,40,3,2,1,3,0.487363714831442,0.447897806169055
"1241",18,19,2,1,41,3,2,0,1,0.851479262846116,0.726966135430448
"1242",18,22,2,2,42,1,1,0,4,0.289300863497712,0.364511145142097
"1243",18,20,2,2,43,2,1,0,2,0.802892472390785,0.780267051226456
"1244",18,34,2,2,44,3,2,1,2,0.955575897638659,0.939675146778257
"1245",18,32,2,1,45,3,2,0,2,0.893482983646162,0.974493883987572
"1246",18,33,2,2,46,2,1,0,3,0.857689595471681,0.855864542587394
"1247",18,18,2,1,47,2,2,0,3,0.677131213046638,0.730463684159333
"1248",18,36,2,1,48,2,1,1,3,0.573148772542309,0.590567212030816
"1249",18,26,2,1,49,2,1,1,4,0.701153998084675,0.749469144001071
"1250",18,23,2,2,50,3,1,0,2,1.33228561623473,1.33929098434856
"1251",18,19,2,2,51,2,2,1,3,0.518872063979804,0.4827492244891
"1252",18,22,2,2,52,2,1,0,2,0.762886551847406,0.727103142787758
"1253",18,20,2,2,53,2,2,1,3,0.513780465763272,0.584280887754625
"1254",18,34,2,1,54,3,1,1,2,0.728516653072728,0.681408928395236
"1255",18,32,2,1,55,1,2,0,4,0.515822241318972,0.497049672171224
"1256",18,33,2,1,56,3,2,0,2,0.488421582374783,0.544626823928786
"1257",18,18,2,1,57,2,1,1,4,0.77683491813222,0.787424030838374
"1258",18,36,2,2,58,3,2,1,3,0.91307962571399,0.93483988130654
"1259",18,26,2,2,59,3,2,1,3,0.572319418208517,0.581892758292292
"1260",18,23,2,1,60,3,1,1,2,0.987559401344132,1.04385946954535
"1261",18,19,2,2,61,2,2,1,4,0.817499516905794,0.902219577533074
"1262",18,22,2,1,62,3,1,1,3,0.752113797249282,0.757701264487979
"1263",18,20,2,2,63,1,2,1,4,0.42076451646448,0.365273952549532
"1264",18,34,2,1,64,3,2,0,2,0.626470289778558,0.619152093079148
"1265",18,32,2,2,65,1,2,1,4,0.441283837593036,0.375781846033549
"1266",18,33,2,1,66,1,2,0,3,0.562706254140436,0.528151957503357
"1267",18,18,2,1,67,2,1,1,3,0.646554279867834,0.711359725460046
"1268",18,36,2,2,68,3,1,0,2,1.06925576499222,1.07562173905105
"1269",18,26,2,2,69,1,2,1,5,0.434859795150832,0.421405808377408
"1270",18,23,2,1,70,3,2,0,1,1.09875409673577,1.16244013735873
"1271",18,19,2,1,71,3,2,0,2,1.23840417126864,1.22377820491013
"1272",18,22,2,1,72,2,1,1,3,0.538891930592441,0.542348247906533
"1273",18,20,2,2,73,2,2,1,3,0.547159364192431,0.651322013114011
"1274",18,34,2,2,74,2,2,1,4,0.744083970994038,0.78488324572297
"1275",18,32,2,1,75,3,2,0,1,1.11462510483746,1.1092965703264
"1276",18,33,2,2,76,2,2,1,3,0.658272587617611,0.715039578124002
"1277",18,18,2,1,77,1,2,0,4,0.695379982812837,0.700882887614532
"1278",18,36,2,2,78,3,1,0,2,0.878806932652267,0.90793240424849
"1279",18,26,2,1,79,2,2,0,2,0.722116118175312,0.762066486811789
"1280",18,23,2,2,80,1,2,1,5,0.525472832837991,0.584345018930748
"1281",18,19,2,2,81,3,1,0,1,0.584432261646037,0.567368856930518
"1282",18,22,2,2,82,1,2,1,5,0.266053753133199,0.306787974580934
"1283",18,20,2,2,83,3,1,0,1,1.13384821061382,1.03739546494753
"1284",18,34,2,2,84,1,1,0,4,0.655208365813508,0.596522053937983
"1285",18,32,2,1,85,2,2,0,2,0.613728869683276,0.584044265742914
"1286",18,33,2,1,86,1,1,1,5,0.478870047619629,0.549617873021681
"1287",18,18,2,1,87,2,2,0,2,1.03740914181631,1.05100934389828
"1288",18,36,2,2,88,1,1,0,4,0.636742721993091,0.64058293673922
"1289",18,26,2,2,89,3,2,1,3,1.0149229300287,1.0924268574795
"1290",18,23,2,2,90,2,2,1,4,0.519448966766514,0.396530541711093
"1291",18,19,2,2,91,1,2,1,5,0.462275680456869,0.500380325336738
"1292",18,22,2,1,92,3,1,1,3,0.616846209112869,0.672943979876335
"1293",18,20,2,2,93,1,2,1,4,0.278416808324453,0.273168475337304
"1294",18,34,2,2,94,2,2,1,3,0.296515029774887,0.231695821999716
"1295",18,32,2,1,95,1,1,1,4,0.395191160099811,0.387479945467546
"1296",18,33,2,1,96,3,1,1,2,1.06814223861426,1.04479031738949
"1297",18,18,2,2,97,3,2,1,2,0.661477853124545,0.631876728452796
"1298",18,36,2,1,98,2,2,0,3,0.655437108509656,0.628603234620268
"1299",18,26,2,2,99,2,1,0,2,0.65687922300726,0.656259963181715
"1300",18,23,2,1,100,3,1,1,2,1.00503791688511,0.999044827369779
"1301",18,19,2,1,101,3,1,1,3,1.11347748500916,1.04150597211181
"1302",18,22,2,2,102,2,1,0,3,1.20498972872731,1.15569677026437
"1303",18,20,2,1,103,1,1,1,5,0.412648531611503,0.425010849121666
"1304",18,34,2,2,104,1,2,1,4,0.48136495209365,0.533749799855485
"1305",18,32,2,1,105,1,2,0,4,0.519203475815085,0.536613353192389
"1306",18,33,2,2,106,1,2,1,4,0.488583917348753,0.565835348216458
"1307",18,18,2,2,107,2,1,0,3,0.715894285159639,0.647268831322876
"1308",18,36,2,2,108,3,2,1,3,0.792427726066904,0.839903188993528
"1309",18,26,2,1,109,2,2,0,2,0.712286768612904,0.746705819510961
"1310",18,23,2,1,110,3,1,1,2,0.574713443048974,0.623739852242522
"1311",18,19,2,2,111,3,1,0,1,1.00179791992763,1.0267359281423
"1312",18,22,2,1,112,2,2,0,3,0.581764501763076,0.54059289715395
"1313",18,20,2,1,113,3,2,0,2,0.919068424622308,0.873172873008957
"1314",18,34,2,1,114,2,2,0,2,0.535905266489685,0.62386698943768
"1315",18,32,2,2,115,1,2,1,4,0.449219123545965,0.479412756886465
"1316",18,33,2,2,116,2,1,0,3,0.41875581484358,0.392066758950904
"1317",18,18,2,2,117,1,2,1,5,0.454967329040326,0.422003179990542
"1318",18,36,2,1,118,2,1,1,3,0.77252320341803,0.821038504324913
"1319",18,26,2,1,119,2,1,1,4,0.528816685455531,0.495345432036939
"1320",18,23,2,1,120,1,1,1,4,0.497884607063767,0.534058008509333
"1321",18,19,2,1,121,1,1,1,5,0.465688222427799,0.471087515644889
"1322",18,22,2,1,122,2,1,1,3,0.802405174986149,0.69265064693894
"1323",18,20,2,1,123,1,1,1,5,0.505209294097749,0.484693440124529
"1324",18,34,2,2,124,2,1,0,3,0.525487065778495,0.534745386408928
"1325",18,32,2,2,125,2,2,1,3,0.506882465637567,0.546301927192724
"1326",18,33,2,1,126,1,1,1,5,0.505010666537817,0.489634305004276
"1327",18,18,2,1,127,1,2,0,4,0.394981886831904,0.501233408479359
"1328",18,36,2,1,128,3,1,1,3,0.886638583167571,0.837921356770426
"1329",18,26,2,1,129,2,1,1,4,0.470099830510426,0.524781021509604
"1330",18,23,2,2,130,2,2,1,3,0.60319834116523,0.482110692398761
"1331",18,19,2,2,131,3,2,1,2,1.05070841582915,1.10211487638566
"1332",18,22,2,2,132,1,2,1,5,0.328252097356721,0.386348449374756
"1333",18,20,2,2,133,1,1,0,3,0.595421292715224,0.681512641566146
"1334",18,34,2,1,134,3,1,1,3,0.506726727966882,0.500290375654557
"1335",18,32,2,2,135,1,2,1,5,0.449927345527352,0.417805767850787
"1336",18,33,2,2,136,2,2,1,3,0.569041160443709,0.646454600937813
"1337",18,18,2,1,137,1,1,1,4,0.438753818310547,0.397795735978893
"1338",18,36,2,1,138,2,2,0,3,0.48830458722936,0.465619114081908
"1339",18,26,2,2,139,1,2,1,4,0.646988096795127,0.733156633862397
"1340",18,23,2,2,140,1,2,1,4,0.401681376560781,0.343951025481852
"1341",18,19,2,2,141,1,2,1,5,0.550046564920919,0.574176204955527
"1342",18,22,2,1,142,2,2,0,3,0.573947261452889,0.650615511737444
"1343",18,20,2,1,143,3,1,1,2,0.904776528996671,0.848928904680189
"1344",18,34,2,2,144,2,2,1,4,0.473687205280144,0.471723680196348
"1345",18,32,2,2,145,3,1,0,1,1.54109074209754,1.58027915914251
"1346",18,33,2,1,146,2,1,1,3,0.658672750653138,0.670263065816707
"1347",18,18,2,1,147,1,2,0,4,0.635655041325251,0.630153045000062
"1348",18,36,2,1,148,1,1,1,5,0.308870700582219,0.334074108371517
"1349",18,26,2,1,149,2,1,1,3,0.430839072773834,0.464612101380677
"1350",18,23,2,2,150,3,1,0,2,0.978653740634109,0.996853245750423
"1351",18,19,2,2,151,1,2,1,4,0.356404111734542,0.305070759450586
"1352",18,22,2,1,152,3,1,1,3,0.829746629273513,0.822684521769392
"1353",18,20,2,2,153,2,2,1,4,0.86336943723494,0.805039311225994
"1354",18,34,2,1,154,3,1,1,2,0.765312153985592,0.796043565069698
"1355",18,32,2,2,155,2,1,0,3,0.80442633521256,0.725118784251083
"1356",18,33,2,1,156,1,1,1,5,0.41949707136294,0.454124659830334
"1357",18,18,2,2,157,2,2,1,3,0.625384865558441,0.527205132842642
"1358",18,36,2,2,158,3,2,1,2,0.827689537814022,0.814362096977851
"1359",18,26,2,2,159,2,1,0,3,0.413730693829375,0.376367190323687
"1360",18,23,2,2,160,2,2,1,4,0.80731867998565,0.794105385021315
"1361",18,19,2,2,161,3,2,1,2,1.07499337832488,1.06134824567144
"1362",18,22,2,1,162,3,2,0,1,1.35660623199009,1.31861451542561
"1363",18,20,2,2,163,3,1,0,2,0.85589004869935,0.860087682175443
"1364",18,34,2,1,164,2,1,1,3,0.479012938067598,0.457401332439943
"1365",18,32,2,2,165,1,2,1,4,0.311434366302256,0.364821189951554
"1366",18,33,2,2,166,1,2,1,5,0.485614073324306,0.458462425778006
"1367",18,18,2,2,167,2,2,1,3,0.646262382578155,0.659087382345855
"1368",18,36,2,1,168,2,1,1,4,0.59388789996375,0.587039079048515
"1369",18,26,2,1,169,3,2,0,1,0.613110546556908,0.683277441211215
"1370",18,23,2,2,170,3,1,0,2,1.4293822126767,1.34619957028906
"1371",18,19,2,2,171,1,2,1,5,0.388525308567616,0.541524114938419
"1372",18,22,2,1,172,2,1,1,4,0.584177789632137,0.588507795644982
"1373",18,20,2,1,173,1,1,1,5,0.331830445965441,0.419851350716866
"1374",18,34,2,2,174,1,1,0,3,0.519310701364087,0.432399470433838
"1375",18,32,2,1,175,1,1,1,4,0.482788437110345,0.543003292204146
"1376",18,33,2,1,176,3,2,0,1,1.21251930715342,1.24040159951385
"1377",18,18,2,1,177,1,1,1,5,0.382018341365635,0.47466660087865
"1378",18,36,2,1,178,3,2,0,2,1.60877148609755,1.61538193577677
"1379",18,26,2,1,179,3,1,1,2,0.527996712612773,0.471171685235901
"1380",18,23,2,2,180,3,1,0,1,1.61062662622328,1.55144653249315
"1381",18,19,2,2,181,3,2,1,2,1.03023793383473,1.04256204687397
"1382",18,22,2,2,182,3,1,0,1,1.15790290276204,1.17138905509818
"1383",18,20,2,2,183,1,1,0,3,0.720765152014686,0.795178576976695
"1384",18,34,2,2,184,3,2,1,2,0.765966196234362,0.757171826192251
"1385",18,32,2,2,185,1,2,1,4,0.409843048250479,0.468124164979131
"1386",18,33,2,1,186,1,2,0,3,0.429433628453302,0.47148924299926
"1387",18,18,2,2,187,2,2,1,4,0.570026770060274,0.565317227019279
"1388",18,36,2,1,188,3,1,1,2,0.942538326946837,0.941868168078968
"1389",18,26,2,2,189,3,1,0,1,1.11231394646022,1.12426787965437
"1390",18,23,2,2,190,1,2,1,5,0.362185170545244,0.405344784276376
"1391",18,19,2,1,191,3,1,1,2,0.916335723711163,0.943010425186707
"1392",18,22,2,2,192,2,2,1,4,0.734215689706179,0.706958223464363
"1393",18,20,2,1,193,1,1,1,5,0.453452897884429,0.496999570292647
"1394",18,34,2,2,194,3,2,1,2,0.77743802075046,0.721294890377209
"1395",18,32,2,1,195,1,1,1,4,0.456139524606257,0.468743853020893
"1396",18,33,2,1,196,3,2,0,2,1.06426702690568,1.10431495527047
"1397",18,18,2,2,197,1,2,1,4,0.513036492774288,0.463013426987751
"1398",18,36,2,1,198,2,2,0,2,0.696927415353586,0.746139804984179
"1399",18,26,2,1,199,1,2,0,3,0.423720470627541,0.419854766827626
"1400",18,23,2,2,200,3,1,0,2,0.857551687456715,0.782360706687623
"1401",18,19,2,2,201,2,2,1,3,0.443244977922507,0.478723846453066
"1402",18,22,2,2,202,2,1,0,3,0.450838928721936,0.427693354276292
"1403",18,20,2,2,203,2,1,0,2,0.645655009776988,0.652992934690844
"1404",18,34,2,2,204,1,2,1,5,0.26401434459451,0.264563483441527
"1405",18,32,2,1,205,1,1,1,4,0.227680381387837,0.231321554234844
"1406",18,33,2,2,206,1,2,1,4,0.346023089498852,0.250323880488086
"1407",18,18,2,1,207,3,1,1,2,0.814327211844264,0.832236950189435
"1408",18,36,2,1,208,3,1,1,3,0.819527200160184,0.857104455873683
"1409",18,26,2,2,209,1,1,0,4,0.689010340245491,0.639869635665121
"1410",18,23,2,1,210,2,1,1,4,0.506124460194217,0.624168566306241
"1411",18,19,2,1,211,1,1,1,4,0.345874030513792,0.25755937102936
"1412",18,22,2,1,212,3,2,0,2,0.816924280824068,0.90268553414028
"1413",18,20,2,2,213,3,2,1,3,0.677890917080825,0.693523494733076
"1414",18,34,2,2,214,3,1,0,1,0.916051698910131,0.882940012097394
"1415",18,32,2,1,215,2,1,1,3,0.673865276560363,0.696296487942672
"1416",18,33,2,1,216,2,1,1,4,0.4581714675163,0.438157566456162
"1417",18,18,2,2,217,3,2,1,3,0.573476501231275,0.515216346732301
"1418",18,36,2,1,218,1,1,1,5,0.447203057397958,0.447661624835774
"1419",18,26,2,1,219,2,1,1,4,0.656122352946258,0.685662772371312
"1420",18,23,2,1,220,1,1,1,5,0.438696686162024,0.513948327907324
"1421",18,19,2,1,221,2,1,1,3,0.614022288184107,0.613317499722325
"1422",18,22,2,1,222,2,2,0,2,0.636670854744297,0.648967282087372
"1423",18,20,2,1,223,3,1,1,2,1.09903409543544,1.06150268871156
"1424",18,34,2,2,224,3,1,0,2,0.907457767155532,0.933327491255467
"1425",18,32,2,2,225,2,1,0,2,0.498234217463524,0.485241795483752
"1426",18,33,2,1,226,2,1,1,3,0.716776555440195,0.707293913455085
"1427",18,18,2,1,227,2,1,1,3,0.665215858019675,0.679287522505691
"1428",18,36,2,2,228,2,2,1,4,0.676716036207926,0.654034027844069
"1429",18,26,2,2,229,2,1,0,2,0.795200423329253,0.804086840643156
"1430",18,23,2,1,230,2,1,1,4,0.594072694139507,0.645447103699486
"1431",18,19,2,2,231,3,2,1,3,0.984993733596544,1.01628568529402
"1432",18,22,2,1,232,2,1,1,4,0.45149602693427,0.393652542926987
"1433",18,20,2,1,233,1,1,1,4,0.467720814673642,0.5446630023363
"1434",18,34,2,1,234,2,1,1,4,0.733752049730622,0.666784352840722
"1435",18,32,2,2,235,2,1,0,2,0.53499739452199,0.548975425875865
"1436",18,33,2,1,236,1,1,1,4,0.309862321602071,0.270485357923521
"1437",18,18,2,1,237,2,1,1,3,0.758118102949508,0.759049167514517
"1438",18,36,2,2,238,1,1,0,4,0.426250898926693,0.378905371224073
"1439",18,26,2,1,239,1,1,1,4,0.597864384966644,0.584115891640623
"1440",18,23,2,2,240,2,1,0,2,0.692994775237372,0.71529152144465
"1441",17,37,1,1,1,2,1,1,4,0.886095270702589,0.882411317473846
"1442",17,30,1,1,2,2,1,1,4,0.465129016106487,0.417891187062543
"1443",17,39,1,1,3,2,2,0,2,0.726624565665347,0.762866306568498
"1444",17,21,1,1,4,3,2,0,2,0.631617954937451,0.694367427984579
"1445",17,33,1,2,5,1,2,1,4,0.451487438325242,0.431168479006737
"1446",17,20,1,1,6,1,1,1,5,0.380127304950464,0.382479948440928
"1447",17,22,1,1,7,2,1,1,3,0.620464392508267,0.552225576670987
"1448",17,20,1,2,8,2,1,0,2,0.773118519370476,0.787596684896618
"1449",17,25,1,2,9,2,2,1,3,0.563519400317249,0.596057803311838
"1450",17,31,1,2,10,1,1,0,4,0.457482587826066,0.51621980994654
"1451",17,37,1,2,11,1,2,1,4,0.386693448928123,0.444299119389028
"1452",17,30,1,2,12,3,1,0,2,1.15952919503828,1.26537750885902
"1453",17,39,1,2,13,3,2,1,2,0.746567942145692,0.736633712514956
"1454",17,21,1,2,14,2,1,0,3,0.777151895136143,0.845550322723462
"1455",17,33,1,2,15,3,1,0,1,0.628586718915319,0.621014006583248
"1456",17,20,1,1,16,1,1,1,5,0.393470020273109,0.401674993625056
"1457",17,22,1,1,17,3,1,1,2,0.356810017087633,0.462018081133906
"1458",17,20,1,2,18,3,1,0,2,0.483327830639245,0.298270658664283
"1459",17,25,1,1,19,3,1,1,3,0.986396126473356,0.93539698307853
"1460",17,31,1,1,20,3,1,1,3,0.594807363956789,0.571639773176197
"1461",17,37,1,1,21,2,1,1,4,0.689736754692579,0.662411977198862
"1462",17,30,1,2,22,2,2,1,4,0.498931304184352,0.401919863623363
"1463",17,39,1,1,23,3,1,1,2,1.06632022651903,1.05407960341126
"1464",17,21,1,2,24,3,2,1,3,0.871758160352543,0.882051302941197
"1465",17,33,1,2,25,3,1,0,1,1.08838135782835,1.12835422509841
"1466",17,20,1,1,26,2,2,0,2,0.618205254448094,0.562916078980476
"1467",17,22,1,2,27,2,2,1,3,0.579838857458442,0.618201447831218
"1468",17,20,1,2,28,1,1,0,3,0.345609059249305,0.332364777154085
"1469",17,25,1,2,29,3,1,0,2,0.883767658603514,0.833395905021437
"1470",17,31,1,2,30,1,2,1,5,0.46504308836244,0.470553636130393
"1471",17,37,1,2,31,1,2,1,5,0.320029810114188,0.310908022111009
"1472",17,30,1,2,32,1,2,1,4,0.338092716401789,0.278076791487253
"1473",17,39,1,1,33,2,1,1,4,0.706580015696609,0.677986073688656
"1474",17,21,1,1,34,2,1,1,3,0.545218306290007,0.513575269539927
"1475",17,33,1,2,35,2,2,1,4,0.544397251367513,0.453935397846642
"1476",17,20,1,1,36,2,2,0,2,0.582214144533377,0.530847545287057
"1477",17,22,1,2,37,1,2,1,5,0.295729229316978,0.311857844934358
"1478",17,20,1,2,38,1,2,1,4,0.41568025394808,0.439225117041296
"1479",17,25,1,1,39,2,2,0,3,0.603761532337038,0.600890813988725
"1480",17,31,1,2,40,2,1,0,2,0.457740827172808,0.481016461563137
"1481",17,37,1,2,41,3,2,1,2,1.23229619638866,1.21635455313297
"1482",17,30,1,2,42,1,2,1,5,0.335721448170347,0.325307750319951
"1483",17,39,1,1,43,3,1,1,2,0.825680253585004,0.790704965849124
"1484",17,21,1,1,44,1,1,1,5,0.244172509346108,0.188530335704003
"1485",17,33,1,2,45,3,2,1,3,0.67901793218221,0.60619244589722
"1486",17,20,1,2,46,3,2,1,3,0.838136243620384,0.856290028703158
"1487",17,22,1,1,47,1,2,0,4,0.372490443662397,0.371461186954349
"1488",17,20,1,2,48,2,1,0,3,0.777421365935441,0.769526507401488
"1489",17,25,1,1,49,3,1,1,3,0.470763713506456,0.458498551472065
"1490",17,31,1,2,50,3,1,0,2,0.78243032590679,0.70939815328977
"1491",17,37,1,2,51,1,2,1,4,0.35794435088179,0.271971564896745
"1492",17,30,1,2,52,2,2,1,3,0.575977147878135,0.525486854566222
"1493",17,39,1,2,53,3,2,1,3,0.967978763588,0.977285630179076
"1494",17,21,1,1,54,3,2,0,1,0.868021275560344,0.865797698697962
"1495",17,33,1,1,55,3,1,1,3,0.676066818534179,0.657020555566682
"1496",17,20,1,2,56,1,2,1,5,0.178446062841931,0.127746437482021
"1497",17,22,1,1,57,1,1,1,5,0.4039250896163,0.399412974291288
"1498",17,20,1,2,58,2,1,0,2,0.874029081896628,0.860958296753172
"1499",17,25,1,1,59,2,2,0,2,0.557232618988148,0.563449258803276
"1500",17,31,1,1,60,1,2,0,3,0.560681981391746,0.657224567731051
"1501",17,37,1,1,61,3,1,1,2,1.0150367979747,1.01419852452423
"1502",17,30,1,2,62,1,2,1,5,0.329719517057887,0.357320377024244
"1503",17,39,1,2,63,2,2,1,3,0.679466139626006,0.70650854140436
"1504",17,21,1,2,64,2,2,1,3,0.75501479191848,0.6742452807995
"1505",17,33,1,1,65,1,1,1,5,0.449976845022069,0.40745662756508
"1506",17,20,1,1,66,1,2,0,3,0.39796176177661,0.405932198319502
"1507",17,22,1,1,67,2,2,0,2,0.679220426910925,0.71853025727487
"1508",17,20,1,1,68,2,1,1,3,0.776357172942892,0.687184449967858
"1509",17,25,1,2,69,2,1,0,3,0.637932955067777,0.598333919382249
"1510",17,31,1,2,70,3,1,0,2,0.305593194312483,0.26593246933592
"1511",17,37,1,2,71,2,1,0,3,0.806706787907415,0.831281716245315
"1512",17,30,1,1,72,1,1,1,4,0.499076229058365,0.559007240907958
"1513",17,39,1,1,73,1,1,1,4,0.280378357528483,0.279122343862283
"1514",17,21,1,2,74,2,1,0,2,0.628865483636208,0.696419854140837
"1515",17,33,1,1,75,3,1,1,2,0.939363241175775,0.875218994748892
"1516",17,20,1,1,76,3,1,1,3,0.961179596609684,0.959341919987226
"1517",17,22,1,1,77,2,1,1,3,0.544481458983994,0.506929072421167
"1518",17,20,1,2,78,2,1,0,2,0.662670811757518,0.709363245290687
"1519",17,25,1,2,79,3,2,1,2,0.614109365573837,0.552954490341715
"1520",17,31,1,1,80,1,2,0,4,0.602812893366479,0.586048246088414
"1521",17,37,1,2,81,3,2,1,2,1.03565660887807,1.01931464359527
"1522",17,30,1,2,82,2,1,0,3,1.00174048516389,0.952543723388404
"1523",17,39,1,2,83,1,1,0,4,0.606443951951165,0.646169695029497
"1524",17,21,1,1,84,1,1,1,4,0.319646958565444,0.320003883381725
"1525",17,33,1,2,85,1,2,1,5,0.441011132137483,0.426889889931395
"1526",17,20,1,2,86,3,2,1,2,1.20404263899614,1.23400285260052
"1527",17,22,1,2,87,3,2,1,2,0.665618370199776,0.62401473063229
"1528",17,20,1,2,88,3,1,0,1,0.822243384643862,0.798976612096975
"1529",17,25,1,1,89,2,2,0,2,0.650509472604797,0.586290116804257
"1530",17,31,1,2,90,2,2,1,3,0.536088676454014,0.521335710922067
"1531",17,37,1,1,91,1,1,1,4,0.44105564620883,0.403042719351207
"1532",17,30,1,2,92,1,1,0,4,0.631178990130572,0.567499146454986
"1533",17,39,1,1,93,2,1,1,4,0.452668086574024,0.553575828496396
"1534",17,21,1,1,94,1,1,1,4,0.455432757709037,0.429382323392953
"1535",17,33,1,2,95,3,1,0,2,1.45340408151634,1.50575033150355
"1536",17,20,1,2,96,2,1,0,3,0.729636771515807,0.779031523636798
"1537",17,22,1,2,97,2,2,1,3,0.680341656758213,0.721493594382648
"1538",17,20,1,1,98,3,1,1,2,0.652646863332561,0.730565529196235
"1539",17,25,1,1,99,1,1,1,5,0.437630992696934,0.397059421462665
"1540",17,31,1,1,100,2,2,0,2,0.662135729339072,0.620694662075001
"1541",17,37,1,2,101,1,2,1,5,0.289847485093959,0.315013679042392
"1542",17,30,1,2,102,1,1,0,4,0.615159160487593,0.588377507744722
"1543",17,39,1,1,103,1,1,1,4,0.36258248405853,0.312261292960628
"1544",17,21,1,2,104,2,1,0,3,0.733138409913243,0.69190685920051
"1545",17,33,1,2,105,1,2,1,4,0.448974352368828,0.374646771772068
"1546",17,20,1,1,106,3,2,0,2,1.3031235281121,1.32534715937305
"1547",17,22,1,2,107,1,2,1,5,0.418639260555681,0.432436086249885
"1548",17,20,1,1,108,3,1,1,2,0.654516856476989,0.587418612336212
"1549",17,25,1,1,109,3,2,0,2,0.758377467688176,0.772376719469337
"1550",17,31,1,1,110,2,2,0,2,0.882228568590927,0.854377375706835
"1551",17,37,1,1,111,2,2,0,3,0.771402641562407,0.806942735768965
"1552",17,30,1,1,112,3,2,0,1,0.601800910185075,0.525995703522496
"1553",17,39,1,1,113,2,2,0,3,0.777640194374839,0.754118362795386
"1554",17,21,1,1,114,1,1,1,4,0.448946022530504,0.452134409333373
"1555",17,33,1,2,115,3,1,0,1,0.680229344870412,0.633628446334267
"1556",17,20,1,1,116,2,1,1,4,0.684604291630598,0.571739186029922
"1557",17,22,1,2,117,3,1,0,2,1.14559481687898,1.26371496172148
"1558",17,20,1,1,118,1,1,1,5,0.388624964632776,0.445804019084257
"1559",17,25,1,2,119,2,1,0,2,0.849776672241963,0.813636837654217
"1560",17,31,1,1,120,2,1,1,4,0.362046952459778,0.485680297925949
"1561",17,37,1,1,121,2,1,1,4,0.682606015389001,0.639485194139363
"1562",17,30,1,2,122,3,1,0,1,1.34622375473836,1.38172611202875
"1563",17,39,1,2,123,1,2,1,5,0.465209387417304,0.386290571055379
"1564",17,21,1,2,124,2,2,1,4,0.461994650117339,0.34593982028939
"1565",17,33,1,1,125,2,1,1,3,0.371515263962131,0.364522889511545
"1566",17,20,1,1,126,3,1,1,2,0.790441996719225,0.782711605768847
"1567",17,22,1,1,127,3,2,0,2,0.67271263686025,0.595654217108505
"1568",17,20,1,2,128,2,1,0,3,1.0367226313292,1.05201488683191
"1569",17,25,1,1,129,1,1,1,5,0.556839240389413,0.58168114810953
"1570",17,31,1,2,130,2,2,1,3,0.600944557328888,0.674467713768691
"1571",17,37,1,1,131,2,1,1,3,0.699547259285781,0.75978182571526
"1572",17,30,1,2,132,3,2,1,3,1.02663618376143,1.00187215288458
"1573",17,39,1,2,133,1,2,1,4,0.265080824701403,0.272011666706483
"1574",17,21,1,2,134,1,2,1,5,0.343434930243373,0.345192784414948
"1575",17,33,1,1,135,3,2,0,2,1.02816554026009,1.04601858174888
"1576",17,20,1,1,136,3,2,0,1,1.78455159769027,1.76327541759793
