"","subj_no","age","group","stim","trial","difficulty","resp","corr","conf","RT_day1","RT_day2"
"1",24,35,2,2,1,3,2,1,3,0.958276133201179,1.02691340268305
"2",24,19,2,1,2,1,2,0,3,0.488198710740249,0.464633136168439
"3",24,31,2,1,3,3,1,1,2,0.514728305360232,0.504621834995294
"4",24,37,2,2,4,1,2,1,5,0.407667181405587,0.403241608973869
"5",24,26,2,1,5,1,1,1,4,0.414818899957519,0.386016230301218
"6",24,29,2,1,6,2,1,1,3,0.729353572439048,0.807430976495917
"7",24,29,2,2,7,2,2,1,3,0.553767316439423,0.509370940991831
"8",24,21,2,2,8,1,2,1,4,0.336144863794399,0.392082163066872
"9",24,27,2,1,9,3,1,1,3,0.791080119508274,0.788765914356179
"10",24,18,2,1,10,3,2,0,2,1.06748300919567,1.16779526516878
"11",24,35,2,1,11,3,2,0,1,1.5901727965242,1.6777932464556
"12",24,19,2,2,12,2,2,1,3,0.759178515992319,0.750145991652302
"13",24,31,2,2,13,1,2,1,4,0.363812771495956,0.274110547158077
"14",24,37,2,2,14,1,1,0,3,0.560436733338382,0.483283727757429
"15",24,26,2,2,15,2,1,0,2,0.711210949487094,0.642048421427802
"16",24,29,2,2,16,3,2,1,2,0.713601366089005,0.665208282752241
"17",24,29,2,2,17,3,1,0,2,1.34000944472361,1.28056193294601
"18",24,21,2,1,18,3,2,0,2,0.588598414882229,0.580350463111105
"19",24,27,2,2,19,1,2,1,5,0.448591924872706,0.43735964639237
"20",24,18,2,1,20,2,2,0,3,0.672851410294554,0.719662395521044
"21",24,35,2,1,21,2,2,0,2,0.829508760452288,0.818391326437367
"22",24,19,2,1,22,3,2,0,1,0.98236962442517,1.00170728435939
"23",24,31,2,1,23,3,1,1,2,0.545428466406285,0.522966106374845
"24",24,37,2,2,24,1,2,1,5,0.348335291767228,0.43874398809096
"25",24,26,2,2,25,1,2,1,5,0.446865492579081,0.432397899088711
"26",24,29,2,1,26,2,1,1,3,0.642446802313359,0.61425333661475
"27",24,29,2,1,27,3,2,0,2,1.64132860933973,1.58536997856126
"28",24,21,2,2,28,2,1,0,2,0.855803671662049,0.842168948825265
"29",24,27,2,2,29,2,2,1,3,0.803517142593732,0.896797259508732
"30",24,18,2,1,30,1,1,1,5,0.44917804327806,0.415249293472097
"31",24,35,2,1,31,3,1,1,3,0.365980692213544,0.425337234575143
"32",24,19,2,1,32,3,1,1,2,0.926945552096229,0.940782789742779
"33",24,31,2,2,33,1,2,1,4,0.408683976311549,0.449244870157429
"34",24,37,2,1,34,3,2,0,1,0.712756093293213,0.700081988221183
"35",24,26,2,2,35,1,2,1,4,0.321537328324045,0.2921231672653
"36",24,29,2,1,36,2,1,1,4,0.512751234379294,0.484728667701809
"37",24,29,2,1,37,1,1,1,5,0.403649160565428,0.518721499515712
"38",24,21,2,2,38,2,2,1,4,0.420257080102043,0.435907698175539
"39",24,27,2,2,39,1,2,1,5,0.435681140462703,0.485513157312485
"40",24,18,2,2,40,2,2,1,4,0.526783932633223,0.508101089773302
"41",24,35,2,1,41,1,1,1,5,0.450505024697492,0.410327415337564
"42",24,19,2,2,42,1,2,1,4,0.261064413958543,0.319304793425084
"43",24,31,2,2,43,2,1,0,3,0.733279146007851,0.69035031543003
"44",24,37,2,1,44,1,2,0,4,0.499241390835475,0.473160249235062
"45",24,26,2,2,45,3,2,1,2,0.921380939824698,0.926919207413539
"46",24,29,2,1,46,3,1,1,3,0.531758958681774,0.501887368920283
"47",24,29,2,1,47,3,2,0,2,0.382737621584257,0.321984101295418
"48",24,21,2,1,48,1,1,1,4,0.260635057358052,0.188086459670204
"49",24,27,2,1,49,3,2,0,1,0.82788419347674,0.866140462545207
"50",24,18,2,2,50,2,1,0,2,0.504672295391817,0.464027282224314
"51",24,35,2,1,51,3,1,1,2,1.04768076036531,1.10793137352747
"52",24,19,2,2,52,1,2,1,5,0.425264651108038,0.369290658538313
"53",24,31,2,2,53,2,1,0,2,0.638291683431518,0.590154208742894
"54",24,37,2,2,54,1,2,1,4,0.40821697025612,0.378307831432649
"55",24,26,2,2,55,2,1,0,2,0.791352846356739,0.799949523230971
"56",24,29,2,1,56,3,1,1,3,0.954442367099691,0.969825831895375
"57",24,29,2,1,57,1,2,0,3,0.425181337978963,0.408161707357439
"58",24,21,2,1,58,1,1,1,4,0.409552995189006,0.396942340951723
"59",24,27,2,1,59,2,1,1,3,0.441725526330564,0.417566080480167
"60",24,18,2,1,60,3,2,0,2,0.384229925880944,0.340796250873589
"61",24,35,2,2,61,3,1,0,1,1.22747123794057,1.28751039610895
"62",24,19,2,1,62,3,1,1,3,1.27451226592245,1.23005911741911
"63",24,31,2,1,63,2,1,1,4,0.66114812111072,0.732432032980098
"64",24,37,2,2,64,1,2,1,4,0.388803333847535,0.374291327054586
"65",24,26,2,2,65,1,2,1,4,0.360669152550665,0.35519958306544
"66",24,29,2,2,66,1,2,1,5,0.373192995370357,0.379692716313989
"67",24,29,2,2,67,1,1,0,3,0.572943700675576,0.637090731608046
"68",24,21,2,1,68,1,1,1,4,0.449410508345964,0.398944942630101
"69",24,27,2,1,69,3,1,1,3,0.730849231810496,0.766867799025006
"70",24,18,2,2,70,3,2,1,2,0.693686000979097,0.830008729096181
"71",24,35,2,1,71,2,2,0,3,0.724150503746356,0.735695676048301
"72",24,19,2,1,72,2,1,1,4,0.654451196782753,0.680668504912697
"73",24,31,2,2,73,1,2,1,5,0.430689534185605,0.359945507009979
"74",24,37,2,2,74,3,2,1,2,0.95964505695222,0.927575429283402
"75",24,26,2,1,75,3,1,1,2,0.94662926581329,0.951217848550524
"76",24,29,2,1,76,2,2,0,2,0.388828418025859,0.384574002440081
"77",24,29,2,2,77,2,2,1,3,0.87023604499299,0.894349405804496
"78",24,21,2,1,78,1,1,1,5,0.413027535418333,0.418934905259357
"79",24,27,2,1,79,1,1,1,4,0.427542020354029,0.429066986297092
"80",24,18,2,1,80,3,1,1,3,0.758753743982896,0.701313884026957
"81",24,35,2,2,81,2,2,1,3,0.829019353104957,0.790161969500426
"82",24,19,2,1,82,3,1,1,3,1.0501615922033,1.05318220504229
"83",24,31,2,2,83,3,2,1,3,1.183504600583,1.1288862443378
"84",24,37,2,1,84,2,2,0,2,0.457218759610208,0.428190218510265
"85",24,26,2,1,85,3,1,1,2,0.701952018880335,0.774188355806463
"86",24,29,2,1,86,1,1,1,4,0.466706442543658,0.515518957875322
"87",24,29,2,2,87,2,2,1,3,0.700972831234425,0.698464211052192
"88",24,21,2,2,88,2,2,1,3,0.552908005151073,0.529535670253619
"89",24,27,2,2,89,1,2,1,4,0.393057531070867,0.432827388957617
"90",24,18,2,1,90,2,2,0,2,0.535531508603414,0.501159423796862
"91",24,35,2,2,91,1,2,1,4,0.358910688879797,0.38609061939764
"92",24,19,2,2,92,1,2,1,4,0.528563064447155,0.553395782353556
"93",24,31,2,2,93,3,1,0,1,1.20830982699058,1.23419499864414
"94",24,37,2,2,94,1,2,1,4,0.440653908142,0.360974786939437
"95",24,26,2,1,95,1,1,1,4,0.397321303641628,0.284299332347195
"96",24,29,2,2,96,3,1,0,2,1.19534114792412,1.24832911961436
"97",24,29,2,1,97,3,1,1,2,0.979821237756924,0.853608521937101
"98",24,21,2,1,98,1,1,1,4,0.364212730087787,0.42607801823564
"99",24,27,2,2,99,1,1,0,3,0.554184734214856,0.574062260474255
"100",24,18,2,2,100,2,2,1,3,0.387067254196896,0.376760557507729
"101",24,35,2,2,101,3,2,1,2,0.576256037490362,0.516668757928393
"102",24,19,2,2,102,2,1,0,3,0.91198228883753,0.94194750977516
"103",24,31,2,2,103,3,2,1,2,0.637673853637645,0.58690040341136
"104",24,37,2,2,104,2,1,0,2,0.714146509136133,0.713196780250332
"105",24,26,2,2,105,1,2,1,4,0.352023514855545,0.330745863929336
"106",24,29,2,2,106,3,1,0,2,0.804171725698226,0.885602449408507
"107",24,29,2,2,107,2,2,1,3,0.493445451149265,0.571467245892008
"108",24,21,2,2,108,3,1,0,2,0.597390904577822,0.5270138661633
"109",24,27,2,1,109,2,2,0,2,0.806573735652791,0.807101111613729
"110",24,18,2,2,110,1,2,1,4,0.314384492257463,0.258947947615237
"111",24,35,2,2,111,3,2,1,2,0.936609109830183,0.99568754161035
"112",24,19,2,1,112,1,1,1,4,0.599345955383635,0.656026044117922
"113",24,31,2,2,113,1,2,1,4,0.501226662878477,0.570168529386527
"114",24,37,2,2,114,3,1,0,2,0.811846120706649,0.902490276670278
"115",24,26,2,2,115,2,1,0,2,0.645292523764508,0.714373713990583
"116",24,29,2,1,116,1,2,0,3,0.561541115247963,0.633356964924255
"117",24,29,2,1,117,2,2,0,2,0.624731732382831,0.618076514383909
"118",24,21,2,1,118,2,1,1,4,0.401187641885226,0.323342215122747
"119",24,27,2,1,119,3,2,0,1,1.08508911057105,1.01809806016455
"120",24,18,2,2,120,3,1,0,1,0.58923875013878,0.600341530191149
"121",24,35,2,2,121,3,1,0,1,0.873999396853663,0.844533526158715
"122",24,19,2,1,122,2,2,0,3,0.894198950138154,0.814910093846801
"123",24,31,2,1,123,1,1,1,4,0.344307093984743,0.293022789468366
"124",24,37,2,1,124,1,1,1,5,0.28595149141892,0.296457252876646
"125",24,26,2,2,125,3,1,0,1,1.0426692563468,1.03166691765843
"126",24,29,2,2,126,2,2,1,4,0.418864255934788,0.451653869057942
"127",24,29,2,2,127,3,2,1,2,1.16014936996638,1.24185919669005
"128",24,21,2,1,128,3,2,0,1,1.29994707472654,1.32540400436053
"129",24,27,2,2,129,3,2,1,2,0.779171729255797,0.723150498118199
"130",24,18,2,1,130,2,1,1,3,0.557785924280651,0.540969071090108
"131",24,35,2,2,131,3,2,1,3,0.947984041355437,0.895905424906249
"132",24,19,2,1,132,2,1,1,4,0.635690020867472,0.64219513798103
"133",24,31,2,2,133,3,2,1,3,0.665305501342542,0.715358211928987
"134",24,37,2,1,134,1,1,1,5,0.395201370648371,0.41859119953846
"135",24,26,2,1,135,2,1,1,4,0.624769140398397,0.560657808144925
"136",24,29,2,1,136,2,2,0,3,0.695223357319822,0.732812032169569
"137",24,29,2,2,137,1,2,1,4,0.509730677951313,0.51859862419963
"138",24,21,2,1,138,3,1,1,2,0.941295073577213,0.883787206042554
"139",24,27,2,1,139,1,1,1,5,0.349907825125265,0.354387028701081
"140",24,18,2,1,140,2,2,0,2,0.604411449690747,0.59994518148666
"141",24,35,2,1,141,1,1,1,5,0.375799881612456,0.342809756760789
"142",24,19,2,2,142,3,2,1,2,0.649433077025951,0.713753558824106
"143",24,31,2,2,143,1,2,1,5,0.330994051639018,0.387414091819921
"144",24,37,2,2,144,1,2,1,5,0.343788145211712,0.329123023276811
"145",24,26,2,2,145,2,1,0,2,0.704685857245631,0.722037081769266
"146",24,29,2,2,146,2,1,0,2,0.940401535885493,0.911082900933366
"147",24,29,2,1,147,1,2,0,4,0.529642489255351,0.585058254691906
"148",24,21,2,1,148,1,1,1,4,0.384094183549743,0.363041980430331
"149",24,27,2,1,149,3,2,0,1,1.60910779628698,1.49874131816
"150",24,18,2,2,150,2,2,1,3,0.651122607486751,0.591971749820481
"151",24,35,2,1,151,2,1,1,3,0.644090246406888,0.626197442986563
"152",24,19,2,1,152,2,1,1,3,0.531455596035966,0.618902144936638
"153",24,31,2,1,153,2,1,1,3,0.575695932976462,0.616412713770304
"154",24,37,2,1,154,3,1,1,3,0.635785152753296,0.625462561865619
"155",24,26,2,1,155,3,2,0,1,0.647538204112147,0.711632160022655
"156",24,29,2,1,156,1,1,1,4,0.379126399379507,0.39625443293799
"157",24,29,2,1,157,3,1,1,2,0.875110565615532,0.94060710602381
"158",24,21,2,1,158,2,2,0,3,1.08917230363809,1.10184765047207
"159",24,27,2,2,159,2,1,0,3,0.906193565935412,0.908250622907726
"160",24,18,2,1,160,2,1,1,4,0.504832575492227,0.529067985883227
"161",24,35,2,2,161,1,2,1,4,0.405353377044687,0.45669535871901
"162",24,19,2,2,162,2,1,0,3,0.654977714222119,0.612589025097994
"163",24,31,2,1,163,2,2,0,2,0.738206827017693,0.758730739355281
"164",24,37,2,1,164,2,2,0,3,0.561583287710309,0.583310657912779
"165",24,26,2,2,165,3,1,0,1,1.17942400041781,1.28287886115199
"166",24,29,2,1,166,2,1,1,3,0.620507962748351,0.586611799065826
"167",24,29,2,1,167,1,2,0,4,0.825997044052188,0.866427813553141
"168",24,21,2,1,168,3,1,1,3,0.812757301007913,0.748678220607723
"169",24,27,2,2,169,2,2,1,4,0.449941553496156,0.443295675587379
"170",24,18,2,2,170,2,2,1,3,0.575052094771547,0.488628210155724
"171",24,35,2,1,171,1,2,0,4,0.469728265167588,0.511693680276103
"172",24,19,2,1,172,3,1,1,2,0.977000459853064,1.00195724230471
"173",24,31,2,1,173,2,1,1,4,0.52596376402281,0.496054255685057
"174",24,37,2,2,174,1,2,1,5,0.418314995803489,0.415471893667548
"175",24,26,2,1,175,1,2,0,3,0.480945199681669,0.395549314839083
"176",24,29,2,2,176,1,2,1,4,0.458966246733166,0.391484973770145
"177",24,29,2,2,177,1,2,1,4,0.352753251236594,0.360771707671339
"178",24,21,2,2,178,3,1,0,2,0.490195478286639,0.470853458744851
"179",24,27,2,2,179,1,2,1,5,0.429396182832813,0.480817600638659
"180",24,18,2,2,180,1,2,1,5,0.365625046646851,0.291701541419117
"181",24,35,2,2,181,3,1,0,1,0.606660195783547,0.650310030173792
"182",24,19,2,1,182,3,2,0,1,1.02219756379808,1.00156418945474
"183",24,31,2,2,183,1,2,1,5,0.444289637306622,0.481288216109519
"184",24,37,2,1,184,3,2,0,2,1.11806977727774,1.23628487224304
"185",24,26,2,2,185,2,2,1,4,0.612445521891924,0.714535109556654
"186",24,29,2,1,186,1,1,1,4,0.422857591080747,0.322562301266489
"187",24,29,2,1,187,3,2,0,1,1.27457271027532,1.30039477351285
"188",24,21,2,2,188,2,1,0,2,0.541853971893687,0.571380933850727
"189",24,27,2,1,189,2,2,0,2,0.634716607204967,0.619930615936833
"190",24,18,2,2,190,2,2,1,3,0.609018765607019,0.507139457269414
"191",24,35,2,2,191,2,2,1,3,0.727384329498161,0.76451847464507
"192",24,19,2,1,192,1,1,1,4,0.401645613493381,0.453354987129307
"193",24,31,2,2,193,2,2,1,3,0.582264486126301,0.52868094590606
"194",24,37,2,2,194,1,1,0,4,0.526934890951227,0.577008944290282
"195",24,26,2,1,195,3,1,1,2,0.356532202625648,0.402456288558885
"196",24,29,2,1,196,1,1,1,5,0.457202996169877,0.467849559937904
"197",24,29,2,1,197,1,2,0,3,0.564440576400317,0.61526089529605
"198",24,21,2,1,198,2,1,1,3,0.587390867229343,0.550794389860683
"199",24,27,2,2,199,3,2,1,2,0.949289914164812,0.971555408795831
"200",24,18,2,2,200,3,1,0,2,0.906475636464138,0.855829572342483
"201",24,35,2,2,201,2,1,0,2,0.679192609454889,0.767293260739653
"202",24,19,2,2,202,3,1,0,2,1.41850044048814,1.40814015993467
"203",24,31,2,2,203,3,1,0,2,1.02297561997402,1.00653133577431
"204",24,37,2,2,204,3,1,0,1,0.512784103142503,0.511418492871793
"205",24,26,2,1,205,3,1,1,2,1.14822827217921,1.09814546765199
"206",24,29,2,1,206,1,1,1,5,0.308906483094699,0.405297383180972
"207",24,29,2,1,207,2,1,1,4,0.657556997279488,0.639389558743546
"208",24,21,2,2,208,1,2,1,4,0.353799048890216,0.355686821261578
"209",24,27,2,1,209,1,1,1,4,0.388909128522771,0.368386421978434
"210",24,18,2,1,210,1,2,0,4,0.470620912530338,0.518929220595483
"211",24,35,2,2,211,3,1,0,1,0.824282645113854,0.930350310228144
"212",24,19,2,2,212,2,1,0,3,0.397595277143439,0.379214842207597
"213",24,31,2,1,213,1,2,0,3,0.455263373521754,0.477684705868893
"214",24,37,2,2,214,2,1,0,2,1.01314877195441,0.991015354623666
"215",24,26,2,2,215,2,2,1,4,0.680894638242921,0.682980059692798
"216",24,29,2,1,216,2,2,0,3,0.621102553135012,0.588478956764953
"217",24,29,2,1,217,3,2,0,2,1.07282778682224,1.17790147983501
"218",24,21,2,1,218,2,1,1,4,0.5583472838111,0.540915404983596
"219",24,27,2,2,219,3,2,1,3,0.940161099735192,0.929316589102142
"220",24,18,2,2,220,3,1,0,1,0.630668517097199,0.592760778654298
"221",24,35,2,2,221,1,1,0,3,0.555243497355975,0.567940764354637
"222",24,19,2,1,222,1,2,0,3,0.475124729326247,0.44440847606395
"223",24,31,2,2,223,1,2,1,4,0.33119468599517,0.367400957200661
"224",24,37,2,2,224,2,1,0,3,0.531681129903853,0.616857060875396
"225",24,26,2,2,225,2,1,0,2,0.764206106047849,0.764895205601444
"226",24,29,2,1,226,3,2,0,1,1.40382154079159,1.41974398446994
"227",24,29,2,2,227,1,2,1,4,0.354291308773893,0.353955894713981
"228",24,21,2,1,228,2,1,1,4,0.881403851234532,0.831057336743556
"229",24,27,2,2,229,2,2,1,3,0.598706118508051,0.582947207475245
"230",24,18,2,1,230,2,1,1,3,0.628459183104399,0.650594637298496
"231",24,35,2,2,231,3,2,1,2,0.80545595089089,0.846775987747508
"232",24,19,2,1,232,2,2,0,3,0.371379676864896,0.434115090257761
"233",24,31,2,1,233,3,1,1,3,0.600481462660886,0.636458337950914
"234",24,37,2,2,234,2,2,1,3,0.768523016413156,0.775997057108797
"235",24,26,2,2,235,3,2,1,2,0.915288583379386,0.796313349106283
"236",24,29,2,2,236,1,2,1,4,0.440788067758968,0.376498401455876
"237",24,29,2,1,237,1,1,1,5,0.408438261435643,0.392994212299736
"238",24,21,2,1,238,3,2,0,2,0.712586432507679,0.671055736549032
"239",24,27,2,1,239,3,1,1,2,0.74365329648909,0.805965478212654
"240",24,18,2,1,240,2,2,0,2,0.49922633126452,0.43849952412528
"241",23,32,1,2,1,1,1,0,3,0.609397121867317,0.711024182387038
"242",23,18,1,1,2,1,1,1,5,0.403307123412471,0.386952724407756
"243",23,39,1,2,3,3,1,0,2,1.13493109315224,1.1065761447016
"244",23,25,1,2,4,3,1,0,1,0.832538134338265,0.859734885806064
"245",23,25,1,1,5,2,1,1,4,0.560808193405609,0.602870744942694
"246",23,37,1,1,6,3,1,1,3,0.668914714106144,0.591239675402403
"247",23,33,1,2,7,1,2,1,4,0.381894213428192,0.443577079201171
"248",23,19,1,1,8,2,1,1,4,0.674818548053177,0.563532298975041
"249",23,19,1,2,9,2,2,1,3,0.623478508797501,0.624421759260106
"250",23,25,1,2,10,3,1,0,1,0.950175695193688,0.960405462383419
"251",23,32,1,1,11,3,2,0,1,1.42681322903816,1.49523937000082
"252",23,18,1,2,12,2,1,0,3,0.833977494872017,0.877182461064239
"253",23,39,1,2,13,3,1,0,2,0.696557676891385,0.731212620145866
"254",23,25,1,2,14,3,1,0,1,0.741526982733391,0.72460176102999
"255",23,25,1,2,15,1,1,0,4,0.380895395354307,0.342610799782295
"256",23,37,1,1,16,1,1,1,4,0.325755141578916,0.364680406945987
"257",23,33,1,1,17,3,1,1,3,0.876042771242136,0.840001847907317
"258",23,19,1,1,18,3,2,0,1,1.64550532451718,1.65180185787715
"259",23,19,1,1,19,1,2,0,3,0.558898219111513,0.608928807629401
"260",23,25,1,1,20,1,1,1,4,0.495577471812511,0.503650441316138
"261",23,32,1,1,21,2,2,0,2,0.69247877726721,0.695172719083165
"262",23,18,1,2,22,1,2,1,4,0.460164994174161,0.462086472629172
"263",23,39,1,2,23,2,1,0,2,1.13148108108242,1.13535284465244
"264",23,25,1,1,24,1,2,0,4,0.446451299659337,0.403325495720507
"265",23,25,1,2,25,2,2,1,4,0.512171051534236,0.581530287895906
"266",23,37,1,2,26,2,1,0,2,0.762372107059159,0.788291508513283
"267",23,33,1,1,27,1,1,1,4,0.423909052655664,0.45092489903843
"268",23,19,1,1,28,2,1,1,3,0.438690835543373,0.451473407305732
"269",23,19,1,2,29,3,2,1,3,0.800510966781081,0.888673233686278
"270",23,25,1,2,30,3,2,1,2,0.988616939100536,1.10561518645222
"271",23,32,1,1,31,1,1,1,5,0.417935861919077,0.528751552819217
"272",23,18,1,2,32,2,1,0,3,0.833135087622838,0.800633656832447
"273",23,39,1,1,33,3,1,1,3,0.575705959942523,0.561175572246485
"274",23,25,1,1,34,1,2,0,4,0.56092614069463,0.628115277967924
"275",23,25,1,2,35,1,2,1,4,0.462326692675412,0.510695643662814
"276",23,37,1,1,36,3,2,0,1,1.5033994096089,1.52545698184999
"277",23,33,1,1,37,2,2,0,2,0.662220487018445,0.594414020620419
"278",23,19,1,1,38,3,2,0,1,1.227622038899,1.18083559645226
"279",23,19,1,1,39,3,2,0,1,1.26353206584409,1.28040134691354
"280",23,25,1,2,40,2,2,1,4,0.633489704232084,0.637128291205614
"281",23,32,1,1,41,2,1,1,3,0.609238552661468,0.63779914801682
"282",23,18,1,2,42,1,2,1,4,0.318223414808699,0.295659866542338
"283",23,39,1,2,43,1,1,0,4,0.589164095918976,0.619628745276944
"284",23,25,1,1,44,2,1,1,4,0.450886640312356,0.428433000836975
"285",23,25,1,2,45,2,1,0,2,0.853999628499832,0.909442918148277
"286",23,37,1,1,46,3,2,0,2,1.03114688359372,0.915060637228659
"287",23,33,1,2,47,2,2,1,4,0.342337617223124,0.330403131274435
"288",23,19,1,1,48,3,1,1,2,0.604595764320879,0.685130505098157
"289",23,19,1,2,49,2,2,1,3,0.413068370509455,0.469241476242431
"290",23,25,1,2,50,3,2,1,3,0.726309936093666,0.759796592355633
"291",23,32,1,2,51,3,2,1,2,0.756696711308754,0.763658265756245
"292",23,18,1,1,52,3,1,1,3,0.888333993192393,0.906688561305959
"293",23,39,1,1,53,1,1,1,5,0.33538053558341,0.310724845431696
"294",23,25,1,2,54,2,1,0,2,0.664221228912931,0.689669098086241
"295",23,25,1,2,55,2,2,1,3,0.64624690504463,0.671199661714295
"296",23,37,1,1,56,3,1,1,3,0.854991543619029,0.932333531873629
"297",23,33,1,2,57,3,1,0,1,0.957822209750376,1.01393597630571
"298",23,19,1,2,58,1,2,1,4,0.3503618531935,0.397816194562064
"299",23,19,1,1,59,2,2,0,3,1.00161553560911,0.921005853071317
"300",23,25,1,2,60,1,1,0,3,0.419033787241166,0.342034640767369
"301",23,32,1,2,61,1,2,1,5,0.379345172727812,0.391527417100501
"302",23,18,1,2,62,1,2,1,4,0.502153864508609,0.541687653014111
"303",23,39,1,1,63,1,1,1,5,0.416226906851874,0.396234701675247
"304",23,25,1,2,64,3,1,0,2,1.05957582492542,1.03076447874214
"305",23,25,1,2,65,3,1,0,1,1.27029030517212,1.24731742020713
"306",23,37,1,1,66,1,1,1,5,0.467792409448054,0.465504173407563
"307",23,33,1,1,67,3,1,1,2,0.728135828266192,0.758231495385108
"308",23,19,1,2,68,2,2,1,3,0.506480641213443,0.505836716661982
"309",23,19,1,1,69,2,2,0,2,0.541291694438261,0.47715379898086
"310",23,25,1,1,70,3,1,1,3,0.681868310237943,0.718897774662049
"311",23,32,1,1,71,2,1,1,4,0.671291699851579,0.696183216451773
"312",23,18,1,2,72,1,2,1,4,0.437247260271609,0.416392251317175
"313",23,39,1,2,73,3,2,1,3,0.708166117602741,0.678979444920247
"314",23,25,1,2,74,3,1,0,1,0.611008717458646,0.57813717876446
"315",23,25,1,1,75,1,1,1,5,0.342434670276906,0.309477828430458
"316",23,37,1,1,76,1,1,1,4,0.330060279459421,0.365831999546885
"317",23,33,1,2,77,3,1,0,1,0.955773074703878,0.97491587262621
"318",23,19,1,1,78,3,1,1,2,0.779184356257622,0.757849765119555
"319",23,19,1,2,79,1,2,1,5,0.548957256653867,0.470472216146093
"320",23,25,1,1,80,1,1,1,5,0.408297953830863,0.324047988117467
"321",23,32,1,2,81,1,2,1,4,0.177852189771687,0.183659517415451
"322",23,18,1,1,82,1,2,0,4,0.539766681254658,0.661637684869641
"323",23,39,1,1,83,3,2,0,2,0.972976663689688,0.947386955367569
"324",23,25,1,1,84,1,1,1,5,0.442833295671066,0.447717590341347
"325",23,25,1,2,85,3,2,1,3,0.900156604694302,0.988576591436449
"326",23,37,1,2,86,1,2,1,5,0.373977881455736,0.353255368439206
"327",23,33,1,2,87,3,1,0,2,0.459966468996961,0.443216349201732
"328",23,19,1,2,88,2,1,0,2,0.729230705443854,0.736797581341992
"329",23,19,1,1,89,2,1,1,4,0.5425955618072,0.540503443842197
"330",23,25,1,1,90,1,2,0,3,0.504832520440681,0.464021324569842
"331",23,32,1,2,91,1,2,1,5,0.365139770412184,0.39781225418044
"332",23,18,1,2,92,1,1,0,4,0.532256665724886,0.558923472340326
"333",23,39,1,2,93,2,2,1,4,0.589500283930681,0.627217518042401
"334",23,25,1,2,94,1,2,1,4,0.404326190367509,0.351779834254309
"335",23,25,1,1,95,2,1,1,4,0.73419045983362,0.697058711619064
"336",23,37,1,1,96,3,2,0,2,0.624024129175199,0.585619486515762
"337",23,33,1,2,97,1,2,1,4,0.272682939174276,0.326495829840955
"338",23,19,1,2,98,2,2,1,3,0.627845407321657,0.568304197293583
"339",23,19,1,2,99,3,2,1,2,0.818148941863996,0.908106689943592
"340",23,25,1,1,100,2,1,1,3,0.49383460407,0.613004179210809
"341",23,32,1,2,101,1,2,1,4,0.234952047974174,0.269835368020633
"342",23,18,1,1,102,2,2,0,3,0.455931769961067,0.407652516186436
"343",23,39,1,2,103,2,2,1,3,0.537949766285664,0.489970458357872
"344",23,25,1,1,104,2,1,1,3,0.424659862906374,0.381248612326473
"345",23,25,1,1,105,1,1,1,5,0.37280180738439,0.375842876228728
"346",23,37,1,1,106,1,1,1,4,0.322317429418706,0.2907598965242
"347",23,33,1,1,107,1,1,1,4,0.383510485404639,0.378296689217792
"348",23,19,1,1,108,2,1,1,4,0.486743531629113,0.583695900827344
"349",23,19,1,1,109,3,1,1,2,1.06563901220798,1.03500873807059
"350",23,25,1,1,110,1,1,1,5,0.195436304252713,0.15446065254114
"351",23,32,1,1,111,3,2,0,1,0.881998253754879,0.906202946159135
"352",23,18,1,2,112,2,2,1,4,0.611468405484209,0.569000689042026
"353",23,39,1,1,113,1,1,1,4,0.488152189609693,0.40580879483694
"354",23,25,1,2,114,1,2,1,4,0.354123575390989,0.368903074521764
"355",23,25,1,1,115,3,2,0,1,0.769174046635183,0.706800178318512
"356",23,37,1,2,116,3,1,0,1,0.869724164402907,0.935263184288096
"357",23,33,1,2,117,2,2,1,4,0.62649969054092,0.632414619800101
"358",23,19,1,2,118,1,1,0,4,0.579305585430633,0.635323573932832
"359",23,19,1,1,119,2,2,0,2,0.85844764032836,0.868102746398501
"360",23,25,1,1,120,2,2,0,3,0.810016796873799,0.883958899992353
"361",23,32,1,1,121,2,2,0,3,0.73962540730968,0.780775651869615
"362",23,18,1,1,122,2,1,1,3,0.46839279633614,0.446265180006681
"363",23,39,1,2,123,3,1,0,1,0.793992321366047,0.804793623406694
"364",23,25,1,1,124,1,1,1,4,0.412999113821066,0.467368501327553
"365",23,25,1,1,125,2,2,0,3,0.69274816704257,0.709385333943648
"366",23,37,1,2,126,1,2,1,5,0.468607925407077,0.56738722640312
"367",23,33,1,1,127,2,1,1,3,0.691515029090618,0.632770422257315
"368",23,19,1,1,128,1,1,1,5,0.41268896320546,0.464625896405091
"369",23,19,1,1,129,2,1,1,3,0.652877934607324,0.717770270090927
"370",23,25,1,1,130,2,1,1,4,0.481101352172122,0.433592442890255
"371",23,32,1,1,131,3,1,1,2,0.988913010388627,0.961478780401059
"372",23,18,1,2,132,2,2,1,3,0.636036368443023,0.629037790620971
"373",23,39,1,1,133,3,2,0,1,0.853829489269057,0.811031455529116
"374",23,25,1,2,134,1,2,1,4,0.326026279889203,0.388084111387672
"375",23,25,1,2,135,3,2,1,2,0.831119747915932,0.845369670956801
"376",23,37,1,2,136,2,1,0,2,0.530781084271862,0.540208217885032
"377",23,33,1,1,137,2,2,0,2,0.750993650079544,0.68536527095223
"378",23,19,1,1,138,1,1,1,5,0.229333927931147,0.222574061774717
"379",23,19,1,2,139,2,2,1,3,0.730799957928721,0.79010242226375
"380",23,25,1,2,140,2,1,0,3,0.836978372638608,0.810380921599151
"381",23,32,1,1,141,2,1,1,4,0.595397907404333,0.635939950845696
"382",23,18,1,2,142,3,2,1,3,0.534552611903353,0.48311654678987
"383",23,39,1,2,143,2,2,1,3,0.612190912792186,0.64100148532629
"384",23,25,1,2,144,3,2,1,3,0.626688731219722,0.624866365967483
"385",23,25,1,1,145,2,1,1,4,0.785259553978188,0.712885503261773
"386",23,37,1,2,146,1,2,1,5,0.40204635601085,0.476693441261191
"387",23,33,1,1,147,1,1,1,4,0.384867652147139,0.43933010400025
"388",23,19,1,2,148,2,1,0,3,0.6775879122639,0.718549752334784
"389",23,19,1,1,149,1,1,1,5,0.433550905494543,0.435387290685293
"390",23,25,1,1,150,3,2,0,2,0.902644469462938,0.924712059777022
"391",23,32,1,2,151,2,2,1,4,0.668662873835587,0.736988555786132
"392",23,18,1,2,152,3,1,0,2,1.03054353406835,1.07429845814718
"393",23,39,1,2,153,3,2,1,3,1.06248238249136,1.02726873515263
"394",23,25,1,2,154,1,2,1,4,0.439061899279936,0.498784376210757
"395",23,25,1,1,155,2,1,1,3,0.60362283901607,0.616687729190034
"396",23,37,1,2,156,2,2,1,3,0.811733987735249,0.722883441175925
"397",23,33,1,2,157,3,1,0,2,0.704972367383318,0.732538067919215
"398",23,19,1,1,158,3,1,1,3,0.619439911141988,0.549278090225621
"399",23,19,1,2,159,1,1,0,4,0.644758213503057,0.685169190960129
"400",23,25,1,2,160,2,2,1,3,0.731787008268244,0.614330011235575
"401",23,32,1,1,161,1,1,1,4,0.452852382659842,0.449303512735019
"402",23,18,1,2,162,2,2,1,3,0.628556630517942,0.640195427696253
"403",23,39,1,1,163,2,1,1,3,0.564446927326756,0.510736533632071
"404",23,25,1,2,164,2,2,1,4,0.754819842849873,0.763505331446313
"405",23,25,1,1,165,2,2,0,3,0.53776207368073,0.552099326218172
"406",23,37,1,2,166,1,2,1,5,0.373146930979661,0.327523129227402
"407",23,33,1,1,167,2,2,0,2,0.606131767737809,0.57987915434229
"408",23,19,1,2,168,2,2,1,4,0.623891379221191,0.539799038092609
"409",23,19,1,1,169,2,2,0,2,0.442951949077161,0.459262003936858
"410",23,25,1,2,170,3,1,0,2,1.33863122669843,1.37417393099286
"411",23,32,1,1,171,1,1,1,4,0.530046359449772,0.558961734667799
"412",23,18,1,1,172,1,1,1,4,0.42537303924252,0.475868354754426
"413",23,39,1,2,173,2,2,1,3,0.496445109081275,0.543291406132636
"414",23,25,1,1,174,3,2,0,2,0.581899606694592,0.475852771009918
"415",23,25,1,1,175,3,1,1,2,0.983696849418574,0.972295917508543
"416",23,37,1,2,176,3,1,0,1,1.46344171003065,1.49309329920945
"417",23,33,1,1,177,3,2,0,1,0.56215397709643,0.595231533706494
"418",23,19,1,2,178,3,2,1,2,0.776811854932468,0.752024997580337
"419",23,19,1,2,179,3,2,1,3,1.06201701118117,1.03349984686601
"420",23,25,1,2,180,1,1,0,3,0.476928096323059,0.399856758503397
"421",23,32,1,2,181,1,2,1,4,0.360797675523802,0.285384278933639
"422",23,18,1,1,182,2,2,0,3,0.729503360001893,0.79624899350875
"423",23,39,1,2,183,1,2,1,4,0.286233279233818,0.325981425680037
"424",23,25,1,1,184,1,1,1,4,0.458933643802227,0.452828306595885
"425",23,25,1,2,185,1,1,0,3,0.491381514616862,0.530229277954354
"426",23,37,1,1,186,3,1,1,2,1.16729155766566,1.13596172098893
"427",23,33,1,2,187,1,2,1,4,0.50302901171341,0.522996738086934
"428",23,19,1,1,188,3,1,1,2,1.06497443391071,1.0975423236536
"429",23,19,1,2,189,2,1,0,2,0.883611017150374,0.843687168530277
"430",23,25,1,1,190,3,1,1,2,0.654638938262657,0.668980189176581
"431",23,32,1,2,191,2,1,0,2,0.920234004060524,0.943573635560834
"432",23,18,1,2,192,1,2,1,5,0.315318163855787,0.350038602385417
"433",23,39,1,1,193,3,1,1,3,0.710945402001289,0.682219793346075
"434",23,25,1,2,194,1,2,1,4,0.360147672915241,0.367186558820071
"435",23,25,1,2,195,2,1,0,3,0.719864476207862,0.730283989138914
"436",23,37,1,1,196,1,1,1,5,0.340891106045353,0.289728133032303
"437",23,33,1,2,197,2,2,1,3,0.387478623205149,0.425935881940884
"438",23,19,1,1,198,3,1,1,3,0.760221946319995,0.689729299620731
"439",23,19,1,1,199,1,2,0,3,0.536530874646262,0.629079917441062
"440",23,25,1,1,200,2,1,1,3,0.792756443928845,0.754455115795025
"441",23,32,1,2,201,2,2,1,3,0.481068041965487,0.485792742884934
"442",23,18,1,2,202,3,2,1,3,0.19544949412918,0.209905832487511
"443",23,39,1,1,203,2,1,1,3,0.539931386867046,0.589461064600532
"444",23,25,1,1,204,3,2,0,1,0.623624228460198,0.5766034433559
"445",23,25,1,2,205,3,2,1,3,0.70947507164351,0.689541234223762
"446",23,37,1,2,206,2,1,0,2,0.793634483631991,0.832007431798732
"447",23,33,1,2,207,1,2,1,4,0.476778650311067,0.434576678262205
"448",23,19,1,2,208,3,1,0,1,1.36793623904288,1.3807783323627
"449",23,19,1,2,209,3,2,1,2,0.875520148875076,0.931577608514749
"450",23,25,1,2,210,3,1,0,2,0.70533498380597,0.724302707951138
"451",23,32,1,1,211,2,1,1,4,0.682000953061266,0.630002262549167
"452",23,18,1,1,212,3,2,0,1,0.627701578869322,0.63267884242552
"453",23,39,1,1,213,2,1,1,4,0.482067035826002,0.396730520481146
"454",23,25,1,1,214,3,1,1,2,0.635354306122654,0.630438804462589
"455",23,25,1,1,215,1,2,0,3,0.584344552905919,0.460404909577633
"456",23,37,1,1,216,1,1,1,4,0.509732672740816,0.459970667894808
"457",23,33,1,1,217,1,1,1,4,0.386851447014485,0.295189733995241
"458",23,19,1,1,218,3,1,1,2,0.659143241408242,0.694331317338742
"459",23,19,1,1,219,2,1,1,3,0.71886558102798,0.746942170797686
"460",23,25,1,1,220,1,1,1,4,0.475259377924898,0.444450027209766
"461",23,32,1,1,221,3,2,0,2,0.867529203169053,0.897774217048599
"462",23,18,1,2,222,3,2,1,2,0.792332216117809,0.630395937309744
"463",23,39,1,1,223,1,1,1,4,0.383291787182277,0.381529298980841
"464",23,25,1,2,224,3,1,0,1,1.26442411449471,1.19309198150813
"465",23,25,1,2,225,3,1,0,1,0.86211663640872,0.829334478641678
"466",23,37,1,1,226,1,2,0,3,0.562810090474992,0.668679890358431
"467",23,33,1,2,227,1,2,1,4,0.445461408595583,0.480606598276312
"468",23,19,1,2,228,3,2,1,2,0.758537450907077,0.724775421244704
"469",23,19,1,2,229,2,1,0,3,0.801179694128947,0.86704934406914
"470",23,25,1,2,230,2,2,1,4,0.67735408100079,0.635630378098306
"471",23,32,1,2,231,1,2,1,4,0.40584823570556,0.361038216197754
"472",23,18,1,2,232,1,1,0,3,0.430845493635341,0.442754231715327
"473",23,39,1,1,233,3,2,0,2,1.091469413566,1.04553121697995
"474",23,25,1,1,234,2,1,1,3,0.450430778287652,0.448488187875876
"475",23,25,1,1,235,3,2,0,1,1.04165445437811,1.02186715367337
"476",23,37,1,2,236,3,1,0,1,0.797629775008352,0.829250432254802
"477",23,33,1,1,237,1,1,1,5,0.486445693145952,0.44467404423126
"478",23,19,1,1,238,3,2,0,1,1.33340864851522,1.30265601695961
"479",23,19,1,2,239,1,2,1,5,0.380153268150092,0.479056825602278
"480",23,25,1,1,240,2,2,0,2,0.625788493560722,0.569859925607833
"481",22,26,2,1,1,1,2,0,3,0.521579072106468,0.548737662657049
"482",22,18,2,1,2,2,1,1,3,0.659922338778205,0.58723678818924
"483",22,34,2,1,3,2,1,1,3,0.554952707701922,0.574333637977259
"484",22,36,2,2,4,2,1,0,3,0.487137418436771,0.45156203991491
"485",22,21,2,1,5,1,1,1,4,0.322791770555136,0.329367204617499
"486",22,21,2,1,6,3,2,0,1,1.21449249921256,1.27362876976397
"487",22,36,2,1,7,1,1,1,5,0.418145905024783,0.48211116722688
"488",22,36,2,1,8,1,2,0,3,0.482024756994457,0.425739748190412
"489",22,21,2,2,9,3,1,0,1,1.56515706771406,1.5973388344422
"490",22,33,2,2,10,3,1,0,1,0.768313452134556,0.790881001786826
"491",22,26,2,2,11,1,2,1,5,0.477226450141071,0.486015985000081
"492",22,18,2,2,12,3,1,0,1,0.46454014826227,0.367545342435683
"493",22,34,2,2,13,3,2,1,3,0.749336444725971,0.74871845895813
"494",22,36,2,2,14,1,2,1,4,0.335601485025997,0.340187430943968
"495",22,21,2,1,15,3,1,1,2,1.03423175280342,1.04597225067644
"496",22,21,2,2,16,3,1,0,1,1.4605253080084,1.4470397221706
"497",22,36,2,1,17,1,2,0,4,0.681733678446311,0.735043788532811
"498",22,36,2,2,18,3,1,0,1,0.690806794355714,0.607091949506045
"499",22,21,2,1,19,1,1,1,4,0.358632966930826,0.396514553769803
"500",22,33,2,2,20,3,1,0,2,1.19803111371964,1.18281475527172
"501",22,26,2,2,21,2,2,1,3,0.613387014793258,0.70294055211605
"502",22,18,2,2,22,1,2,1,5,0.501536404579873,0.485966240350939
"503",22,34,2,2,23,3,2,1,2,1.15474973947905,1.1227123916331
"504",22,36,2,1,24,1,2,0,3,0.585774430748851,0.522752934019312
"505",22,21,2,1,25,1,1,1,5,0.464601322481824,0.407191774124402
"506",22,21,2,2,26,1,2,1,5,0.236755215837792,0.206871481690896
"507",22,36,2,1,27,1,1,1,4,0.494935676689464,0.468138591812963
"508",22,36,2,2,28,2,1,0,3,0.512069017240057,0.52428066965853
"509",22,21,2,2,29,3,1,0,2,1.4651723767908,1.51367297364618
"510",22,33,2,1,30,1,1,1,4,0.449457700941779,0.409760043519953
"511",22,26,2,2,31,2,1,0,2,0.516411290039994,0.430918472932488
"512",22,18,2,1,32,3,2,0,1,1.09074059581169,1.01931813496568
"513",22,34,2,1,33,1,1,1,4,0.574656236226705,0.64677832792532
"514",22,36,2,2,34,3,1,0,1,0.690686887457539,0.751448876754579
"515",22,21,2,1,35,1,2,0,3,0.576374910840897,0.497673027170808
"516",22,21,2,2,36,2,1,0,3,0.830965709644895,0.844532608339806
"517",22,36,2,2,37,1,2,1,5,0.333870828633095,0.298691438696754
"518",22,36,2,1,38,3,1,1,3,0.941269501375545,0.912208195987178
"519",22,21,2,1,39,2,1,1,3,0.676078123866607,0.726428656526037
"520",22,33,2,1,40,1,1,1,5,0.217361914439674,0.219758966777302
"521",22,26,2,1,41,3,1,1,2,0.941125690058851,0.970423840951081
"522",22,18,2,2,42,1,1,0,3,0.49643148432423,0.402704452841351
"523",22,34,2,1,43,3,1,1,3,0.787344490841055,0.872611519805175
"524",22,36,2,1,44,1,1,1,4,0.469440330581479,0.434679314928697
"525",22,21,2,2,45,2,2,1,3,0.358452956259951,0.411371002370293
"526",22,21,2,1,46,1,1,1,5,0.546865365856649,0.605635879005022
"527",22,36,2,2,47,1,2,1,5,0.310837499288462,0.274973495224093
"528",22,36,2,1,48,1,2,0,4,0.581304726578605,0.491015369504107
"529",22,21,2,1,49,3,1,1,2,0.658254972415828,0.689086824664918
"530",22,33,2,2,50,3,1,0,2,0.932377581145793,0.830906403872483
"531",22,26,2,2,51,2,1,0,3,0.814100309475863,0.818068144749382
"532",22,18,2,2,52,2,1,0,2,0.717690416499201,0.677226297674372
"533",22,34,2,1,53,3,1,1,2,0.886623569968328,0.913261251399995
"534",22,36,2,2,54,1,1,0,4,0.812196482202029,0.841200159491022
"535",22,21,2,1,55,1,2,0,4,0.423534002018397,0.358693630563054
"536",22,21,2,1,56,2,1,1,3,0.950440381088023,0.928673063892304
"537",22,36,2,1,57,2,1,1,3,0.698798499106635,0.699023461970483
"538",22,36,2,2,58,1,2,1,5,0.310402614930731,0.284119212822757
"539",22,21,2,1,59,3,1,1,2,0.798684768736502,0.8206293671565
"540",22,33,2,2,60,2,1,0,2,0.849533278768555,0.891120795161457
"541",22,26,2,2,61,2,2,1,3,0.498495609075987,0.437338295550555
"542",22,18,2,2,62,3,1,0,1,1.29657244462447,1.21776578843164
"543",22,34,2,2,63,2,2,1,4,0.650373812901915,0.747038202199315
"544",22,36,2,2,64,1,1,0,4,0.560373998202994,0.570877346894766
"545",22,21,2,1,65,3,2,0,1,1.16621082429621,1.20410500951814
"546",22,21,2,1,66,2,1,1,3,0.61357739072032,0.670462918264723
"547",22,36,2,1,67,3,2,0,1,0.6312240581057,0.649322199467512
"548",22,36,2,1,68,2,1,1,4,0.475551263990323,0.463228863036742
"549",22,21,2,1,69,1,1,1,4,0.250868075975054,0.27907245772216
"550",22,33,2,1,70,1,1,1,5,0.194095742817794,0.214408562014002
"551",22,26,2,2,71,3,1,0,1,0.98499025918551,0.959377807122356
"552",22,18,2,2,72,1,2,1,4,0.358509729689231,0.279265988770069
"553",22,34,2,1,73,3,2,0,1,1.10353542598379,1.07843574919475
"554",22,36,2,1,74,1,1,1,4,0.284969475427513,0.301150624861571
"555",22,21,2,2,75,3,2,1,3,0.661906983102241,0.693735218959544
"556",22,21,2,1,76,2,1,1,3,0.632639935919655,0.640127100487536
"557",22,36,2,1,77,3,1,1,3,0.559087196864037,0.621609299212707
"558",22,36,2,2,78,3,1,0,2,0.934718081211066,0.959106437044666
"559",22,21,2,2,79,2,1,0,3,0.782036815656599,0.738551373632877
"560",22,33,2,2,80,2,2,1,4,0.773894786472701,0.763968207793549
"561",22,26,2,1,81,2,2,0,2,0.85763406242863,0.81679620112479
"562",22,18,2,1,82,3,2,0,1,1.55577628083428,1.4954679174988
"563",22,34,2,1,83,1,1,1,5,0.339179699846586,0.335162440819855
"564",22,36,2,1,84,3,2,0,1,1.32275577289741,1.2713482951471
"565",22,21,2,2,85,1,1,0,3,0.693089600396236,0.690508069936485
"566",22,21,2,2,86,2,2,1,3,0.643036268158709,0.708304068806884
"567",22,36,2,2,87,3,2,1,2,0.988820753767904,0.997847381936003
"568",22,36,2,2,88,3,2,1,3,0.949654905067103,0.991665231186357
"569",22,21,2,1,89,1,1,1,4,0.347593222986674,0.35623234985145
"570",22,33,2,2,90,1,2,1,4,0.389103508746659,0.353866473471279
"571",22,26,2,2,91,3,1,0,2,0.976419746240329,0.997753644851907
"572",22,18,2,1,92,2,1,1,4,0.671169246947788,0.680555662579391
"573",22,34,2,2,93,1,1,0,3,0.656655958832203,0.622371436305003
"574",22,36,2,1,94,2,2,0,2,0.76904052234594,0.758084476861982
"575",22,21,2,1,95,2,2,0,3,0.715215670988121,0.66467330428747
"576",22,21,2,2,96,2,1,0,3,0.776891084670061,0.713672540874693
"577",22,36,2,1,97,1,1,1,5,0.31495588706352,0.330330873526616
"578",22,36,2,1,98,2,1,1,3,0.675087901673143,0.692131506429747
"579",22,21,2,2,99,3,2,1,2,0.939071010248677,0.963205666122101
"580",22,33,2,1,100,2,1,1,3,0.713413848802291,0.772107539659917
"581",22,26,2,1,101,3,2,0,2,0.653273974871538,0.705033011333835
"582",22,18,2,2,102,1,2,1,4,0.347851253490753,0.269803469916534
"583",22,34,2,1,103,1,1,1,5,0.372582999217529,0.417363110210326
"584",22,36,2,1,104,1,1,1,4,0.550035633101335,0.522389482981564
"585",22,21,2,1,105,1,1,1,5,0.446494162997368,0.387401616547506
"586",22,21,2,1,106,2,2,0,2,0.554001178844423,0.541107297703872
"587",22,36,2,1,107,2,2,0,2,0.827429625336938,0.76046662390124
"588",22,36,2,2,108,3,1,0,1,0.643084216108103,0.657881110395502
"589",22,21,2,1,109,2,1,1,3,0.590138585740499,0.530808217513551
"590",22,33,2,1,110,3,1,1,3,0.596575061145566,0.471626023771043
"591",22,26,2,2,111,2,2,1,4,0.702780347716632,0.664043799399032
"592",22,18,2,2,112,3,1,0,2,0.458711471724392,0.534010670641479
"593",22,34,2,1,113,3,1,1,3,0.973779960298863,0.881470263562717
"594",22,36,2,2,114,2,2,1,3,0.784348342497635,0.791000479197694
"595",22,21,2,2,115,2,1,0,2,0.538430911823946,0.462646248578019
"596",22,21,2,2,116,2,2,1,4,0.523645284601539,0.49695195004806
"597",22,36,2,1,117,2,1,1,4,0.560692773012885,0.422915946365759
"598",22,36,2,1,118,1,1,1,5,0.350391557308367,0.399756552888049
"599",22,21,2,1,119,1,1,1,4,0.316592346729947,0.191702703925391
"600",22,33,2,2,120,3,1,0,1,1.1642605563229,1.19724745655171
"601",22,26,2,1,121,2,2,0,3,0.681721991915874,0.637592594210549
"602",22,18,2,1,122,3,1,1,3,1.03363737801816,1.03728483271795
"603",22,34,2,2,123,2,2,1,3,0.822488711703111,0.777556173230936
"604",22,36,2,2,124,1,2,1,5,0.340940278267008,0.291629019965
"605",22,21,2,2,125,2,1,0,2,0.660506204590993,0.628926955208665
"606",22,21,2,2,126,1,2,1,4,0.464149590562291,0.477134926745845
"607",22,36,2,2,127,1,1,0,4,0.426564853434416,0.449754772727307
"608",22,36,2,2,128,2,2,1,3,0.457786595042786,0.472344282900809
"609",22,21,2,2,129,3,2,1,2,0.605373087405828,0.622525732380148
"610",22,33,2,1,130,1,1,1,4,0.491855402384427,0.53064931029681
"611",22,26,2,1,131,3,1,1,2,0.847876283403957,0.846284597665843
"612",22,18,2,1,132,2,2,0,3,0.828843304359088,0.829186491672854
"613",22,34,2,1,133,1,1,1,5,0.319396735951371,0.310217177426883
"614",22,36,2,1,134,3,1,1,3,0.843260719112426,0.870535488930571
"615",22,21,2,2,135,3,1,0,1,1.18355251884814,1.16331741854903
"616",22,21,2,1,136,1,1,1,5,0.328182774609216,0.347236598311358
"617",22,36,2,1,137,1,1,1,4,0.392381767493347,0.477156044586394
"618",22,36,2,2,138,1,2,1,4,0.378970622613121,0.33362347471308
"619",22,21,2,1,139,1,1,1,4,0.398329788924769,0.327073767194669
"620",22,33,2,2,140,1,2,1,4,0.323393168822162,0.303357431289157
"621",22,26,2,1,141,3,2,0,1,0.842465645764376,0.807558143993841
"622",22,18,2,1,142,2,2,0,3,0.580744550696582,0.565609468597408
"623",22,34,2,1,143,3,1,1,2,0.882573319215691,0.917119465884099
"624",22,36,2,1,144,3,2,0,1,0.878282655321699,0.915999875750536
"625",22,21,2,1,145,3,1,1,2,0.709651463486082,0.744082289135711
"626",22,21,2,1,146,3,1,1,3,0.718428156228296,0.659407239158857
"627",22,36,2,2,147,1,2,1,5,0.416460938098341,0.546587455983968
"628",22,36,2,2,148,3,1,0,2,0.951828307135463,0.957100293675907
"629",22,21,2,2,149,2,2,1,3,0.610958635977324,0.597187264343355
"630",22,33,2,2,150,2,1,0,3,0.541912891412558,0.528090334292915
"631",22,26,2,2,151,2,2,1,3,0.593747582232113,0.547099251006846
"632",22,18,2,2,152,2,1,0,2,0.67476060160198,0.623896951095438
"633",22,34,2,2,153,3,2,1,3,0.805612864010556,0.79320947414062
"634",22,36,2,1,154,3,2,0,1,0.532517817531819,0.487191889906971
"635",22,21,2,1,155,2,1,1,4,0.544112173176634,0.617574235553955
"636",22,21,2,2,156,2,2,1,4,0.482389566305159,0.436485684928331
"637",22,36,2,2,157,1,1,0,4,0.531192595301393,0.572066224268302
"638",22,36,2,2,158,3,1,0,1,0.717671867763985,0.801826354883316
"639",22,21,2,2,159,2,2,1,4,0.796631027850663,0.830909645884808
"640",22,33,2,2,160,1,2,1,4,0.483235785338048,0.473374145295062
"641",22,26,2,2,161,1,2,1,4,0.350170868121828,0.38315986706247
"642",22,18,2,1,162,1,2,0,4,0.491128110239625,0.6302035075023
"643",22,34,2,2,163,1,2,1,5,0.41343826858379,0.370934933826886
"644",22,36,2,1,164,3,2,0,1,0.652283516128896,0.640049458658438
"645",22,21,2,2,165,1,2,1,5,0.319407780331194,0.218323490349737
"646",22,21,2,2,166,1,1,0,3,0.628484692464685,0.605785548377927
"647",22,36,2,2,167,2,2,1,3,0.625653484249335,0.574945596144258
"648",22,36,2,2,168,2,1,0,3,0.446538490875269,0.454914549036854
"649",22,21,2,1,169,3,1,1,3,0.789503204326458,0.679861528457935
"650",22,33,2,2,170,1,2,1,4,0.289819815318694,0.301145860681858
"651",22,26,2,2,171,2,2,1,4,0.582000737594634,0.54512907763545
"652",22,18,2,2,172,2,2,1,4,0.603348860289705,0.525710927521818
"653",22,34,2,1,173,2,2,0,2,0.719906761542448,0.783672355406808
"654",22,36,2,2,174,3,1,0,2,0.829785755226681,0.781180751051413
"655",22,21,2,2,175,2,2,1,3,0.644769485473077,0.563139169361935
"656",22,21,2,1,176,3,2,0,2,1.06212643643007,1.1139317958877
"657",22,36,2,2,177,3,1,0,1,0.408422182664191,0.374752523435117
"658",22,36,2,1,178,3,1,1,3,1.1213363322236,1.22038812065715
"659",22,21,2,1,179,2,2,0,2,0.493350428322584,0.421606793044185
"660",22,33,2,2,180,1,2,1,4,0.510187995227131,0.457790040618731
"661",22,26,2,1,181,1,1,1,5,0.3496495799857,0.404600539759648
"662",22,18,2,1,182,2,2,0,3,0.976289353518119,0.864684016624449
"663",22,34,2,2,183,1,1,0,4,0.43503616408596,0.472015955919369
"664",22,36,2,1,184,2,2,0,2,0.620231722986667,0.59149018722807
"665",22,21,2,2,185,1,2,1,5,0.365166036602704,0.316165647280546
"666",22,21,2,2,186,2,1,0,2,0.540723828929607,0.530758064775803
"667",22,36,2,2,187,1,2,1,4,0.521171135005082,0.517055562920836
"668",22,36,2,1,188,1,1,1,4,0.395326965572598,0.463903501816948
"669",22,21,2,1,189,2,2,0,3,0.924656167507707,0.882579617771818
"670",22,33,2,1,190,1,1,1,4,0.428010806598828,0.339948218524726
"671",22,26,2,2,191,1,2,1,4,0.401866532203424,0.423010274456306
"672",22,18,2,2,192,2,1,0,3,0.79389360714996,0.86016895968787
"673",22,34,2,1,193,3,1,1,3,0.928627257250954,0.889835258610534
"674",22,36,2,1,194,3,1,1,2,0.84337862809993,0.828444581058978
"675",22,21,2,2,195,2,2,1,3,0.572606488074749,0.497474963092598
"676",22,21,2,1,196,2,1,1,3,0.659655713487623,0.685799689276622
"677",22,36,2,1,197,1,1,1,4,0.324361612648421,0.352806773202973
"678",22,36,2,2,198,1,2,1,4,0.342225779726153,0.382540647075848
"679",22,21,2,2,199,2,1,0,3,0.941787430472853,0.975062535351142
"680",22,33,2,2,200,1,2,1,4,0.541781793993155,0.669764595603582
"681",22,26,2,1,201,3,1,1,2,0.59138508917256,0.665646584256498
"682",22,18,2,1,202,2,1,1,3,0.508958061396851,0.416769863463209
"683",22,34,2,1,203,3,2,0,1,1.31227191778113,1.36908065353587
"684",22,36,2,2,204,3,2,1,3,0.934520401775808,0.889181221917003
"685",22,21,2,1,205,2,1,1,3,0.758775979156502,0.770622240649623
"686",22,21,2,1,206,3,2,0,2,0.462128051476341,0.497170919183354
"687",22,36,2,2,207,2,1,0,2,0.663126498802077,0.632969671676988
"688",22,36,2,2,208,3,1,0,1,0.989334110893855,0.952574482174398
"689",22,21,2,1,209,2,1,1,3,0.663880740878259,0.711617755332221
"690",22,33,2,1,210,2,1,1,4,0.302690200072957,0.379501834386431
"691",22,26,2,1,211,1,1,1,5,0.607737972199627,0.619494738565438
"692",22,18,2,2,212,3,2,1,2,1.14614444011125,1.07333702393061
"693",22,34,2,2,213,3,2,1,3,0.799080012166685,0.789318936433604
"694",22,36,2,1,214,2,1,1,4,0.698949228673101,0.688175121730896
"695",22,21,2,2,215,3,1,0,2,0.79150961760026,0.877503100699373
"696",22,21,2,1,216,3,1,1,2,0.761140973155545,0.728404945845536
"697",22,36,2,2,217,1,2,1,5,0.239157349512896,0.287030245147447
"698",22,36,2,2,218,2,2,1,4,0.579412317072515,0.570209646414739
"699",22,21,2,1,219,2,2,0,2,0.633781261657657,0.542232511802789
"700",22,33,2,2,220,3,2,1,2,0.723994587956197,0.779502356791597
"701",22,26,2,1,221,1,1,1,4,0.319570868683846,0.369865123445886
"702",22,18,2,2,222,1,2,1,4,0.378636470774385,0.377801653154114
"703",22,34,2,2,223,3,1,0,1,0.415283467241556,0.354236727914456
"704",22,36,2,1,224,2,2,0,3,0.661657381176017,0.746799218339607
"705",22,21,2,2,225,2,1,0,2,0.741212243348062,0.753642777674557
"706",22,21,2,1,226,1,1,1,4,0.257281053096338,0.216556839620376
"707",22,36,2,2,227,1,2,1,5,0.633709742635892,0.671241871969662
"708",22,36,2,2,228,2,1,0,3,0.796149683973728,0.789943641056224
"709",22,21,2,1,229,3,1,1,3,0.604313789152376,0.680404448850418
"710",22,33,2,2,230,2,1,0,2,0.663331404445446,0.566061323028111
"711",22,26,2,2,231,3,1,0,1,1.68165961594467,1.68686258561024
"712",22,18,2,1,232,2,2,0,3,0.7391761129827,0.700980582837237
"713",22,34,2,1,233,2,1,1,3,0.325180697495555,0.370364444383938
"714",22,36,2,1,234,3,2,0,2,1.29067165395557,1.30933840300067
"715",22,21,2,2,235,3,1,0,1,0.452495940081917,0.511020669826429
"716",22,21,2,2,236,1,2,1,5,0.366478785661171,0.386493151946478
"717",22,36,2,1,237,3,2,0,2,1.37131085570861,1.31248871847223
"718",22,36,2,2,238,2,2,1,3,0.61832014131514,0.684987203228004
"719",22,21,2,1,239,3,1,1,3,0.906088438549975,0.865345018243451
"720",22,33,2,1,240,3,2,0,2,0.93581664446197,0.941784605448553
"721",21,26,1,2,1,3,2,1,3,0.741085167347784,0.645581909915182
"722",21,34,1,2,2,3,2,1,3,0.600584303321001,0.519208935205966
"723",21,24,1,1,3,3,1,1,2,0.852047014506837,0.81040414947972
"724",21,19,1,2,4,3,1,0,1,0.833526302814717,0.807086695350563
"725",21,38,1,1,5,3,1,1,2,0.889916439577888,0.835928211026502
"726",21,35,1,1,6,1,1,1,4,0.308384712998421,0.365552943189338
"727",21,21,1,2,7,1,2,1,4,0.371840002022067,0.331769922207177
"728",21,19,1,1,8,3,2,0,1,1.04276411503646,1.0023875885345
"729",21,23,1,1,9,2,2,0,2,0.875204429357557,0.85589299836784
"730",21,29,1,2,10,2,2,1,4,0.832712112716213,0.844754190056825
"731",21,26,1,2,11,3,2,1,3,0.708235124743015,0.733161161142997
"732",21,34,1,1,12,3,2,0,2,0.437024380880592,0.454308691292302
"733",21,24,1,2,13,2,2,1,4,0.676157723341658,0.608183597717906
"734",21,19,1,1,14,2,1,1,3,0.54885186210078,0.544632926795612
"735",21,38,1,1,15,3,1,1,3,0.847609098950703,0.818680043110978
"736",21,35,1,2,16,1,2,1,4,0.502402004617772,0.52873398303239
"737",21,21,1,2,17,2,2,1,4,0.603982848931876,0.523064188357818
"738",21,19,1,2,18,1,2,1,5,0.466293513558702,0.480477980358121
"739",21,23,1,2,19,1,1,0,4,0.472040449528924,0.434247748664259
"740",21,29,1,1,20,1,2,0,3,0.506793199579414,0.528641195636217
"741",21,26,1,2,21,3,1,0,2,1.47078951117439,1.4726950216017
"742",21,34,1,1,22,1,1,1,5,0.541093544724325,0.598729682822406
"743",21,24,1,1,23,2,2,0,2,0.752621500101958,0.809591505591406
"744",21,19,1,2,24,2,2,1,3,0.600915970300735,0.604518426242792
"745",21,38,1,2,25,1,2,1,5,0.404109644407304,0.442713228596459
"746",21,35,1,2,26,3,1,0,2,1.20129366475662,1.20989429863092
"747",21,21,1,1,27,2,2,0,3,0.56014982191013,0.537470789227043
"748",21,19,1,1,28,2,1,1,3,0.630509226543864,0.521325014930061
"749",21,23,1,1,29,2,1,1,4,0.52417351799345,0.472663096494102
"750",21,29,1,1,30,2,2,0,3,0.820824141564799,0.768459300537563
"751",21,26,1,1,31,3,1,1,2,0.723702256483957,0.641710324839492
"752",21,34,1,1,32,1,1,1,5,0.334094204481895,0.285126537619484
"753",21,24,1,2,33,1,2,1,5,0.277486771560722,0.285113744041988
"754",21,19,1,2,34,1,2,1,4,0.435670939526186,0.485577674604398
"755",21,38,1,1,35,2,2,0,3,0.916574204260798,0.917647242491639
"756",21,35,1,2,36,2,2,1,4,0.651500859281101,0.736934284785822
"757",21,21,1,1,37,3,2,0,2,1.58632948938541,1.64205354364117
"758",21,19,1,2,38,1,2,1,5,0.587229246839633,0.593558620548435
"759",21,23,1,2,39,3,2,1,3,0.830871004238574,0.806361005057487
"760",21,29,1,1,40,2,1,1,4,0.598246209815559,0.660673748245144
"761",21,26,1,2,41,2,2,1,3,0.43048081254266,0.340320372626517
"762",21,34,1,2,42,2,2,1,4,0.640418244185496,0.679760230036672
"763",21,24,1,1,43,2,2,0,3,0.611245550208996,0.690451793657041
"764",21,19,1,1,44,1,1,1,5,0.533839722851672,0.460308556246294
"765",21,38,1,1,45,3,1,1,3,0.565827261115781,0.603877413875469
"766",21,35,1,1,46,3,1,1,2,1.00587617838221,1.03612129588749
"767",21,21,1,2,47,3,1,0,1,1.20607447321301,1.16135759089487
"768",21,19,1,2,48,2,1,0,3,0.76086773203347,0.723894435408108
"769",21,23,1,1,49,1,1,1,5,0.369042218426625,0.374960931593019
"770",21,29,1,1,50,2,2,0,2,1.01057247061795,0.930823558410796
"771",21,26,1,2,51,3,1,0,2,1.75675969366807,1.67358858788817
"772",21,34,1,1,52,3,2,0,2,1.17204891975699,1.14521123972123
"773",21,24,1,1,53,2,1,1,4,0.672109198614731,0.698415828051786
"774",21,19,1,1,54,2,1,1,3,0.585304473333351,0.662674959028483
"775",21,38,1,1,55,3,1,1,2,0.951722614764135,0.971441748797498
"776",21,35,1,2,56,3,1,0,2,0.989492202559257,0.991318399139308
"777",21,21,1,1,57,2,2,0,3,0.620103158853988,0.684907200754257
"778",21,19,1,1,58,2,1,1,3,0.592827984103687,0.557034500183492
"779",21,23,1,1,59,1,2,0,4,0.573722208332706,0.606997442511855
"780",21,29,1,2,60,2,1,0,2,0.61005995015939,0.634344010078118
"781",21,26,1,1,61,1,1,1,4,0.277467367183405,0.299053058405531
"782",21,34,1,1,62,1,1,1,4,0.29969891260679,0.286397936543267
"783",21,24,1,1,63,3,1,1,2,0.808810483535939,0.79701313247941
"784",21,19,1,2,64,2,2,1,3,0.759829352989261,0.860867636791617
"785",21,38,1,2,65,2,1,0,2,0.883876799169199,0.837243366455826
"786",21,35,1,1,66,2,1,1,3,0.3604737155688,0.317627406384754
"787",21,21,1,1,67,2,1,1,3,0.710114639417652,0.669118767182139
"788",21,19,1,2,68,2,1,0,3,0.681452973417924,0.711752294038488
"789",21,23,1,1,69,1,1,1,4,0.37182345800457,0.40982166016465
"790",21,29,1,2,70,3,2,1,2,0.783214137994336,0.828862221206549
"791",21,26,1,1,71,3,1,1,2,0.990558763153481,0.994141168870683
"792",21,34,1,2,72,3,1,0,2,0.766977516951211,0.846952737115844
"793",21,24,1,1,73,1,2,0,3,0.590002133019945,0.624680491640226
"794",21,19,1,1,74,3,1,1,3,0.57784694118683,0.514466220108036
"795",21,38,1,2,75,2,1,0,3,0.599348144240223,0.658474188991536
"796",21,35,1,1,76,1,1,1,4,0.309084443975534,0.343072411025951
"797",21,21,1,1,77,1,1,1,5,0.355847282531535,0.349811821500231
"798",21,19,1,2,78,3,2,1,2,0.745318556025591,0.700543742832861
"799",21,23,1,1,79,1,2,0,3,0.651206837900356,0.610616746008135
"800",21,29,1,2,80,2,2,1,3,0.630202736309324,0.594249524447009
"801",21,26,1,1,81,2,2,0,3,0.689906237083869,0.731123064797741
"802",21,34,1,2,82,1,2,1,4,0.483028089249755,0.478580193186744
"803",21,24,1,2,83,1,2,1,5,0.39413634378352,0.388581622002641
"804",21,19,1,1,84,2,1,1,4,0.522039920037108,0.511253384865803
"805",21,38,1,1,85,3,1,1,3,0.714811284459626,0.769652163294949
"806",21,35,1,2,86,2,1,0,2,0.553836611588767,0.565497822198038
"807",21,21,1,2,87,1,2,1,5,0.433194515471834,0.388185569102007
"808",21,19,1,1,88,3,2,0,2,0.850182059344063,0.873921506951192
"809",21,23,1,2,89,3,1,0,1,1.09850982755891,1.12137116717302
"810",21,29,1,1,90,1,2,0,4,0.480442417136769,0.529942161626811
"811",21,26,1,1,91,3,1,1,2,1.18084329939724,1.17108473154546
"812",21,34,1,2,92,3,1,0,2,0.944410128184944,0.87734517438796
"813",21,24,1,1,93,2,2,0,2,0.609950329820411,0.606917629000829
"814",21,19,1,2,94,2,2,1,3,0.630495832538602,0.625615451020353
"815",21,38,1,2,95,3,1,0,1,0.526459588469446,0.532027356820783
"816",21,35,1,2,96,2,2,1,3,0.482247748856978,0.443315835250151
"817",21,21,1,2,97,2,2,1,4,0.578298959084919,0.474628610991532
"818",21,19,1,2,98,3,2,1,3,0.737084728105201,0.812694853003542
"819",21,23,1,2,99,1,2,1,5,0.397983950004132,0.362289726682779
"820",21,29,1,2,100,1,2,1,4,0.453497233293304,0.527847979810006
"821",21,26,1,1,101,3,2,0,1,1.32737262537993,1.32650098934995
"822",21,34,1,1,102,1,2,0,4,0.456431527731981,0.42712897039556
"823",21,24,1,1,103,3,1,1,2,0.698869993134332,0.643874263088414
"824",21,19,1,1,104,1,2,0,3,0.552866499464612,0.530670856451761
"825",21,38,1,1,105,3,1,1,3,0.691160653745031,0.738234941043865
"826",21,35,1,2,106,3,1,0,2,1.57249946716841,1.6957539838163
"827",21,21,1,1,107,2,2,0,3,0.397944305744585,0.43455027270977
"828",21,19,1,2,108,2,2,1,4,0.590308165611837,0.495755216436532
"829",21,23,1,1,109,3,1,1,3,0.6005456246233,0.618740293067667
"830",21,29,1,1,110,3,2,0,1,1.1057480044356,1.11279535989111
"831",21,26,1,1,111,1,1,1,4,0.428406968256541,0.450432652232547
"832",21,34,1,1,112,1,1,1,4,0.321996711047614,0.280636944255725
"833",21,24,1,2,113,2,1,0,3,0.844054861928867,0.857991038210081
"834",21,19,1,2,114,1,2,1,4,0.334059798978997,0.35790825061517
"835",21,38,1,2,115,1,2,1,4,0.276833726687754,0.282236792726775
"836",21,35,1,2,116,3,2,1,2,0.702204288428471,0.755076388774529
"837",21,21,1,2,117,1,2,1,4,0.366350939522292,0.401234725389932
"838",21,19,1,2,118,1,2,1,4,0.372550346487576,0.41802295435676
"839",21,23,1,1,119,1,1,1,5,0.312515820996668,0.28631610003796
"840",21,29,1,1,120,2,2,0,3,0.835610512248275,0.869004894512309
"841",21,26,1,2,121,2,1,0,2,0.729424092385047,0.810104650579925
"842",21,34,1,1,122,3,1,1,2,1.16008256122208,1.19287931152087
"843",21,24,1,2,123,3,1,0,2,1.55538095605097,1.57482337743236
"844",21,19,1,2,124,3,1,0,1,0.552778593447815,0.528836279209002
"845",21,38,1,2,125,1,1,0,4,0.634814315705194,0.572873140234451
"846",21,35,1,2,126,1,2,1,4,0.409107002027872,0.387341269572201
"847",21,21,1,1,127,3,2,0,1,0.909082564425989,0.910655107361
"848",21,19,1,1,128,3,2,0,1,1.21221496635555,1.18385344147377
"849",21,23,1,2,129,1,2,1,5,0.304882591661561,0.26393525950488
"850",21,29,1,1,130,1,1,1,4,0.484553482866897,0.456934744871332
"851",21,26,1,1,131,1,1,1,5,0.459275356921127,0.502366805906152
"852",21,34,1,1,132,2,1,1,4,0.555240154850291,0.464694222192568
"853",21,24,1,2,133,1,2,1,4,0.333763158648932,0.321462642278364
"854",21,19,1,1,134,3,1,1,3,0.77152127210979,0.794239721059567
"855",21,38,1,2,135,3,1,0,2,1.19745013612112,1.18546363015905
"856",21,35,1,1,136,3,1,1,3,1.00336696330026,0.965345327433586
"857",21,21,1,2,137,2,1,0,2,0.67078032850452,0.615752661911763
"858",21,19,1,2,138,2,1,0,3,0.814850102430062,0.779761976266307
"859",21,23,1,2,139,1,2,1,4,0.40198009134155,0.466243930518329
"860",21,29,1,2,140,1,2,1,5,0.412828336187726,0.37835729214089
"861",21,26,1,2,141,2,2,1,3,0.503697363876901,0.442120150108083
"862",21,34,1,2,142,3,2,1,2,0.482445247167788,0.586656640739977
"863",21,24,1,2,143,2,2,1,4,0.729658396901966,0.794198522184282
"864",21,19,1,1,144,2,1,1,4,0.62329984909491,0.573440951333039
"865",21,38,1,2,145,3,2,1,2,0.661042920831067,0.614560136670209
"866",21,35,1,2,146,1,1,0,4,0.612550261870963,0.5941129887075
"867",21,21,1,1,147,2,2,0,3,0.78020160003706,0.803215683788899
"868",21,19,1,2,148,3,2,1,2,0.890596150220593,0.923836944731237
"869",21,23,1,1,149,3,1,1,2,0.777269389065663,0.856796536028433
"870",21,29,1,1,150,1,1,1,4,0.506425638419472,0.550558010588372
"871",21,26,1,2,151,3,2,1,2,0.833367402555015,0.861550734998261
"872",21,34,1,1,152,3,2,0,2,1.0596711413064,1.03924667104038
"873",21,24,1,1,153,1,1,1,4,0.196645865588539,0.215082816133242
"874",21,19,1,2,154,2,2,1,3,0.450543544629124,0.530351821937808
"875",21,38,1,2,155,2,1,0,2,0.426347105254596,0.361804091582276
"876",21,35,1,1,156,2,1,1,3,0.592681867315204,0.671662493560672
"877",21,21,1,1,157,2,2,0,2,0.603659197515154,0.578560381732869
"878",21,19,1,2,158,2,2,1,3,0.653632766242505,0.632558719230056
"879",21,23,1,2,159,3,2,1,2,0.898759531955336,0.91026346812604
"880",21,29,1,1,160,3,1,1,2,0.421620258006554,0.446635647682845
"881",21,26,1,2,161,3,2,1,2,0.657463433225797,0.678979700714852
"882",21,34,1,2,162,3,1,0,1,1.02700004668383,1.10895957551849
"883",21,24,1,1,163,1,1,1,4,0.278786865170212,0.181310140609298
"884",21,19,1,2,164,1,2,1,5,0.471046548771869,0.438815099698328
"885",21,38,1,2,165,3,1,0,1,0.481331951446073,0.57743009413822
"886",21,35,1,2,166,1,2,1,5,0.387419177381233,0.527013041797871
"887",21,21,1,1,167,1,1,1,5,0.429804840093514,0.448077273296286
"888",21,19,1,1,168,3,1,1,2,0.924096932783792,0.887205785873571
"889",21,23,1,2,169,2,2,1,3,0.642602454169734,0.627138171321745
"890",21,29,1,1,170,3,2,0,1,1.35395858127924,1.27825275867435
"891",21,26,1,1,171,3,2,0,2,0.828088001161289,0.819332177388619
"892",21,34,1,1,172,3,1,1,2,1.01597925242471,0.971212774323994
"893",21,24,1,2,173,2,1,0,2,0.677227527615914,0.698865865423236
"894",21,19,1,2,174,2,1,0,3,0.478761838960839,0.398141675119637
"895",21,38,1,2,175,2,1,0,2,1.00796685531712,1.05748657319759
"896",21,35,1,2,176,3,1,0,2,1.32343584577173,1.35814150318507
"897",21,21,1,2,177,1,2,1,5,0.434463687753834,0.433784801817093
"898",21,19,1,1,178,3,2,0,2,1.18600904634181,1.17946621933727
"899",21,23,1,2,179,1,1,0,3,0.39651083872721,0.432298092126943
"900",21,29,1,1,180,3,1,1,3,0.969863155703654,1.04882862665084
"901",21,26,1,1,181,1,1,1,5,0.417640865808221,0.431587581153021
"902",21,34,1,2,182,2,1,0,3,0.570749787814989,0.509570283102087
"903",21,24,1,2,183,1,2,1,4,0.238041831711773,0.212593943724828
"904",21,19,1,2,184,1,2,1,4,0.344415525167339,0.401637139579754
"905",21,38,1,1,185,2,1,1,3,0.615587684846263,0.593693732554732
"906",21,35,1,2,186,1,2,1,5,0.432779051965486,0.355806652971721
"907",21,21,1,2,187,1,2,1,5,0.498457254347671,0.512110479337165
"908",21,19,1,2,188,3,1,0,2,1.58145156566089,1.58192224393733
"909",21,23,1,1,189,3,1,1,2,0.629165154413181,0.600103926026338
"910",21,29,1,1,190,2,2,0,2,0.755593408356713,0.66877132253772
"911",21,26,1,1,191,1,1,1,4,0.219328204013871,0.168884434859667
"912",21,34,1,1,192,1,1,1,5,0.387867792782583,0.362261030619644
"913",21,24,1,2,193,1,2,1,5,0.460102527978783,0.437052605636114
"914",21,19,1,1,194,2,1,1,4,0.80798012902712,0.830914186817344
"915",21,38,1,1,195,1,1,1,4,0.27792331991012,0.214968297403127
"916",21,35,1,1,196,1,2,0,3,0.439340822011546,0.468444257724362
"917",21,21,1,1,197,3,1,1,3,0.804967619224233,0.864046596159863
"918",21,19,1,1,198,2,1,1,4,0.389524444183222,0.31678934131058
"919",21,23,1,2,199,2,1,0,2,0.548036902584127,0.589732526205009
"920",21,29,1,2,200,3,1,0,2,1.56815141905109,1.59158192797296
"921",21,26,1,2,201,1,2,1,5,0.305822741411488,0.340194286700285
"922",21,34,1,2,202,3,1,0,2,1.2943132333105,1.24955676728079
"923",21,24,1,2,203,1,2,1,4,0.255543825336574,0.345734590361878
"924",21,19,1,2,204,2,1,0,2,0.739079646747481,0.784267647300627
"925",21,38,1,1,205,1,1,1,4,0.477400895797496,0.433575446800791
"926",21,35,1,2,206,1,1,0,3,0.682071807197916,0.718524351270935
"927",21,21,1,2,207,1,2,1,5,0.366538486665271,0.329680444721439
"928",21,19,1,2,208,2,1,0,2,0.53860486066015,0.507653169531245
"929",21,23,1,1,209,2,1,1,4,0.484573821835156,0.525851635583176
"930",21,29,1,1,210,3,2,0,1,0.938087599316713,0.945307519884743
"931",21,26,1,2,211,1,2,1,4,0.504039877374768,0.576434102738613
"932",21,34,1,2,212,1,1,0,4,0.601137185779383,0.585886670861017
"933",21,24,1,1,213,2,1,1,3,0.65523212908114,0.624845436945239
"934",21,19,1,2,214,3,2,1,3,0.920931877584392,0.924368867301297
"935",21,38,1,2,215,1,2,1,4,0.353177628752154,0.286984796238442
"936",21,35,1,2,216,3,1,0,2,1.05047821894809,1.00786579338252
"937",21,21,1,2,217,2,2,1,3,0.706358899672112,0.766512326128448
"938",21,19,1,2,218,3,2,1,2,0.925471928746203,0.922351560471812
"939",21,23,1,1,219,2,2,0,3,0.782080500352475,0.697361125673299
"940",21,29,1,1,220,2,2,0,3,0.73094995657301,0.679900678896061
"941",21,26,1,1,221,2,1,1,4,0.483180682369189,0.455817256628747
"942",21,34,1,1,222,2,1,1,4,0.738175513486016,0.735582751749548
"943",21,24,1,1,223,1,1,1,5,0.379436468244227,0.439790475182487
"944",21,19,1,2,224,1,2,1,4,0.534238999020477,0.54674348692053
"945",21,38,1,2,225,2,2,1,3,0.61467980019105,0.595037891873965
"946",21,35,1,1,226,1,1,1,5,0.443535602354374,0.470022403440643
"947",21,21,1,1,227,1,1,1,4,0.453336968743242,0.447963381709711
"948",21,19,1,1,228,2,2,0,3,0.677219474326677,0.581437887875155
"949",21,23,1,1,229,1,1,1,5,0.301092707658971,0.329141870428577
"950",21,29,1,1,230,2,2,0,3,0.308784304319161,0.341509460233985
"951",21,26,1,1,231,2,2,0,3,0.883873897385012,0.928174687490169
"952",21,34,1,1,232,3,2,0,2,1.00227491843087,1.02134374935166
"953",21,24,1,1,233,2,2,0,2,0.659717931645849,0.636022558246502
"954",21,19,1,2,234,1,2,1,4,0.431399911151399,0.428400384428355
"955",21,38,1,1,235,1,1,1,5,0.394233402175494,0.373104442860292
"956",21,35,1,1,236,1,1,1,5,0.302578756464822,0.30202502680671
"957",21,21,1,1,237,3,2,0,1,0.337897607209492,0.321180304812351
"958",21,19,1,2,238,3,2,1,2,0.89431982314889,0.882894104175044
"959",21,23,1,2,239,2,1,0,2,0.878461572873568,0.918263284484474
"960",21,29,1,2,240,3,2,1,3,0.705459083428557,0.669946228967955
"961",20,30,2,1,1,2,2,0,2,0.824339459669937,0.842230975815185
"962",20,22,2,2,2,2,1,0,3,0.817600912287059,0.823743448609853
"963",20,28,2,1,3,3,1,1,3,0.49897792382705,0.477198151129386
"964",20,30,2,1,4,2,1,1,4,0.539067559691124,0.518917533550054
"965",20,23,2,2,5,3,2,1,2,1.33980689416666,1.35914768950456
"966",20,38,2,1,6,2,1,1,3,0.664147804702696,0.761593934441336
"967",20,36,2,2,7,2,2,1,3,0.610526199110106,0.667811978326432
"968",20,39,2,2,8,3,1,0,2,1.37660580644855,1.44567946596679
"969",20,25,2,1,9,1,1,1,4,0.419510249773321,0.420176525783557
"970",20,32,2,1,10,2,2,0,2,0.795984173402457,0.851955910490164
"971",20,30,2,1,11,1,1,1,5,0.374450956828367,0.406570748080614
"972",20,22,2,1,12,3,2,0,1,0.750203205961421,0.714757241624125
"973",20,28,2,1,13,3,1,1,2,0.930228940311522,0.972601549217365
"974",20,30,2,1,14,3,1,1,3,0.764213455025938,0.772614259680042
"975",20,23,2,2,15,1,2,1,5,0.395681279985108,0.355586447690958
"976",20,38,2,2,16,2,1,0,3,0.64806131914951,0.700658022967587
"977",20,36,2,1,17,2,1,1,4,0.537511969784355,0.514842127235893
"978",20,39,2,1,18,2,1,1,4,0.48354477908096,0.405168956001604
"979",20,25,2,1,19,2,2,0,3,0.528663526609981,0.573634472591281
"980",20,32,2,2,20,1,2,1,4,0.562575828244162,0.555174633325676
"981",20,30,2,2,21,3,1,0,1,0.600142701039761,0.684138409296717
"982",20,22,2,1,22,2,1,1,4,0.733555190421884,0.695751559502281
"983",20,28,2,2,23,2,2,1,4,0.404088310405936,0.393064874588174
"984",20,30,2,1,24,2,2,0,2,0.831098465201805,0.778741682849535
"985",20,23,2,2,25,3,2,1,2,1.13591531221674,1.12528502867588
"986",20,38,2,1,26,1,2,0,4,0.676455592160083,0.728828069085501
"987",20,36,2,1,27,3,2,0,1,0.885938302880014,0.836469975505622
"988",20,39,2,2,28,3,1,0,2,1.51762395297551,1.54608406028186
"989",20,25,2,2,29,1,2,1,4,0.292739713475479,0.244290330523607
"990",20,32,2,1,30,3,2,0,2,0.80292680911735,0.776632399028561
"991",20,30,2,2,31,1,2,1,4,0.38464918262406,0.38278958526562
"992",20,22,2,1,32,1,1,1,4,0.457492113851111,0.450863630832011
"993",20,28,2,1,33,1,1,1,5,0.547399753016461,0.541722993778182
"994",20,30,2,1,34,3,2,0,2,0.858332186376965,0.86459103332188
"995",20,23,2,1,35,2,1,1,4,0.707578985806973,0.689598533335973
"996",20,38,2,1,36,3,1,1,2,0.568249247382219,0.602652463819745
"997",20,36,2,2,37,3,1,0,1,0.666997258477948,0.635900999209744
"998",20,39,2,2,38,2,2,1,3,0.621526465720395,0.626878694071494
"999",20,25,2,2,39,1,2,1,4,0.476451487505165,0.585852483098192
"1000",20,32,2,2,40,2,1,0,3,0.579064034854685,0.546142962140439
"1001",20,30,2,1,41,3,1,1,2,0.557956979356565,0.584533211028989
"1002",20,22,2,2,42,3,2,1,2,0.742300758580421,0.732457878379454
"1003",20,28,2,1,43,2,1,1,4,0.512114591185639,0.492284159469987
"1004",20,30,2,2,44,3,1,0,2,0.848020313821258,0.821158290176572
"1005",20,23,2,2,45,3,2,1,3,0.729555452591584,0.741584239470111
"1006",20,38,2,1,46,1,1,1,4,0.502972054293717,0.487640190461385
"1007",20,36,2,2,47,1,1,0,4,0.378385246576986,0.408149139577768
"1008",20,39,2,1,48,3,1,1,3,0.48144993574352,0.414844383644246
"1009",20,25,2,2,49,1,2,1,5,0.466189002076077,0.472072541267914
"1010",20,32,2,1,50,2,2,0,2,0.918359462083417,0.961519259372329
"1011",20,30,2,2,51,2,2,1,3,0.623164644092957,0.597249178148053
"1012",20,22,2,1,52,2,2,0,3,0.614025502729214,0.595844926501827
"1013",20,28,2,1,53,3,2,0,2,1.14875402850641,1.16000738410151
"1014",20,30,2,1,54,3,2,0,2,1.34009170487056,1.31944296507059
"1015",20,23,2,2,55,2,1,0,3,0.67595345619144,0.668598668755579
"1016",20,38,2,2,56,3,1,0,2,0.549518308467455,0.445314334013979
"1017",20,36,2,2,57,3,2,1,2,0.8230383993111,0.904851147502384
"1018",20,39,2,2,58,1,2,1,5,0.379433488794809,0.383189925007782
"1019",20,25,2,1,59,1,1,1,5,0.328797624110677,0.261733521483493
"1020",20,32,2,2,60,1,2,1,4,0.379046163177503,0.407817433982497
"1021",20,30,2,1,61,1,1,1,4,0.396432001462653,0.337985287138787
"1022",20,22,2,2,62,3,1,0,2,0.624119425692037,0.652188339750134
"1023",20,28,2,1,63,2,2,0,3,0.617471830377308,0.561909905381964
"1024",20,30,2,2,64,3,1,0,1,1.32128843563479,1.28594323260007
"1025",20,23,2,1,65,3,1,1,3,0.65235614662969,0.658130637352784
"1026",20,38,2,2,66,2,2,1,3,0.724922382715156,0.663992599524525
"1027",20,36,2,1,67,2,1,1,3,0.810308489777199,0.890526808943054
"1028",20,39,2,1,68,3,2,0,2,1.47471374477342,1.42204168799824
"1029",20,25,2,2,69,1,2,1,4,0.293648043186658,0.258898530856631
"1030",20,32,2,1,70,3,2,0,2,1.45502374573811,1.54496152384645
"1031",20,30,2,1,71,3,2,0,2,1.04882507288766,1.09517955588644
"1032",20,22,2,1,72,2,2,0,2,0.552049068762157,0.549929613187008
"1033",20,28,2,2,73,1,1,0,3,0.675039501257108,0.686206785777655
"1034",20,30,2,2,74,3,1,0,2,1.15412889250219,1.12108772043227
"1035",20,23,2,1,75,2,2,0,3,0.573409567848593,0.523830437002054
"1036",20,38,2,1,76,1,1,1,5,0.446512917477243,0.433375895407655
"1037",20,36,2,2,77,1,2,1,5,0.505105988355496,0.530680596683321
"1038",20,39,2,2,78,2,2,1,4,0.577280064865189,0.599858378213074
"1039",20,25,2,2,79,1,2,1,4,0.286927523716228,0.336748976822294
"1040",20,32,2,2,80,1,2,1,4,0.370085738840504,0.357418074041362
"1041",20,30,2,1,81,2,2,0,3,0.593950380580199,0.612728090648531
"1042",20,22,2,2,82,3,1,0,2,1.13112530283772,1.17771387792447
"1043",20,28,2,2,83,2,2,1,3,0.646219008503785,0.646220937165396
"1044",20,30,2,2,84,1,2,1,5,0.263296926312951,0.353356111629393
"1045",20,23,2,1,85,1,2,0,3,0.660763587485727,0.664837740086863
"1046",20,38,2,2,86,3,1,0,2,0.942917086570372,0.950820989792759
"1047",20,36,2,1,87,1,1,1,5,0.463791503337796,0.436130691854106
"1048",20,39,2,1,88,2,1,1,3,0.621275688158559,0.685876250351913
"1049",20,25,2,1,89,1,2,0,4,0.647438050902033,0.652239206232707
"1050",20,32,2,2,90,3,1,0,2,0.666855283275555,0.708725280416658
"1051",20,30,2,1,91,2,2,0,3,0.747048918685725,0.79451376989216
"1052",20,22,2,1,92,1,1,1,5,0.245327857162004,0.202382488700889
"1053",20,28,2,1,93,1,1,1,4,0.377868223955594,0.318367232442419
"1054",20,30,2,2,94,2,1,0,2,0.776644677600845,0.743108027010565
"1055",20,23,2,1,95,2,1,1,3,0.647502952235366,0.74511407030884
"1056",20,38,2,2,96,2,2,1,4,0.577292096911177,0.534217019957997
"1057",20,36,2,2,97,1,1,0,4,0.498306506287522,0.501092233011358
"1058",20,39,2,1,98,2,1,1,3,0.776144589945087,0.786259538549057
"1059",20,25,2,1,99,3,1,1,2,0.29049293812905,0.285870998431922
"1060",20,32,2,1,100,1,1,1,5,0.472129969074856,0.376798064840645
"1061",20,30,2,2,101,1,2,1,5,0.332040375117026,0.318698246286516
"1062",20,22,2,2,102,3,2,1,2,0.67352780399002,0.71104084109669
"1063",20,28,2,1,103,1,1,1,4,0.312526938708955,0.34624549319548
"1064",20,30,2,1,104,3,1,1,3,0.692669621705722,0.705912489208288
"1065",20,23,2,2,105,2,2,1,3,0.662379680794482,0.650764158039308
"1066",20,38,2,1,106,3,1,1,3,0.685669728143197,0.719971542590001
"1067",20,36,2,2,107,1,2,1,4,0.392490847842217,0.369822429489725
"1068",20,39,2,1,108,3,2,0,1,0.60351705217392,0.593829429126006
"1069",20,25,2,2,109,1,2,1,4,0.371107095180583,0.392157184270363
"1070",20,32,2,2,110,3,2,1,2,0.694642553374836,0.680281194306369
"1071",20,30,2,2,111,1,1,0,3,0.461341993443375,0.453311453343581
"1072",20,22,2,1,112,2,2,0,3,0.79962494150136,0.855411002988407
"1073",20,28,2,1,113,3,2,0,1,1.60230728044079,1.64838629688592
"1074",20,30,2,1,114,1,1,1,5,0.367798945139201,0.274881540648416
"1075",20,23,2,2,115,2,2,1,3,0.536089207746537,0.591664574212618
"1076",20,38,2,2,116,1,2,1,4,0.399969925413706,0.359664784668046
"1077",20,36,2,1,117,3,2,0,2,0.947249258691367,0.987561474115013
"1078",20,39,2,2,118,2,1,0,3,0.674199557416175,0.565699623399642
"1079",20,25,2,1,119,3,2,0,2,1.01399147650966,0.991565699204749
"1080",20,32,2,2,120,1,2,1,4,0.588815287388056,0.501766395845394
"1081",20,30,2,1,121,1,1,1,5,0.34473269607597,0.380854223582872
"1082",20,22,2,2,122,3,1,0,2,0.815520382819423,0.76059040093953
"1083",20,28,2,1,123,1,1,1,4,0.418447548629996,0.461717250181478
"1084",20,30,2,2,124,2,2,1,3,0.45713743992998,0.442138613006055
"1085",20,23,2,2,125,1,1,0,4,0.461980029706374,0.498190779652989
"1086",20,38,2,1,126,3,1,1,3,0.796095379135023,0.831189679755674
"1087",20,36,2,1,127,3,1,1,3,0.616481381629322,0.531120757435677
"1088",20,39,2,2,128,1,2,1,5,0.329830981063327,0.345667898931281
"1089",20,25,2,1,129,2,2,0,2,0.876376979783033,0.812654468506978
"1090",20,32,2,1,130,3,1,1,2,0.834017480559091,0.909665261056924
"1091",20,30,2,2,131,2,1,0,3,0.717227961649717,0.72619060997347
"1092",20,22,2,2,132,1,2,1,5,0.453303020653923,0.463375671607309
"1093",20,28,2,2,133,3,1,0,1,1.12994863326368,1.07297449376126
"1094",20,30,2,2,134,2,1,0,2,0.661035924286971,0.604090957845178
"1095",20,23,2,1,135,3,2,0,2,0.971956479855856,0.926452458996581
"1096",20,38,2,1,136,1,2,0,4,0.603544499950802,0.602740081805713
"1097",20,36,2,1,137,3,1,1,3,0.764303440028831,0.774201035622169
"1098",20,39,2,2,138,2,2,1,3,0.914045529159515,0.906014698687028
"1099",20,25,2,2,139,1,1,0,4,0.514989297751686,0.578020268830728
"1100",20,32,2,2,140,3,1,0,1,0.886674078388081,0.864715989510898
"1101",20,30,2,1,141,2,1,1,3,0.533286169871286,0.498224776575948
"1102",20,22,2,2,142,3,1,0,1,1.29620374203015,1.30204274538617
"1103",20,28,2,1,143,2,1,1,4,0.526590522640595,0.534317040528751
"1104",20,30,2,1,144,3,1,1,2,0.719374128802757,0.750443801767491
"1105",20,23,2,1,145,3,1,1,3,0.593884037873303,0.630533830298973
"1106",20,38,2,1,146,2,1,1,4,0.770908683809438,0.642401964492957
"1107",20,36,2,1,147,3,2,0,2,0.468319968009257,0.495259963567136
"1108",20,39,2,1,148,2,2,0,3,0.712389089277952,0.667369373937749
"1109",20,25,2,2,149,2,1,0,3,0.406596873316308,0.413974054021561
"1110",20,32,2,2,150,2,1,0,2,0.684115981358407,0.753004819388449
"1111",20,30,2,2,151,3,1,0,1,1.39644156841998,1.36856728589472
"1112",20,22,2,1,152,3,2,0,1,1.52718783331346,1.50966936446919
"1113",20,28,2,1,153,3,2,0,2,0.700166160053915,0.676120410727749
"1114",20,30,2,2,154,1,2,1,5,0.461887999139396,0.366676775456474
"1115",20,23,2,1,155,1,1,1,5,0.518811149468143,0.426752822980165
"1116",20,38,2,2,156,2,2,1,4,0.528782037205776,0.506530703940105
"1117",20,36,2,1,157,3,2,0,2,1.05502131366301,1.1004221460716
"1118",20,39,2,1,158,1,2,0,4,0.336044308113592,0.41617790280371
"1119",20,25,2,2,159,1,2,1,5,0.284544462496152,0.333753003539298
"1120",20,32,2,2,160,1,2,1,5,0.369211395990128,0.294874591072217
"1121",20,30,2,1,161,3,2,0,2,0.960850044139309,1.0086698865793
"1122",20,22,2,2,162,2,1,0,2,0.632540808893116,0.71486353058478
"1123",20,28,2,2,163,1,1,0,3,0.586989613981655,0.487439523485906
"1124",20,30,2,2,164,2,2,1,4,0.622055689868904,0.590426481536318
"1125",20,23,2,2,165,3,1,0,1,0.800228111673437,0.747007862559972
"1126",20,38,2,2,166,1,2,1,5,0.364953135042869,0.365926126616167
"1127",20,36,2,1,167,2,2,0,3,0.692828089821533,0.709459211480404
"1128",20,39,2,1,168,3,2,0,1,1.87069380007407,1.79887762926435
"1129",20,25,2,2,169,1,2,1,5,0.334470798312955,0.341208199813883
"1130",20,32,2,1,170,2,2,0,3,0.805649069185905,0.792795982303576
"1131",20,30,2,1,171,2,2,0,3,0.630837343414868,0.731336227023715
"1132",20,22,2,2,172,1,2,1,5,0.375685975933737,0.28882589941779
"1133",20,28,2,1,173,3,2,0,1,1.42264133768785,1.38787776612997
"1134",20,30,2,2,174,2,2,1,3,0.881384926277528,0.846733985784779
"1135",20,23,2,1,175,1,1,1,4,0.364415374467688,0.393398606496533
"1136",20,38,2,2,176,3,2,1,3,0.714247483962728,0.725826319983775
"1137",20,36,2,1,177,1,1,1,4,0.50697223832801,0.488426204909321
"1138",20,39,2,2,178,1,2,1,5,0.470446379772548,0.520720508037821
"1139",20,25,2,2,179,1,1,0,3,0.302805710066212,0.327375881250063
"1140",20,32,2,1,180,2,1,1,3,0.641061034347969,0.573478456948136
"1141",20,30,2,2,181,1,2,1,4,0.51046455339789,0.527383198895013
"1142",20,22,2,1,182,1,2,0,3,0.62830181800797,0.590796665411401
"1143",20,28,2,2,183,2,1,0,3,0.665447588637465,0.688995300313896
"1144",20,30,2,2,184,2,1,0,2,0.819791482408888,0.795715554083142
"1145",20,23,2,1,185,1,1,1,4,0.41118366608164,0.365297892091126
"1146",20,38,2,2,186,2,2,1,4,0.393893840164372,0.454897356339944
"1147",20,36,2,1,187,1,1,1,4,0.384235364738327,0.353886476358814
"1148",20,39,2,1,188,3,2,0,2,0.810539780384826,0.834666377993805
"1149",20,25,2,2,189,3,2,1,3,0.470487069591442,0.509317950752973
"1150",20,32,2,1,190,2,1,1,3,0.407716832064416,0.39057833501476
"1151",20,30,2,1,191,1,1,1,4,0.371189154353358,0.307937030549234
"1152",20,22,2,1,192,2,1,1,3,0.809587922345055,0.785663102520544
"1153",20,28,2,2,193,2,2,1,3,0.635669514556135,0.557661681862488
"1154",20,30,2,1,194,3,2,0,1,0.80326590887811,0.76415009733885
"1155",20,23,2,2,195,1,2,1,4,0.518275211125332,0.601051323212715
"1156",20,38,2,2,196,3,2,1,2,1.17235383661447,1.21939444779046
"1157",20,36,2,2,197,1,2,1,5,0.429092685566327,0.422750209961274
"1158",20,39,2,2,198,1,2,1,4,0.413709878293393,0.493216983982891
"1159",20,25,2,1,199,3,1,1,2,0.885161741989702,0.815762693680981
"1160",20,32,2,1,200,1,1,1,5,0.222161038669368,0.197470699287885
"1161",20,30,2,1,201,1,1,1,5,0.444566897419657,0.385417524830574
"1162",20,22,2,2,202,3,2,1,2,0.825403471177539,0.758257676227107
"1163",20,28,2,2,203,3,2,1,2,0.581732211013291,0.49463358048759
"1164",20,30,2,2,204,1,2,1,5,0.362869832226446,0.401848795634481
"1165",20,23,2,1,205,2,1,1,4,0.728931796391366,0.675005854778472
"1166",20,38,2,1,206,2,1,1,3,0.569053375835441,0.548127840244989
"1167",20,36,2,1,207,2,2,0,2,0.650946977793333,0.638165133451182
"1168",20,39,2,1,208,2,1,1,3,0.412757310259591,0.476083293196051
"1169",20,25,2,1,209,2,2,0,2,0.844025391104916,0.791461039070774
"1170",20,32,2,2,210,1,2,1,5,0.372619253406727,0.46929535030823
"1171",20,30,2,2,211,3,2,1,2,1.28299060892272,1.26660429040817
"1172",20,22,2,2,212,1,2,1,5,0.518489555491071,0.434760817339015
"1173",20,28,2,2,213,1,2,1,4,0.390537032509979,0.391885178651939
"1174",20,30,2,2,214,3,1,0,2,1.79831448430757,1.90330313081054
"1175",20,23,2,1,215,2,1,1,3,0.849285239204569,0.824722801992718
"1176",20,38,2,2,216,3,2,1,3,0.619615220274735,0.685839463508789
"1177",20,36,2,1,217,2,2,0,2,0.819477695515106,0.820687416863864
"1178",20,39,2,2,218,1,2,1,4,0.377068084889116,0.338909856268806
"1179",20,25,2,2,219,1,2,1,4,0.318095055731774,0.330988268400397
"1180",20,32,2,2,220,3,1,0,1,1.48361148692163,1.51106951858008
"1181",20,30,2,1,221,2,2,0,2,0.622085464814824,0.713906878190114
"1182",20,22,2,2,222,1,2,1,5,0.346173702390003,0.295139836517619
"1183",20,28,2,1,223,3,1,1,2,0.81547301640377,0.805502448636081
"1184",20,30,2,2,224,2,1,0,2,0.865396413076009,0.816244424367312
"1185",20,23,2,2,225,2,1,0,3,0.741368842699043,0.728635509709912
"1186",20,38,2,2,226,2,1,0,3,0.558007639032261,0.563394609656131
"1187",20,36,2,2,227,2,2,1,3,0.582060672499575,0.489871690952589
"1188",20,39,2,1,228,3,1,1,2,0.72129262615069,0.646581757926047
"1189",20,25,2,2,229,2,1,0,3,0.756435823859338,0.656895003606126
"1190",20,32,2,1,230,2,1,1,3,0.572640569769565,0.550815567526403
"1191",20,30,2,2,231,3,2,1,2,0.781756167941832,0.805743026576022
"1192",20,22,2,1,232,3,2,0,1,0.949648117868065,0.99667758363506
"1193",20,28,2,2,233,1,2,1,5,0.421712379705915,0.383496678135818
"1194",20,30,2,1,234,3,1,1,3,0.922428707690597,0.950279844388308
"1195",20,23,2,2,235,2,1,0,2,0.629704683222186,0.685889212423586
"1196",20,38,2,1,236,3,1,1,2,1.1843876342278,1.16142250156979
"1197",20,36,2,1,237,1,1,1,4,0.37380913171017,0.409301455127921
"1198",20,39,2,2,238,1,2,1,5,0.461325955008921,0.495859473809044
"1199",20,25,2,2,239,1,2,1,5,0.53737791564213,0.522479410338257
"1200",20,32,2,1,240,2,1,1,4,0.605188144903941,0.58669954758661
"1201",19,31,1,1,1,2,1,1,4,0.684224684194549,0.559322555237488
"1202",19,39,1,2,2,1,2,1,4,0.224943692015209,0.298618639756188
"1203",19,39,1,2,3,2,2,1,4,0.816127121148196,0.820263980644369
"1204",19,29,1,1,4,2,1,1,3,0.505067976784613,0.474029955367569
"1205",19,29,1,2,5,1,2,1,5,0.449287541540791,0.362451406368672
"1206",19,32,1,2,6,2,2,1,3,0.586610960058194,0.570877189332425
"1207",19,24,1,1,7,3,2,0,1,0.705994734457198,0.704064628803023
"1208",19,36,1,1,8,3,1,1,3,0.623000900181553,0.601676649679935
"1209",19,30,1,2,9,3,2,1,2,0.813861150267281,0.786311876990156
"1210",19,36,1,2,10,1,2,1,4,0.333202309035002,0.326922210446413
"1211",19,31,1,1,11,3,1,1,3,0.78426468839521,0.907641319283084
"1212",19,39,1,2,12,1,2,1,5,0.403101696542534,0.436020199691125
"1213",19,39,1,2,13,1,1,0,4,0.667187639578759,0.636467101383107
"1214",19,29,1,1,14,1,1,1,5,0.434186664946021,0.556054114579033
"1215",19,29,1,2,15,1,2,1,5,0.382765039386157,0.343662740193637
"1216",19,32,1,2,16,1,2,1,4,0.477306557517536,0.450909324801501
"1217",19,24,1,2,17,1,2,1,5,0.461723075337797,0.413831374628073
"1218",19,36,1,2,18,3,2,1,2,0.941948988660609,0.947473417695873
"1219",19,30,1,1,19,2,2,0,2,0.796278932184779,0.83730275780288
"1220",19,36,1,1,20,3,2,0,2,0.626561466225983,0.663801334607281
"1221",19,31,1,1,21,1,1,1,4,0.335286439439385,0.405570225744798
"1222",19,39,1,2,22,3,1,0,2,1.35485037989841,1.29658781182912
"1223",19,39,1,1,23,3,1,1,2,1.11240178067516,1.08292881689244
"1224",19,29,1,2,24,3,2,1,3,0.686714156068954,0.699423323375422
"1225",19,29,1,1,25,2,2,0,3,0.665923216781943,0.745590119691575
"1226",19,32,1,1,26,3,2,0,2,1.22095967025728,1.22701327828635
"1227",19,24,1,2,27,3,1,0,2,0.711787684836971,0.701314549227543
"1228",19,36,1,1,28,1,1,1,4,0.40859464233854,0.400170113964148
"1229",19,30,1,2,29,3,1,0,1,1.01512597902527,1.02529339548216
"1230",19,36,1,1,30,2,1,1,3,0.505368219091508,0.480457205582477
"1231",19,31,1,1,31,2,1,1,4,0.773879522719609,0.779468740609259
"1232",19,39,1,1,32,1,2,0,3,0.678696492321423,0.710211460344342
"1233",19,39,1,1,33,2,1,1,4,0.556264101516318,0.553211454260747
"1234",19,29,1,2,34,3,2,1,3,0.748697156755427,0.805315402174928
"1235",19,29,1,2,35,3,1,0,1,1.59951601073805,1.6460486575545
"1236",19,32,1,2,36,3,2,1,3,0.787480716846919,0.708876052821837
"1237",19,24,1,1,37,1,1,1,5,0.431488921805736,0.435868204034932
"1238",19,36,1,2,38,3,2,1,3,0.331329652472056,0.375761754815654
"1239",19,30,1,1,39,2,1,1,3,0.534133475749175,0.657367933067574
"1240",19,36,1,1,40,1,1,1,4,0.384157543391926,0.330759333806712
"1241",19,31,1,1,41,2,1,1,3,0.606907957303135,0.703756401970935
"1242",19,39,1,1,42,1,1,1,4,0.372049618021333,0.387884723396671
"1243",19,39,1,2,43,2,2,1,3,0.662188013367192,0.631566046490804
"1244",19,29,1,2,44,3,1,0,2,0.713917062462172,0.766022608369464
"1245",19,29,1,1,45,2,1,1,4,0.51926142421623,0.47595553354965
"1246",19,32,1,1,46,2,2,0,2,0.732307514675096,0.765764764211679
"1247",19,24,1,2,47,1,2,1,5,0.433880324405193,0.439202182375747
"1248",19,36,1,1,48,1,1,1,5,0.302582053054259,0.343626485554177
"1249",19,30,1,2,49,2,2,1,4,0.349682222317797,0.26288560850806
"1250",19,36,1,2,50,2,1,0,2,0.518009399713844,0.472839246688458
"1251",19,31,1,2,51,2,2,1,4,0.555302506741363,0.527267121162885
"1252",19,39,1,1,52,3,2,0,2,0.840131788289857,0.807692521190661
"1253",19,39,1,2,53,2,2,1,3,0.621774874354444,0.602078443967551
"1254",19,29,1,2,54,2,2,1,4,0.599663556239344,0.54704028998259
"1255",19,29,1,1,55,3,1,1,2,0.965146966126921,0.956098461871263
"1256",19,32,1,2,56,1,2,1,4,0.429071659436283,0.438824255235735
"1257",19,24,1,1,57,2,2,0,2,0.618184738665514,0.639093150958432
"1258",19,36,1,2,58,3,1,0,1,0.951484303693778,0.930650143285604
"1259",19,30,1,1,59,3,2,0,2,0.746396323707512,0.723723199870494
"1260",19,36,1,1,60,1,1,1,5,0.370381910859887,0.347725186583628
"1261",19,31,1,1,61,2,1,1,3,0.631038655768218,0.552950059233021
"1262",19,39,1,1,62,2,1,1,4,0.589842394374896,0.482290130769562
"1263",19,39,1,1,63,2,1,1,4,0.742272138323444,0.743610976647987
"1264",19,29,1,1,64,1,2,0,3,0.471450403641625,0.393167621327009
"1265",19,29,1,1,65,1,1,1,4,0.403003431727459,0.40121886240771
"1266",19,32,1,1,66,3,1,1,2,0.771484281023982,0.745398757689368
"1267",19,24,1,2,67,3,2,1,3,0.833533845967914,0.869491328428542
"1268",19,36,1,2,68,1,2,1,4,0.414363175000511,0.385854632969234
"1269",19,30,1,1,69,1,2,0,4,0.699218978786691,0.704496149100547
"1270",19,36,1,2,70,1,2,1,4,0.460104899962176,0.520255975129767
"1271",19,31,1,1,71,2,1,1,3,0.688369578925179,0.674627233270394
"1272",19,39,1,1,72,3,2,0,2,0.264852068195128,0.182131642553322
"1273",19,39,1,1,73,2,1,1,4,0.337100538488247,0.371331432402602
"1274",19,29,1,2,74,2,2,1,3,0.552046155884668,0.527446965631628
"1275",19,29,1,1,75,1,2,0,3,0.527464984102374,0.530750940529614
"1276",19,32,1,2,76,3,1,0,2,1.36474774840166,1.35702328586667
"1277",19,24,1,1,77,3,1,1,3,0.822175941871046,0.714294246236616
"1278",19,36,1,1,78,2,2,0,2,0.411147954191659,0.516521510795327
"1279",19,30,1,2,79,3,1,0,2,0.722064307765257,0.720228925045807
"1280",19,36,1,2,80,1,1,0,4,0.48610107231737,0.484012593631078
"1281",19,31,1,1,81,3,2,0,2,0.919554639440359,0.955718087171463
"1282",19,39,1,2,82,1,2,1,5,0.479300309248889,0.435130409159516
"1283",19,39,1,1,83,1,1,1,5,0.324866669318989,0.297397584063734
"1284",19,29,1,1,84,2,2,0,3,0.788872974426654,0.791542731593307
"1285",19,29,1,2,85,1,1,0,4,0.45513433914798,0.419815733473042
"1286",19,32,1,2,86,1,2,1,5,0.334499386833568,0.327788062405177
"1287",19,24,1,2,87,2,1,0,2,0.529818166523449,0.530951896837159
"1288",19,36,1,2,88,2,2,1,3,0.636528213789405,0.659899701497711
"1289",19,30,1,1,89,2,1,1,4,0.595470743903319,0.626166778264797
"1290",19,36,1,2,90,3,1,0,2,0.707366312720227,0.715839981738848
"1291",19,31,1,1,91,3,1,1,3,0.439242846083932,0.449980990208075
"1292",19,39,1,2,92,2,1,0,3,0.939847925373776,0.8504577683105
"1293",19,39,1,2,93,2,2,1,3,0.262332598218744,0.231867327072907
"1294",19,29,1,2,94,2,1,0,2,0.820027253138739,0.836038857348791
"1295",19,29,1,2,95,2,1,0,2,0.841431268043764,0.829485381401466
"1296",19,32,1,2,96,2,1,0,2,0.511431148571603,0.517345457215586
"1297",19,24,1,1,97,1,1,1,4,0.41183457866872,0.370982263551352
"1298",19,36,1,1,98,1,1,1,4,0.505436478258554,0.440220972739673
"1299",19,30,1,2,99,3,1,0,2,1.35064343416929,1.3686114088649
"1300",19,36,1,2,100,3,2,1,3,1.04299953102999,1.05512232830795
"1301",19,31,1,1,101,2,1,1,3,0.552502508396548,0.609474794651157
"1302",19,39,1,1,102,1,1,1,5,0.453352915545171,0.476426648751587
"1303",19,39,1,1,103,3,2,0,1,0.923025632309588,0.879900615931907
"1304",19,29,1,2,104,3,2,1,2,0.795795843368672,0.669833571204058
"1305",19,29,1,2,105,3,1,0,2,1.32618739615771,1.30319103819462
"1306",19,32,1,1,106,1,1,1,4,0.402717085958039,0.348909477359666
"1307",19,24,1,2,107,3,1,0,2,1.49855411186849,1.37374717365167
"1308",19,36,1,2,108,1,2,1,5,0.376349043585915,0.384759956703324
"1309",19,30,1,2,109,3,2,1,2,1.1222964315472,1.0947989495075
"1310",19,36,1,1,110,2,1,1,3,0.812021660818678,0.796813731728868
"1311",19,31,1,1,111,1,1,1,4,0.484200433735146,0.441351241152234
"1312",19,39,1,2,112,2,1,0,2,0.409864468524187,0.398540217675845
"1313",19,39,1,2,113,1,2,1,5,0.307444054867774,0.27781221531458
"1314",19,29,1,2,114,3,1,0,1,1.73986448888108,1.732108994922
"1315",19,29,1,2,115,2,1,0,2,0.666058902291999,0.675492984147593
"1316",19,32,1,2,116,3,2,1,3,1.14502304739743,1.11788097451604
"1317",19,24,1,1,117,1,1,1,5,0.390006594699963,0.451784451960797
"1318",19,36,1,1,118,2,1,1,3,0.706412503132187,0.74153386480398
"1319",19,30,1,1,119,1,2,0,3,0.440431774180736,0.551275645753538
"1320",19,36,1,2,120,1,2,1,5,0.524243015854861,0.457729625585341
"1321",19,31,1,2,121,1,2,1,4,0.373707757700136,0.332109182715002
"1322",19,39,1,1,122,1,1,1,4,0.362985021361567,0.381937609417667
"1323",19,39,1,2,123,3,1,0,2,0.936453952139737,0.861114911975223
"1324",19,29,1,2,124,3,1,0,1,1.32093998584285,1.26670901528546
"1325",19,29,1,1,125,1,1,1,4,0.300948056004084,0.239212369319616
"1326",19,32,1,2,126,3,1,0,1,1.75748441682464,1.76774473464809
"1327",19,24,1,1,127,2,2,0,2,0.588739043170277,0.514632851590544
"1328",19,36,1,2,128,1,2,1,5,0.341464115207942,0.339106730174464
"1329",19,30,1,1,129,2,1,1,4,0.363329985352366,0.345298910989445
"1330",19,36,1,1,130,2,2,0,2,0.655733361504222,0.698836930944897
"1331",19,31,1,2,131,2,1,0,3,0.26150321191576,0.295054542688009
"1332",19,39,1,2,132,2,1,0,2,0.831309715629147,0.817581061810393
"1333",19,39,1,2,133,3,2,1,3,0.462405597962697,0.490378217348035
"1334",19,29,1,2,134,3,2,1,2,0.700024153299266,0.794621713387983
"1335",19,29,1,1,135,3,2,0,1,0.990800457889074,0.936415649271894
"1336",19,32,1,2,136,2,2,1,3,0.7207456106999,0.711109420422653
"1337",19,24,1,2,137,1,2,1,5,0.279747880499746,0.28760576638295
"1338",19,36,1,2,138,2,1,0,3,0.628225750425012,0.745421149142778
"1339",19,30,1,1,139,2,2,0,2,0.939221095096057,0.964027101233158
"1340",19,36,1,1,140,3,2,0,2,1.69661824570584,1.75746086849005
"1341",19,31,1,2,141,3,2,1,3,1.11618970049597,1.16194317800874
"1342",19,39,1,1,142,1,1,1,5,0.352706084439704,0.308580816704033
"1343",19,39,1,2,143,1,1,0,3,0.663111455707572,0.672159361416317
"1344",19,29,1,2,144,2,2,1,4,0.649261681699378,0.643969128791231
"1345",19,29,1,2,145,2,2,1,3,0.742247293818971,0.765110701474898
"1346",19,32,1,2,146,2,2,1,3,0.595064431430805,0.597433663901926
"1347",19,24,1,1,147,3,1,1,3,0.531134013424794,0.593201712270715
"1348",19,36,1,1,148,2,2,0,3,0.534697980454168,0.638771380170188
"1349",19,30,1,2,149,1,2,1,5,0.382488658534356,0.412936273704292
"1350",19,36,1,2,150,3,2,1,3,0.40313337445248,0.376101937074843
"1351",19,31,1,1,151,3,2,0,1,0.499440840536894,0.563535830711314
"1352",19,39,1,1,152,1,1,1,5,0.502161430454545,0.467667920096034
"1353",19,39,1,1,153,1,1,1,4,0.423242038877402,0.48302959199781
"1354",19,29,1,1,154,1,1,1,5,0.474917407479497,0.496193199523048
"1355",19,29,1,2,155,1,2,1,4,0.285527754091715,0.266013866015234
"1356",19,32,1,2,156,1,2,1,4,0.382447918936939,0.363133588466169
"1357",19,24,1,2,157,3,1,0,2,0.972101078843392,0.925742550633828
"1358",19,36,1,1,158,2,2,0,2,0.886616101866211,0.875279277822823
"1359",19,30,1,1,159,1,2,0,4,0.589942462605737,0.553762481400188
"1360",19,36,1,1,160,2,2,0,2,0.663084271434595,0.690222777003034
"1361",19,31,1,1,161,2,1,1,3,0.476237239425049,0.473048531724261
"1362",19,39,1,2,162,2,2,1,3,0.43531905305535,0.455804389879328
"1363",19,39,1,2,163,3,2,1,3,0.945617677087145,0.952196154927465
"1364",19,29,1,1,164,2,1,1,4,0.494391843539019,0.587525613029044
"1365",19,29,1,1,165,1,1,1,5,0.409073777168102,0.453299818692818
"1366",19,32,1,2,166,1,2,1,5,0.474014942906828,0.497920828655078
"1367",19,24,1,2,167,1,2,1,4,0.362352792473515,0.396583677624505
"1368",19,36,1,2,168,1,1,0,3,0.260653918288807,0.430422568837279
"1369",19,30,1,1,169,3,1,1,2,0.815001749313645,0.878395914362369
"1370",19,36,1,1,170,3,2,0,2,1.14585727290049,1.03223848252356
"1371",19,31,1,1,171,2,1,1,3,0.654835252830363,0.623364141784362
"1372",19,39,1,1,172,1,1,1,4,0.408633662749152,0.447987881132536
"1373",19,39,1,1,173,2,1,1,4,0.510589189604822,0.528186032270054
"1374",19,29,1,1,174,2,2,0,3,0.741946972263623,0.754806155114876
"1375",19,29,1,1,175,1,1,1,5,0.366128280584625,0.375154539698891
"1376",19,32,1,2,176,3,2,1,3,1.11344649843319,1.16623487881359
"1377",19,24,1,2,177,3,2,1,3,0.959915576726317,0.981865171325986
"1378",19,36,1,2,178,1,2,1,5,0.328452047878526,0.296785137946156
"1379",19,30,1,1,179,1,1,1,5,0.330247317130308,0.293830050060548
"1380",19,36,1,2,180,3,1,0,2,1.14225063982614,1.11277284749398
"1381",19,31,1,2,181,1,2,1,4,0.403873604246471,0.485622214687519
"1382",19,39,1,1,182,2,1,1,3,0.659930094498188,0.616657223214366
"1383",19,39,1,2,183,2,2,1,4,0.499242967692098,0.451083718037543
"1384",19,29,1,1,184,3,1,1,2,0.574813842030719,0.527220731804833
"1385",19,29,1,1,185,3,1,1,3,0.507601966053658,0.522861733748521
"1386",19,32,1,2,186,3,1,0,1,0.562219676778555,0.558919073694097
"1387",19,24,1,2,187,3,1,0,2,0.759649367667242,0.766909422175039
"1388",19,36,1,1,188,1,1,1,5,0.495350491104336,0.541029842824656
"1389",19,30,1,1,189,2,2,0,3,0.721929696394875,0.748193130104081
"1390",19,36,1,2,190,1,2,1,4,0.456306580345101,0.491846448736669
"1391",19,31,1,1,191,1,1,1,5,0.435312525355355,0.397331485123913
"1392",19,39,1,1,192,2,1,1,3,0.552006333002714,0.553691643486886
"1393",19,39,1,2,193,2,2,1,3,0.460528811172403,0.466648331059611
"1394",19,29,1,1,194,2,1,1,4,0.454133045272933,0.462757221645119
"1395",19,29,1,2,195,3,1,0,2,1.09874220798571,1.03953001330768
"1396",19,32,1,2,196,1,2,1,4,0.526922724675394,0.521257178652468
"1397",19,24,1,2,197,3,2,1,3,0.831913266466564,0.907695286298504
"1398",19,36,1,2,198,3,2,1,2,0.547793030295953,0.572707132620912
"1399",19,30,1,1,199,3,1,1,3,1.19106405688801,1.22619497235261
"1400",19,36,1,1,200,1,1,1,4,0.533913558371438,0.519412922033787
"1401",19,31,1,1,201,2,1,1,3,0.710187712537362,0.731856844975938
"1402",19,39,1,2,202,1,1,0,3,0.53568478422336,0.435550920033027
"1403",19,39,1,1,203,1,1,1,4,0.361640184193658,0.438472304893997
"1404",19,29,1,1,204,2,1,1,3,0.844134435465386,0.807895479303851
"1405",19,29,1,1,205,1,1,1,5,0.548004522342638,0.551113672984321
"1406",19,32,1,2,206,2,1,0,3,0.719023416331804,0.697023157558476
"1407",19,24,1,1,207,1,2,0,3,0.574352600269293,0.615218204463394
"1408",19,36,1,1,208,3,2,0,2,0.967634465886382,0.925900394107912
"1409",19,30,1,1,209,1,1,1,5,0.317218669636479,0.223736774729734
"1410",19,36,1,1,210,3,2,0,1,1.38728232501687,1.29134982339032
"1411",19,31,1,2,211,2,2,1,4,0.420397534473842,0.364579458558644
"1412",19,39,1,1,212,1,1,1,5,0.32399787946719,0.366506437990131
"1413",19,39,1,1,213,2,1,1,4,0.422079824995028,0.31425176077447
"1414",19,29,1,2,214,3,1,0,2,1.17066851240277,1.18466881476978
"1415",19,29,1,1,215,2,2,0,2,0.710660002667359,0.733368491378848
"1416",19,32,1,1,216,3,1,1,2,0.730596056261674,0.758932724926198
"1417",19,24,1,2,217,2,1,0,2,0.45161519487144,0.433908785583118
"1418",19,36,1,1,218,3,2,0,2,0.985036138265636,1.0364839840425
"1419",19,30,1,1,219,3,1,1,2,0.69963197049353,0.731017068978515
"1420",19,36,1,2,220,3,2,1,3,1.01298073872502,1.01886705674382
"1421",19,31,1,1,221,2,2,0,2,0.671151846301741,0.688244766968176
"1422",19,39,1,2,222,1,2,1,4,0.533818018384599,0.404668494433818
"1423",19,39,1,2,223,1,2,1,5,0.374172866314949,0.335187603498538
"1424",19,29,1,2,224,3,2,1,3,0.794512976509991,0.794130570753421
"1425",19,29,1,2,225,1,2,1,5,0.37209609741537,0.48634293454722
"1426",19,32,1,1,226,2,2,0,2,0.787460728117087,0.747926529417259
"1427",19,24,1,1,227,1,1,1,5,0.464965046683724,0.366902983644167
"1428",19,36,1,1,228,3,2,0,1,1.10764775253705,1.03694416641206
"1429",19,30,1,2,229,3,1,0,1,1.01413457212023,1.0230655123483
"1430",19,36,1,1,230,2,2,0,3,0.449879823706868,0.419847240708325
"1431",19,31,1,2,231,2,2,1,3,0.706633622289211,0.771823935486536
"1432",19,39,1,1,232,3,2,0,2,1.71780363290804,1.70541024308443
"1433",19,39,1,2,233,3,1,0,2,1.25437953357485,1.25157330635294
"1434",19,29,1,2,234,2,2,1,3,0.594413968990947,0.61098583952583
"1435",19,29,1,1,235,3,2,0,1,0.482725649516966,0.556595004309203
"1436",19,32,1,2,236,1,2,1,4,0.365122505213561,0.390095539905001
"1437",19,24,1,2,237,1,1,0,4,0.542172727061147,0.461331285390407
"1438",19,36,1,2,238,2,2,1,4,0.592265430129596,0.57845136871469
"1439",19,30,1,1,239,3,2,0,1,1.03783564780078,1.00450116657212
"1440",19,36,1,2,240,3,1,0,2,0.453519036862824,0.416079919565937
"1441",18,19,2,2,1,3,1,0,1,0.583959984397133,0.579540432574434
"1442",18,22,2,2,2,2,2,1,4,0.572264142521651,0.584237685790597
"1443",18,20,2,2,3,1,2,1,4,0.427260434244839,0.436249381943101
"1444",18,34,2,1,4,3,2,0,2,0.899601688932103,0.786017738852375
"1445",18,32,2,2,5,2,1,0,2,0.567925970731267,0.572048452015653
"1446",18,33,2,2,6,1,2,1,5,0.342476741993821,0.334503250001231
"1447",18,18,2,2,7,1,2,1,5,0.431548227062327,0.416527169789329
"1448",18,36,2,1,8,3,1,1,3,0.599705955590283,0.536804559011358
"1449",18,26,2,2,9,1,2,1,4,0.399392959352026,0.420830979733422
"1450",18,23,2,2,10,1,1,0,4,0.576556386490251,0.568659006498118
"1451",18,19,2,1,11,3,2,0,1,0.883011825220108,0.866932522685613
"1452",18,22,2,1,12,2,1,1,3,0.880073615949815,0.877887905044861
"1453",18,20,2,2,13,1,2,1,5,0.297693006945106,0.345267210471252
"1454",18,34,2,2,14,1,2,1,4,0.352638216699052,0.429043743111422
"1455",18,32,2,1,15,2,2,0,2,0.83765546361971,0.82442574901013
"1456",18,33,2,2,16,2,2,1,4,0.681364350738443,0.690438524346701
"1457",18,18,2,1,17,1,1,1,5,0.471304561874198,0.448270476690307
"1458",18,36,2,2,18,3,2,1,2,0.819876703276811,0.823724464928418
"1459",18,26,2,1,19,3,2,0,1,0.977906348223861,0.964419539393329
"1460",18,23,2,1,20,3,2,0,1,1.07644860925403,0.998604729950736
"1461",18,19,2,1,21,2,1,1,3,0.626509061698935,0.697820213824866
"1462",18,22,2,1,22,1,2,0,4,0.43696375178903,0.373783956768574
"1463",18,20,2,1,23,3,1,1,2,0.562625547899705,0.518011043672003
"1464",18,34,2,1,24,1,2,0,4,0.553482071048995,0.593426520219277
"1465",18,32,2,1,25,3,2,0,1,1.23963012463927,1.25507536764782
"1466",18,33,2,2,26,1,2,1,4,0.448028723931122,0.485241360131209
"1467",18,18,2,2,27,3,2,1,2,0.732843754155411,0.706877488426648
"1468",18,36,2,1,28,1,1,1,4,0.351899332160348,0.406345168433006
"1469",18,26,2,1,29,3,2,0,2,0.408918382219282,0.372377595771438
"1470",18,23,2,1,30,2,1,1,3,0.853609126361689,0.864457178719646
"1471",18,19,2,2,31,1,2,1,4,0.258502944188333,0.246718757597848
"1472",18,22,2,2,32,3,1,0,1,0.933485234080526,0.869473954697236
"1473",18,20,2,2,33,3,2,1,2,0.847006110553148,0.78642727717669
"1474",18,34,2,1,34,3,2,0,2,1.06264252046373,1.08563842646333
"1475",18,32,2,1,35,1,1,1,5,0.425962020655418,0.367262314638953
"1476",18,33,2,2,36,3,2,1,2,1.07921642805466,1.18188923944466
"1477",18,18,2,1,37,1,2,0,4,0.530865273958526,0.476407847131961
"1478",18,36,2,1,38,1,1,1,5,0.205042721377359,0.251747094958215
"1479",18,26,2,2,39,1,2,1,5,0.379873360293476,0.394354735044682
"1480",18,23,2,2,40,3,2,1,3,0.487363714831442,0.447897806169055
"1481",18,19,2,1,41,3,2,0,1,0.851479262846116,0.726966135430448
"1482",18,22,2,2,42,1,1,0,4,0.289300863497712,0.364511145142097
"1483",18,20,2,2,43,2,1,0,2,0.802892472390785,0.780267051226456
"1484",18,34,2,2,44,3,2,1,2,0.955575897638659,0.939675146778257
"1485",18,32,2,1,45,3,2,0,2,0.893482983646162,0.974493883987572
"1486",18,33,2,2,46,2,1,0,3,0.857689595471681,0.855864542587394
"1487",18,18,2,1,47,2,2,0,3,0.677131213046638,0.730463684159333
"1488",18,36,2,1,48,2,1,1,3,0.573148772542309,0.590567212030816
"1489",18,26,2,1,49,2,1,1,4,0.701153998084675,0.749469144001071
"1490",18,23,2,2,50,3,1,0,2,1.33228561623473,1.33929098434856
"1491",18,19,2,2,51,2,2,1,3,0.518872063979804,0.4827492244891
"1492",18,22,2,2,52,2,1,0,2,0.762886551847406,0.727103142787758
"1493",18,20,2,2,53,2,2,1,3,0.513780465763272,0.584280887754625
"1494",18,34,2,1,54,3,1,1,2,0.728516653072728,0.681408928395236
"1495",18,32,2,1,55,1,2,0,4,0.515822241318972,0.497049672171224
"1496",18,33,2,1,56,3,2,0,2,0.488421582374783,0.544626823928786
"1497",18,18,2,1,57,2,1,1,4,0.77683491813222,0.787424030838374
"1498",18,36,2,2,58,3,2,1,3,0.91307962571399,0.93483988130654
"1499",18,26,2,2,59,3,2,1,3,0.572319418208517,0.581892758292292
"1500",18,23,2,1,60,3,1,1,2,0.987559401344132,1.04385946954535
"1501",18,19,2,2,61,2,2,1,4,0.817499516905794,0.902219577533074
"1502",18,22,2,1,62,3,1,1,3,0.752113797249282,0.757701264487979
"1503",18,20,2,2,63,1,2,1,4,0.42076451646448,0.365273952549532
"1504",18,34,2,1,64,3,2,0,2,0.626470289778558,0.619152093079148
"1505",18,32,2,2,65,1,2,1,4,0.441283837593036,0.375781846033549
"1506",18,33,2,1,66,1,2,0,3,0.562706254140436,0.528151957503357
"1507",18,18,2,1,67,2,1,1,3,0.646554279867834,0.711359725460046
"1508",18,36,2,2,68,3,1,0,2,1.06925576499222,1.07562173905105
"1509",18,26,2,2,69,1,2,1,5,0.434859795150832,0.421405808377408
"1510",18,23,2,1,70,3,2,0,1,1.09875409673577,1.16244013735873
"1511",18,19,2,1,71,3,2,0,2,1.23840417126864,1.22377820491013
"1512",18,22,2,1,72,2,1,1,3,0.538891930592441,0.542348247906533
"1513",18,20,2,2,73,2,2,1,3,0.547159364192431,0.651322013114011
"1514",18,34,2,2,74,2,2,1,4,0.744083970994038,0.78488324572297
"1515",18,32,2,1,75,3,2,0,1,1.11462510483746,1.1092965703264
"1516",18,33,2,2,76,2,2,1,3,0.658272587617611,0.715039578124002
"1517",18,18,2,1,77,1,2,0,4,0.695379982812837,0.700882887614532
"1518",18,36,2,2,78,3,1,0,2,0.878806932652267,0.90793240424849
"1519",18,26,2,1,79,2,2,0,2,0.722116118175312,0.762066486811789
"1520",18,23,2,2,80,1,2,1,5,0.525472832837991,0.584345018930748
"1521",18,19,2,2,81,3,1,0,1,0.584432261646037,0.567368856930518
"1522",18,22,2,2,82,1,2,1,5,0.266053753133199,0.306787974580934
"1523",18,20,2,2,83,3,1,0,1,1.13384821061382,1.03739546494753
"1524",18,34,2,2,84,1,1,0,4,0.655208365813508,0.596522053937983
"1525",18,32,2,1,85,2,2,0,2,0.613728869683276,0.584044265742914
"1526",18,33,2,1,86,1,1,1,5,0.478870047619629,0.549617873021681
"1527",18,18,2,1,87,2,2,0,2,1.03740914181631,1.05100934389828
"1528",18,36,2,2,88,1,1,0,4,0.636742721993091,0.64058293673922
"1529",18,26,2,2,89,3,2,1,3,1.0149229300287,1.0924268574795
"1530",18,23,2,2,90,2,2,1,4,0.519448966766514,0.396530541711093
"1531",18,19,2,2,91,1,2,1,5,0.462275680456869,0.500380325336738
"1532",18,22,2,1,92,3,1,1,3,0.616846209112869,0.672943979876335
"1533",18,20,2,2,93,1,2,1,4,0.278416808324453,0.273168475337304
"1534",18,34,2,2,94,2,2,1,3,0.296515029774887,0.231695821999716
"1535",18,32,2,1,95,1,1,1,4,0.395191160099811,0.387479945467546
"1536",18,33,2,1,96,3,1,1,2,1.06814223861426,1.04479031738949
"1537",18,18,2,2,97,3,2,1,2,0.661477853124545,0.631876728452796
"1538",18,36,2,1,98,2,2,0,3,0.655437108509656,0.628603234620268
"1539",18,26,2,2,99,2,1,0,2,0.65687922300726,0.656259963181715
"1540",18,23,2,1,100,3,1,1,2,1.00503791688511,0.999044827369779
"1541",18,19,2,1,101,3,1,1,3,1.11347748500916,1.04150597211181
"1542",18,22,2,2,102,2,1,0,3,1.20498972872731,1.15569677026437
"1543",18,20,2,1,103,1,1,1,5,0.412648531611503,0.425010849121666
"1544",18,34,2,2,104,1,2,1,4,0.48136495209365,0.533749799855485
"1545",18,32,2,1,105,1,2,0,4,0.519203475815085,0.536613353192389
"1546",18,33,2,2,106,1,2,1,4,0.488583917348753,0.565835348216458
"1547",18,18,2,2,107,2,1,0,3,0.715894285159639,0.647268831322876
"1548",18,36,2,2,108,3,2,1,3,0.792427726066904,0.839903188993528
"1549",18,26,2,1,109,2,2,0,2,0.712286768612904,0.746705819510961
"1550",18,23,2,1,110,3,1,1,2,0.574713443048974,0.623739852242522
"1551",18,19,2,2,111,3,1,0,1,1.00179791992763,1.0267359281423
"1552",18,22,2,1,112,2,2,0,3,0.581764501763076,0.54059289715395
"1553",18,20,2,1,113,3,2,0,2,0.919068424622308,0.873172873008957
"1554",18,34,2,1,114,2,2,0,2,0.535905266489685,0.62386698943768
"1555",18,32,2,2,115,1,2,1,4,0.449219123545965,0.479412756886465
"1556",18,33,2,2,116,2,1,0,3,0.41875581484358,0.392066758950904
"1557",18,18,2,2,117,1,2,1,5,0.454967329040326,0.422003179990542
"1558",18,36,2,1,118,2,1,1,3,0.77252320341803,0.821038504324913
"1559",18,26,2,1,119,2,1,1,4,0.528816685455531,0.495345432036939
"1560",18,23,2,1,120,1,1,1,4,0.497884607063767,0.534058008509333
"1561",18,19,2,1,121,1,1,1,5,0.465688222427799,0.471087515644889
"1562",18,22,2,1,122,2,1,1,3,0.802405174986149,0.69265064693894
"1563",18,20,2,1,123,1,1,1,5,0.505209294097749,0.484693440124529
"1564",18,34,2,2,124,2,1,0,3,0.525487065778495,0.534745386408928
"1565",18,32,2,2,125,2,2,1,3,0.506882465637567,0.546301927192724
"1566",18,33,2,1,126,1,1,1,5,0.505010666537817,0.489634305004276
"1567",18,18,2,1,127,1,2,0,4,0.394981886831904,0.501233408479359
"1568",18,36,2,1,128,3,1,1,3,0.886638583167571,0.837921356770426
"1569",18,26,2,1,129,2,1,1,4,0.470099830510426,0.524781021509604
"1570",18,23,2,2,130,2,2,1,3,0.60319834116523,0.482110692398761
"1571",18,19,2,2,131,3,2,1,2,1.05070841582915,1.10211487638566
"1572",18,22,2,2,132,1,2,1,5,0.328252097356721,0.386348449374756
"1573",18,20,2,2,133,1,1,0,3,0.595421292715224,0.681512641566146
"1574",18,34,2,1,134,3,1,1,3,0.506726727966882,0.500290375654557
"1575",18,32,2,2,135,1,2,1,5,0.449927345527352,0.417805767850787
"1576",18,33,2,2,136,2,2,1,3,0.569041160443709,0.646454600937813
