"","subj_no","age","group","stim","trial","difficulty","resp","corr","conf","RT_day1","RT_day2"
"1",25,31,1,2,1,2,2,1,3,0.67805154528474,0.711624653794656
"2",25,26,1,1,2,2,1,1,3,0.383679322290283,0.315455508475476
"3",25,28,1,2,3,1,2,1,5,0.514014256695182,0.442554786039049
"4",25,21,1,1,4,2,1,1,3,0.711955088643423,0.796769443006193
"5",25,26,1,2,5,3,1,0,1,1.15844276984974,1.07667952568262
"6",25,27,1,1,6,1,1,1,5,0.380229223788286,0.394711179331731
"7",25,35,1,1,7,1,1,1,5,0.275163883338054,0.252478951648638
"8",25,29,1,1,8,1,1,1,4,0.492166232629775,0.519439131515032
"9",25,27,1,1,9,2,2,0,2,0.820884492952669,0.799510863468827
"10",25,30,1,1,10,1,1,1,5,0.421557866378046,0.425698154798183
"11",25,31,1,2,11,2,2,1,4,0.430862054716731,0.442907372257997
"12",25,26,1,2,12,2,1,0,3,0.554567169400177,0.537254909803747
"13",25,28,1,1,13,2,2,0,3,0.730742784484471,0.654061852827709
"14",25,21,1,1,14,1,1,1,4,0.406726394894324,0.4528301363779
"15",25,26,1,1,15,3,2,0,1,1.92124978792158,1.95092791212625
"16",25,27,1,2,16,1,1,0,3,0.487349863211348,0.552416512772826
"17",25,35,1,1,17,2,1,1,4,0.701097149428262,0.696538997354488
"18",25,29,1,1,18,2,1,1,4,0.605004680555311,0.556013078342424
"19",25,27,1,2,19,1,2,1,4,0.474018464033637,0.467818746168913
"20",25,30,1,1,20,2,1,1,3,0.562308227922782,0.546448877565318
"21",25,31,1,2,21,1,2,1,4,0.210444414535001,0.236386827878457
"22",25,26,1,2,22,1,2,1,5,0.448676627456429,0.380900829013447
"23",25,28,1,2,23,1,2,1,5,0.476128136854205,0.395773581275444
"24",25,21,1,1,24,2,1,1,3,0.524826654902373,0.507355551861197
"25",25,26,1,1,25,3,2,0,1,1.61221913416179,1.6391298663242
"26",25,27,1,2,26,2,1,0,3,0.828045612467319,0.855245812139426
"27",25,35,1,1,27,3,1,1,3,0.986633065212446,0.989991342978852
"28",25,29,1,2,28,3,2,1,3,0.892466162081646,0.935086969237812
"29",25,27,1,2,29,3,1,0,1,0.690904212754827,0.724228338744472
"30",25,30,1,1,30,2,1,1,4,0.493495063358907,0.383487040305466
"31",25,31,1,2,31,3,2,1,3,1.02590465067875,0.978128814333739
"32",25,26,1,2,32,1,2,1,4,0.297556839624658,0.262213053863107
"33",25,28,1,1,33,3,1,1,2,0.751924308446656,0.80349700022085
"34",25,21,1,2,34,3,1,0,2,1.48467542946604,1.57394871697952
"35",25,26,1,1,35,2,1,1,3,0.662467864976735,0.771582391989772
"36",25,27,1,2,36,3,2,1,2,1.04914249150769,1.05312439324032
"37",25,35,1,2,37,1,2,1,5,0.484809543841334,0.544981389986427
"38",25,29,1,1,38,3,1,1,2,0.72987690242809,0.785620925166249
"39",25,27,1,1,39,3,2,0,1,0.820236612103195,0.824732972887241
"40",25,30,1,1,40,1,1,1,4,0.427273116815416,0.499709064356774
"41",25,31,1,2,41,2,1,0,2,0.84901827957421,0.827548616443934
"42",25,26,1,1,42,2,1,1,4,0.815769810286225,0.798446449773762
"43",25,28,1,2,43,1,2,1,4,0.268660186669823,0.216854673452907
"44",25,21,1,2,44,3,1,0,1,1.0373957952377,1.05891766501619
"45",25,26,1,2,45,1,2,1,5,0.362650272693509,0.406129627266942
"46",25,27,1,1,46,3,2,0,2,0.652645359730803,0.648353554473123
"47",25,35,1,2,47,3,1,0,1,0.789429919129715,0.819747521020572
"48",25,29,1,1,48,2,2,0,2,0.531931011205576,0.53584610032803
"49",25,27,1,1,49,2,1,1,4,0.620935822571754,0.582307460488641
"50",25,30,1,2,50,2,2,1,4,0.494167412415488,0.593785058353029
"51",25,31,1,2,51,3,1,0,1,1.25422848145847,1.26366184602268
"52",25,26,1,1,52,1,1,1,4,0.467105861828716,0.528534792908783
"53",25,28,1,1,53,3,1,1,2,0.892697666689584,0.85247107656544
"54",25,21,1,1,54,1,1,1,5,0.464740210657972,0.451190308043001
"55",25,26,1,1,55,3,2,0,2,1.26300473317268,1.2229005737235
"56",25,27,1,1,56,3,2,0,1,0.927952741342898,0.92333233838959
"57",25,35,1,2,57,2,2,1,3,0.541474688946605,0.566605502309343
"58",25,29,1,1,58,1,1,1,4,0.418134513083979,0.46196675180341
"59",25,27,1,1,59,3,2,0,2,1.23713606331609,1.22423224300759
"60",25,30,1,2,60,3,2,1,3,0.737448524018961,0.744830345723805
"61",25,31,1,1,61,3,1,1,2,0.710309212829576,0.672971886364206
"62",25,26,1,2,62,2,2,1,4,0.547189894003891,0.550295559490292
"63",25,28,1,1,63,2,2,0,3,0.507626348986023,0.588363859312615
"64",25,21,1,1,64,1,1,1,4,0.538790073400698,0.483934615389866
"65",25,26,1,1,65,2,1,1,3,0.398042346155647,0.409640737417104
"66",25,27,1,1,66,1,1,1,4,0.501423238171359,0.497766985222277
"67",25,35,1,1,67,3,2,0,2,0.926977798030949,0.972415901984672
"68",25,29,1,2,68,2,2,1,4,0.522550222516415,0.452906580138855
"69",25,27,1,2,69,3,2,1,2,0.808165056766505,0.782314395789522
"70",25,30,1,1,70,1,1,1,4,0.39446681574444,0.3805761751357
"71",25,31,1,1,71,2,1,1,4,0.77610770380651,0.751842607179982
"72",25,26,1,2,72,1,2,1,4,0.323889641309548,0.325945387002456
"73",25,28,1,1,73,1,2,0,4,0.576104896501543,0.552741756905069
"74",25,21,1,1,74,3,1,1,2,1.24244693837559,1.25838960039052
"75",25,26,1,1,75,3,1,1,2,0.996739634239172,1.09229920648602
"76",25,27,1,2,76,3,1,0,1,1.18091914050442,1.0963348385337
"77",25,35,1,1,77,1,1,1,5,0.369492725596444,0.409943263360509
"78",25,29,1,2,78,2,2,1,4,0.644174790214127,0.601476406235456
"79",25,27,1,1,79,1,1,1,4,0.372159701780923,0.352177446289422
"80",25,30,1,2,80,3,1,0,2,0.717997045576531,0.797270488228965
"81",25,31,1,1,81,3,1,1,3,0.897535809145022,0.757496036501642
"82",25,26,1,2,82,3,1,0,2,1.06148810714347,1.07366177791777
"83",25,28,1,1,83,2,1,1,3,0.578684449510251,0.637027119027773
"84",25,21,1,1,84,1,1,1,5,0.40912617500333,0.459441615245639
"85",25,26,1,2,85,1,2,1,5,0.435406547100882,0.314651347213669
"86",25,27,1,2,86,2,2,1,3,0.527329007871557,0.550179981352295
"87",25,35,1,2,87,2,2,1,4,0.475401571055409,0.408902462743332
"88",25,29,1,1,88,3,2,0,1,0.897032719707736,0.884090876906257
"89",25,27,1,1,89,1,1,1,4,0.486942701225585,0.446694115402076
"90",25,30,1,2,90,1,2,1,4,0.275808017697868,0.323899436545326
"91",25,31,1,2,91,2,2,1,3,0.700922550250969,0.673282436295107
"92",25,26,1,2,92,1,2,1,4,0.509672446123704,0.503206310343626
"93",25,28,1,1,93,1,1,1,4,0.40356992010374,0.355785847803635
"94",25,21,1,2,94,2,2,1,3,0.822820577363644,0.816935301771237
"95",25,26,1,2,95,2,2,1,3,0.559695774293056,0.529774772072448
"96",25,27,1,2,96,2,2,1,3,0.408208371532483,0.390372643417489
"97",25,35,1,1,97,3,1,1,3,0.592514685542784,0.576725923817412
"98",25,29,1,1,98,2,2,0,3,0.922700675581131,0.938718004820606
"99",25,27,1,2,99,1,2,1,5,0.254588299072052,0.27940328936516
"100",25,30,1,2,100,2,2,1,4,0.518745579043453,0.580034967916479
"101",25,31,1,2,101,3,2,1,3,0.494475766742269,0.56590759935202
"102",25,26,1,2,102,2,2,1,3,0.70163052679514,0.745416494356352
"103",25,28,1,2,103,3,1,0,2,0.949901495971569,0.99037856850522
"104",25,21,1,2,104,2,2,1,3,0.348930677196049,0.35453996345337
"105",25,26,1,2,105,1,1,0,3,0.557411634630831,0.473639670178577
"106",25,27,1,2,106,2,1,0,2,0.79589542815878,0.83792027997852
"107",25,35,1,2,107,3,1,0,1,1.18159932042202,1.20480569637446
"108",25,29,1,2,108,3,2,1,2,1.07096529141466,1.06306853526817
"109",25,27,1,2,109,1,1,0,4,0.593491050957185,0.503761026835584
"110",25,30,1,2,110,1,1,0,3,0.489452515649142,0.448982476583485
"111",25,31,1,1,111,3,1,1,2,1.11616686305667,1.19803143184467
"112",25,26,1,2,112,2,2,1,4,0.657016486178227,0.680802126894566
"113",25,28,1,1,113,1,1,1,4,0.441092332817738,0.369711653125778
"114",25,21,1,1,114,1,2,0,3,0.515667675202262,0.415196529698772
"115",25,26,1,1,115,2,2,0,2,0.77185843356328,0.850162519425746
"116",25,27,1,1,116,3,1,1,3,0.716449663193091,0.661297729644024
"117",25,35,1,1,117,3,1,1,3,0.701254016494804,0.622631745264687
"118",25,29,1,1,118,1,1,1,5,0.480157108730148,0.536414044177745
"119",25,27,1,2,119,3,2,1,2,0.931401324033934,0.89869666883693
"120",25,30,1,2,120,1,2,1,4,0.525506479020399,0.459120726957295
"121",25,31,1,2,121,2,2,1,4,0.535972567714917,0.530658717945714
"122",25,26,1,2,122,2,1,0,3,0.684666014408054,0.723175178355696
"123",25,28,1,2,123,2,2,1,4,0.640941571976295,0.609850063233773
"124",25,21,1,1,124,2,2,0,3,0.697043628135338,0.729986700635883
"125",25,26,1,2,125,1,2,1,4,0.300265389407376,0.225915035246468
"126",25,27,1,2,126,3,2,1,2,0.990796382751742,0.990997433136409
"127",25,35,1,2,127,3,1,0,1,1.17277912951791,1.1565343874458
"128",25,29,1,1,128,1,1,1,5,0.464526973476712,0.414312229305207
"129",25,27,1,1,129,3,1,1,3,1.14392384712861,1.15983834715458
"130",25,30,1,2,130,1,2,1,4,0.365284183763973,0.343550493085779
"131",25,31,1,2,131,2,1,0,3,0.780892896617206,0.743914044580374
"132",25,26,1,1,132,3,1,1,2,1.09128210232493,1.08648184880399
"133",25,28,1,2,133,1,2,1,4,0.312661587495194,0.252122594016607
"134",25,21,1,1,134,3,1,1,2,1.00618432432695,1.00242240913908
"135",25,26,1,1,135,2,1,1,4,0.848233724147461,0.852813054659
"136",25,27,1,1,136,2,1,1,4,0.616485338119067,0.546813489313067
"137",25,35,1,1,137,3,1,1,3,1.12395441999558,1.1213734035022
"138",25,29,1,1,138,3,1,1,3,0.268913938338068,0.371977849085656
"139",25,27,1,1,139,1,1,1,5,0.458589156441307,0.463154933319849
"140",25,30,1,2,140,1,2,1,5,0.37778209295879,0.349109579649879
"141",25,31,1,1,141,1,1,1,5,0.462627429575352,0.423355572582621
"142",25,26,1,2,142,3,2,1,2,0.721340852726712,0.698689220093045
"143",25,28,1,2,143,1,2,1,4,0.549024948888398,0.536434072407439
"144",25,21,1,2,144,1,2,1,4,0.426901594431658,0.472952758200028
"145",25,26,1,2,145,3,2,1,2,1.02466211856069,0.985890729259215
"146",25,27,1,2,146,3,2,1,2,0.842510593264342,0.800879373197739
"147",25,35,1,2,147,1,2,1,5,0.366799207877264,0.450793877795188
"148",25,29,1,2,148,1,1,0,4,0.610854283851738,0.598632042538835
"149",25,27,1,2,149,3,1,0,2,1.27051463544969,1.28758382705392
"150",25,30,1,2,150,2,1,0,2,0.928998668249975,1.00029130890997
"151",25,31,1,1,151,1,1,1,5,0.348903048174305,0.473046844966447
"152",25,26,1,2,152,2,2,1,3,0.605789460235423,0.575112448016502
"153",25,28,1,1,153,2,1,1,4,0.605306362727094,0.585804926307637
"154",25,21,1,1,154,2,1,1,4,0.634578853436371,0.683323511789957
"155",25,26,1,2,155,2,2,1,4,0.579526141494763,0.603987369210909
"156",25,27,1,1,156,1,1,1,4,0.326409063872899,0.401103228714394
"157",25,35,1,2,157,1,2,1,5,0.381024555783372,0.378834669056974
"158",25,29,1,2,158,2,1,0,2,0.861864894923682,0.830505890745461
"159",25,27,1,1,159,1,1,1,5,0.359160287005183,0.514084576347291
"160",25,30,1,1,160,2,1,1,3,0.691149864979052,0.700645313052981
"161",25,31,1,2,161,3,1,0,2,1.48177384251248,1.57825830690946
"162",25,26,1,1,162,2,1,1,3,0.466499814912217,0.39717817376238
"163",25,28,1,1,163,1,2,0,3,0.527743122296506,0.551968981293797
"164",25,21,1,1,164,3,2,0,1,1.11105718425735,1.16453310894064
"165",25,26,1,1,165,3,2,0,2,1.002123055807,1.05061773986009
"166",25,27,1,2,166,3,2,1,2,0.756537403911586,0.712119639164534
"167",25,35,1,1,167,2,2,0,2,0.640971056590693,0.607165287520296
"168",25,29,1,2,168,3,2,1,2,0.587950291314487,0.609196056224349
"169",25,27,1,2,169,2,1,0,2,0.853926303971535,0.858186749430789
"170",25,30,1,2,170,1,1,0,3,0.478658246372911,0.442421919274801
"171",25,31,1,2,171,2,2,1,4,0.689283349943206,0.740066456479578
"172",25,26,1,1,172,3,1,1,3,1.01056249380987,0.973002985451708
"173",25,28,1,1,173,1,1,1,5,0.303535535686358,0.308272177682859
"174",25,21,1,2,174,3,2,1,2,0.929957856058007,0.886234121308986
"175",25,26,1,1,175,1,1,1,4,0.397182128443358,0.439022095039593
"176",25,27,1,1,176,3,1,1,2,0.651356379920326,0.659907784754106
"177",25,35,1,2,177,3,2,1,3,0.582962082200979,0.522294314851772
"178",25,29,1,2,178,2,1,0,2,0.57835635412662,0.551578778496862
"179",25,27,1,2,179,1,2,1,5,0.429507842165664,0.475592941649888
"180",25,30,1,1,180,2,2,0,3,0.744037300543219,0.697921587620625
"181",25,31,1,2,181,3,1,0,2,1.48070887892728,1.43013277725634
"182",25,26,1,1,182,3,1,1,2,0.775010815858805,0.818995037161316
"183",25,28,1,2,183,1,2,1,4,0.455460544094849,0.514533806054635
"184",25,21,1,1,184,3,1,1,3,0.707980257926956,0.730463709651737
"185",25,26,1,2,185,2,2,1,4,0.436482469566404,0.464040531867371
"186",25,27,1,2,186,2,2,1,4,0.482481906536181,0.477494826757255
"187",25,35,1,1,187,3,1,1,2,0.919337227547558,0.936912589613175
"188",25,29,1,1,188,3,2,0,1,0.587253057298664,0.610214130649293
"189",25,27,1,2,189,1,1,0,3,0.645426176872471,0.67664759058749
"190",25,30,1,2,190,3,2,1,2,1.18635450563946,1.27622489066033
"191",25,31,1,1,191,1,1,1,5,0.438193258179979,0.416001282022276
"192",25,26,1,2,192,2,1,0,3,0.650250260587904,0.680718131982942
"193",25,28,1,1,193,3,1,1,2,0.491546764134334,0.529032354006948
"194",25,21,1,1,194,1,1,1,5,0.29519571619716,0.220196746604917
"195",25,26,1,2,195,1,2,1,5,0.458318715317918,0.475649451747432
"196",25,27,1,1,196,3,2,0,2,0.64083470713556,0.642363149985715
"197",25,35,1,1,197,2,1,1,3,0.485240579420292,0.50863565923302
"198",25,29,1,2,198,2,2,1,3,0.699156902873091,0.727362856865952
"199",25,27,1,1,199,1,1,1,5,0.479534742021014,0.470399159030734
"200",25,30,1,2,200,3,1,0,1,0.824836959962666,0.880994335275832
"201",25,31,1,1,201,3,1,1,2,0.859438130169703,0.968073839496994
"202",25,26,1,2,202,3,2,1,3,0.720445144717864,0.750971548713215
"203",25,28,1,1,203,1,1,1,5,0.357486424295334,0.409494202800494
"204",25,21,1,1,204,1,1,1,4,0.470947086036055,0.531818919445837
"205",25,26,1,2,205,3,2,1,3,0.824765905747808,0.83385459681089
"206",25,27,1,2,206,2,1,0,2,0.92648650517807,0.901977769405176
"207",25,35,1,1,207,3,1,1,3,1.10359831176444,1.09294013121066
"208",25,29,1,2,208,2,2,1,4,0.60308798217008,0.573145978632312
"209",25,27,1,2,209,3,2,1,2,0.852454970235792,0.883172961604275
"210",25,30,1,1,210,1,1,1,5,0.566837871390213,0.620988529153858
"211",25,31,1,2,211,1,2,1,5,0.489869551327989,0.461288001763297
"212",25,26,1,2,212,2,1,0,3,0.822967699216446,0.840063571842649
"213",25,28,1,2,213,3,2,1,2,0.56949123880513,0.55562033375237
"214",25,21,1,1,214,2,2,0,2,0.714084004632914,0.703257623048332
"215",25,26,1,1,215,1,1,1,4,0.430081840420867,0.404199213888234
"216",25,27,1,1,216,2,1,1,4,0.501979560305004,0.423769654019978
"217",25,35,1,1,217,1,1,1,5,0.465565097554482,0.497386250082524
"218",25,29,1,1,218,2,1,1,3,0.452660664429632,0.409148636160041
"219",25,27,1,1,219,2,2,0,2,0.886735200285116,0.963268028684339
"220",25,30,1,1,220,1,2,0,4,0.689280666847143,0.603782329063674
"221",25,31,1,1,221,3,2,0,1,0.287271964787634,0.251393028062598
"222",25,26,1,1,222,2,1,1,3,0.620239574374462,0.502655263695875
"223",25,28,1,1,223,1,2,0,4,0.620304370096945,0.646847108069333
"224",25,21,1,1,224,3,2,0,2,1.18882134641984,1.11763701699003
"225",25,26,1,1,225,2,2,0,3,0.706439077719364,0.711228227659549
"226",25,27,1,1,226,2,1,1,4,0.831882257270084,0.896908179893136
"227",25,35,1,2,227,1,2,1,4,0.32020899685152,0.243104617030345
"228",25,29,1,1,228,2,2,0,2,0.629965051236546,0.60779558965649
"229",25,27,1,1,229,2,2,0,3,0.555513808026035,0.639615859334103
"230",25,30,1,2,230,2,2,1,4,0.475829911094988,0.473158198112825
"231",25,31,1,2,231,1,2,1,4,0.380964820090329,0.381185716506439
"232",25,26,1,1,232,3,2,0,1,1.46026516413424,1.39585796142498
"233",25,28,1,2,233,3,1,0,2,1.55581659865787,1.54838886510167
"234",25,21,1,1,234,1,1,1,4,0.447701247981902,0.481127446214778
"235",25,26,1,2,235,1,2,1,5,0.402050438910493,0.439355232869367
"236",25,27,1,2,236,2,2,1,4,0.573114499498493,0.577140884419123
"237",25,35,1,2,237,2,2,1,3,0.530334791109074,0.48888745349702
"238",25,29,1,2,238,1,2,1,4,0.34302279178365,0.323762662844703
"239",25,27,1,2,239,1,2,1,5,0.467808294010816,0.413866498824538
"240",25,30,1,2,240,3,2,1,3,0.872528161075346,0.841275847666084
"241",24,35,2,2,1,3,2,1,3,0.958276133201179,1.02691340268305
"242",24,19,2,1,2,1,2,0,3,0.488198710740249,0.464633136168439
"243",24,31,2,1,3,3,1,1,2,0.514728305360232,0.504621834995294
"244",24,37,2,2,4,1,2,1,5,0.407667181405587,0.403241608973869
"245",24,26,2,1,5,1,1,1,4,0.414818899957519,0.386016230301218
"246",24,29,2,1,6,2,1,1,3,0.729353572439048,0.807430976495917
"247",24,29,2,2,7,2,2,1,3,0.553767316439423,0.509370940991831
"248",24,21,2,2,8,1,2,1,4,0.336144863794399,0.392082163066872
"249",24,27,2,1,9,3,1,1,3,0.791080119508274,0.788765914356179
"250",24,18,2,1,10,3,2,0,2,1.06748300919567,1.16779526516878
"251",24,35,2,1,11,3,2,0,1,1.5901727965242,1.6777932464556
"252",24,19,2,2,12,2,2,1,3,0.759178515992319,0.750145991652302
"253",24,31,2,2,13,1,2,1,4,0.363812771495956,0.274110547158077
"254",24,37,2,2,14,1,1,0,3,0.560436733338382,0.483283727757429
"255",24,26,2,2,15,2,1,0,2,0.711210949487094,0.642048421427802
"256",24,29,2,2,16,3,2,1,2,0.713601366089005,0.665208282752241
"257",24,29,2,2,17,3,1,0,2,1.34000944472361,1.28056193294601
"258",24,21,2,1,18,3,2,0,2,0.588598414882229,0.580350463111105
"259",24,27,2,2,19,1,2,1,5,0.448591924872706,0.43735964639237
"260",24,18,2,1,20,2,2,0,3,0.672851410294554,0.719662395521044
"261",24,35,2,1,21,2,2,0,2,0.829508760452288,0.818391326437367
"262",24,19,2,1,22,3,2,0,1,0.98236962442517,1.00170728435939
"263",24,31,2,1,23,3,1,1,2,0.545428466406285,0.522966106374845
"264",24,37,2,2,24,1,2,1,5,0.348335291767228,0.43874398809096
"265",24,26,2,2,25,1,2,1,5,0.446865492579081,0.432397899088711
"266",24,29,2,1,26,2,1,1,3,0.642446802313359,0.61425333661475
"267",24,29,2,1,27,3,2,0,2,1.64132860933973,1.58536997856126
"268",24,21,2,2,28,2,1,0,2,0.855803671662049,0.842168948825265
"269",24,27,2,2,29,2,2,1,3,0.803517142593732,0.896797259508732
"270",24,18,2,1,30,1,1,1,5,0.44917804327806,0.415249293472097
"271",24,35,2,1,31,3,1,1,3,0.365980692213544,0.425337234575143
"272",24,19,2,1,32,3,1,1,2,0.926945552096229,0.940782789742779
"273",24,31,2,2,33,1,2,1,4,0.408683976311549,0.449244870157429
"274",24,37,2,1,34,3,2,0,1,0.712756093293213,0.700081988221183
"275",24,26,2,2,35,1,2,1,4,0.321537328324045,0.2921231672653
"276",24,29,2,1,36,2,1,1,4,0.512751234379294,0.484728667701809
"277",24,29,2,1,37,1,1,1,5,0.403649160565428,0.518721499515712
"278",24,21,2,2,38,2,2,1,4,0.420257080102043,0.435907698175539
"279",24,27,2,2,39,1,2,1,5,0.435681140462703,0.485513157312485
"280",24,18,2,2,40,2,2,1,4,0.526783932633223,0.508101089773302
"281",24,35,2,1,41,1,1,1,5,0.450505024697492,0.410327415337564
"282",24,19,2,2,42,1,2,1,4,0.261064413958543,0.319304793425084
"283",24,31,2,2,43,2,1,0,3,0.733279146007851,0.69035031543003
"284",24,37,2,1,44,1,2,0,4,0.499241390835475,0.473160249235062
"285",24,26,2,2,45,3,2,1,2,0.921380939824698,0.926919207413539
"286",24,29,2,1,46,3,1,1,3,0.531758958681774,0.501887368920283
"287",24,29,2,1,47,3,2,0,2,0.382737621584257,0.321984101295418
"288",24,21,2,1,48,1,1,1,4,0.260635057358052,0.188086459670204
"289",24,27,2,1,49,3,2,0,1,0.82788419347674,0.866140462545207
"290",24,18,2,2,50,2,1,0,2,0.504672295391817,0.464027282224314
"291",24,35,2,1,51,3,1,1,2,1.04768076036531,1.10793137352747
"292",24,19,2,2,52,1,2,1,5,0.425264651108038,0.369290658538313
"293",24,31,2,2,53,2,1,0,2,0.638291683431518,0.590154208742894
"294",24,37,2,2,54,1,2,1,4,0.40821697025612,0.378307831432649
"295",24,26,2,2,55,2,1,0,2,0.791352846356739,0.799949523230971
"296",24,29,2,1,56,3,1,1,3,0.954442367099691,0.969825831895375
"297",24,29,2,1,57,1,2,0,3,0.425181337978963,0.408161707357439
"298",24,21,2,1,58,1,1,1,4,0.409552995189006,0.396942340951723
"299",24,27,2,1,59,2,1,1,3,0.441725526330564,0.417566080480167
"300",24,18,2,1,60,3,2,0,2,0.384229925880944,0.340796250873589
"301",24,35,2,2,61,3,1,0,1,1.22747123794057,1.28751039610895
"302",24,19,2,1,62,3,1,1,3,1.27451226592245,1.23005911741911
"303",24,31,2,1,63,2,1,1,4,0.66114812111072,0.732432032980098
"304",24,37,2,2,64,1,2,1,4,0.388803333847535,0.374291327054586
"305",24,26,2,2,65,1,2,1,4,0.360669152550665,0.35519958306544
"306",24,29,2,2,66,1,2,1,5,0.373192995370357,0.379692716313989
"307",24,29,2,2,67,1,1,0,3,0.572943700675576,0.637090731608046
"308",24,21,2,1,68,1,1,1,4,0.449410508345964,0.398944942630101
"309",24,27,2,1,69,3,1,1,3,0.730849231810496,0.766867799025006
"310",24,18,2,2,70,3,2,1,2,0.693686000979097,0.830008729096181
"311",24,35,2,1,71,2,2,0,3,0.724150503746356,0.735695676048301
"312",24,19,2,1,72,2,1,1,4,0.654451196782753,0.680668504912697
"313",24,31,2,2,73,1,2,1,5,0.430689534185605,0.359945507009979
"314",24,37,2,2,74,3,2,1,2,0.95964505695222,0.927575429283402
"315",24,26,2,1,75,3,1,1,2,0.94662926581329,0.951217848550524
"316",24,29,2,1,76,2,2,0,2,0.388828418025859,0.384574002440081
"317",24,29,2,2,77,2,2,1,3,0.87023604499299,0.894349405804496
"318",24,21,2,1,78,1,1,1,5,0.413027535418333,0.418934905259357
"319",24,27,2,1,79,1,1,1,4,0.427542020354029,0.429066986297092
"320",24,18,2,1,80,3,1,1,3,0.758753743982896,0.701313884026957
"321",24,35,2,2,81,2,2,1,3,0.829019353104957,0.790161969500426
"322",24,19,2,1,82,3,1,1,3,1.0501615922033,1.05318220504229
"323",24,31,2,2,83,3,2,1,3,1.183504600583,1.1288862443378
"324",24,37,2,1,84,2,2,0,2,0.457218759610208,0.428190218510265
"325",24,26,2,1,85,3,1,1,2,0.701952018880335,0.774188355806463
"326",24,29,2,1,86,1,1,1,4,0.466706442543658,0.515518957875322
"327",24,29,2,2,87,2,2,1,3,0.700972831234425,0.698464211052192
"328",24,21,2,2,88,2,2,1,3,0.552908005151073,0.529535670253619
"329",24,27,2,2,89,1,2,1,4,0.393057531070867,0.432827388957617
"330",24,18,2,1,90,2,2,0,2,0.535531508603414,0.501159423796862
"331",24,35,2,2,91,1,2,1,4,0.358910688879797,0.38609061939764
"332",24,19,2,2,92,1,2,1,4,0.528563064447155,0.553395782353556
"333",24,31,2,2,93,3,1,0,1,1.20830982699058,1.23419499864414
"334",24,37,2,2,94,1,2,1,4,0.440653908142,0.360974786939437
"335",24,26,2,1,95,1,1,1,4,0.397321303641628,0.284299332347195
"336",24,29,2,2,96,3,1,0,2,1.19534114792412,1.24832911961436
"337",24,29,2,1,97,3,1,1,2,0.979821237756924,0.853608521937101
"338",24,21,2,1,98,1,1,1,4,0.364212730087787,0.42607801823564
"339",24,27,2,2,99,1,1,0,3,0.554184734214856,0.574062260474255
"340",24,18,2,2,100,2,2,1,3,0.387067254196896,0.376760557507729
"341",24,35,2,2,101,3,2,1,2,0.576256037490362,0.516668757928393
"342",24,19,2,2,102,2,1,0,3,0.91198228883753,0.94194750977516
"343",24,31,2,2,103,3,2,1,2,0.637673853637645,0.58690040341136
"344",24,37,2,2,104,2,1,0,2,0.714146509136133,0.713196780250332
"345",24,26,2,2,105,1,2,1,4,0.352023514855545,0.330745863929336
"346",24,29,2,2,106,3,1,0,2,0.804171725698226,0.885602449408507
"347",24,29,2,2,107,2,2,1,3,0.493445451149265,0.571467245892008
"348",24,21,2,2,108,3,1,0,2,0.597390904577822,0.5270138661633
"349",24,27,2,1,109,2,2,0,2,0.806573735652791,0.807101111613729
"350",24,18,2,2,110,1,2,1,4,0.314384492257463,0.258947947615237
"351",24,35,2,2,111,3,2,1,2,0.936609109830183,0.99568754161035
"352",24,19,2,1,112,1,1,1,4,0.599345955383635,0.656026044117922
"353",24,31,2,2,113,1,2,1,4,0.501226662878477,0.570168529386527
"354",24,37,2,2,114,3,1,0,2,0.811846120706649,0.902490276670278
"355",24,26,2,2,115,2,1,0,2,0.645292523764508,0.714373713990583
"356",24,29,2,1,116,1,2,0,3,0.561541115247963,0.633356964924255
"357",24,29,2,1,117,2,2,0,2,0.624731732382831,0.618076514383909
"358",24,21,2,1,118,2,1,1,4,0.401187641885226,0.323342215122747
"359",24,27,2,1,119,3,2,0,1,1.08508911057105,1.01809806016455
"360",24,18,2,2,120,3,1,0,1,0.58923875013878,0.600341530191149
"361",24,35,2,2,121,3,1,0,1,0.873999396853663,0.844533526158715
"362",24,19,2,1,122,2,2,0,3,0.894198950138154,0.814910093846801
"363",24,31,2,1,123,1,1,1,4,0.344307093984743,0.293022789468366
"364",24,37,2,1,124,1,1,1,5,0.28595149141892,0.296457252876646
"365",24,26,2,2,125,3,1,0,1,1.0426692563468,1.03166691765843
"366",24,29,2,2,126,2,2,1,4,0.418864255934788,0.451653869057942
"367",24,29,2,2,127,3,2,1,2,1.16014936996638,1.24185919669005
"368",24,21,2,1,128,3,2,0,1,1.29994707472654,1.32540400436053
"369",24,27,2,2,129,3,2,1,2,0.779171729255797,0.723150498118199
"370",24,18,2,1,130,2,1,1,3,0.557785924280651,0.540969071090108
"371",24,35,2,2,131,3,2,1,3,0.947984041355437,0.895905424906249
"372",24,19,2,1,132,2,1,1,4,0.635690020867472,0.64219513798103
"373",24,31,2,2,133,3,2,1,3,0.665305501342542,0.715358211928987
"374",24,37,2,1,134,1,1,1,5,0.395201370648371,0.41859119953846
"375",24,26,2,1,135,2,1,1,4,0.624769140398397,0.560657808144925
"376",24,29,2,1,136,2,2,0,3,0.695223357319822,0.732812032169569
"377",24,29,2,2,137,1,2,1,4,0.509730677951313,0.51859862419963
"378",24,21,2,1,138,3,1,1,2,0.941295073577213,0.883787206042554
"379",24,27,2,1,139,1,1,1,5,0.349907825125265,0.354387028701081
"380",24,18,2,1,140,2,2,0,2,0.604411449690747,0.59994518148666
"381",24,35,2,1,141,1,1,1,5,0.375799881612456,0.342809756760789
"382",24,19,2,2,142,3,2,1,2,0.649433077025951,0.713753558824106
"383",24,31,2,2,143,1,2,1,5,0.330994051639018,0.387414091819921
"384",24,37,2,2,144,1,2,1,5,0.343788145211712,0.329123023276811
"385",24,26,2,2,145,2,1,0,2,0.704685857245631,0.722037081769266
"386",24,29,2,2,146,2,1,0,2,0.940401535885493,0.911082900933366
"387",24,29,2,1,147,1,2,0,4,0.529642489255351,0.585058254691906
"388",24,21,2,1,148,1,1,1,4,0.384094183549743,0.363041980430331
"389",24,27,2,1,149,3,2,0,1,1.60910779628698,1.49874131816
"390",24,18,2,2,150,2,2,1,3,0.651122607486751,0.591971749820481
"391",24,35,2,1,151,2,1,1,3,0.644090246406888,0.626197442986563
"392",24,19,2,1,152,2,1,1,3,0.531455596035966,0.618902144936638
"393",24,31,2,1,153,2,1,1,3,0.575695932976462,0.616412713770304
"394",24,37,2,1,154,3,1,1,3,0.635785152753296,0.625462561865619
"395",24,26,2,1,155,3,2,0,1,0.647538204112147,0.711632160022655
"396",24,29,2,1,156,1,1,1,4,0.379126399379507,0.39625443293799
"397",24,29,2,1,157,3,1,1,2,0.875110565615532,0.94060710602381
"398",24,21,2,1,158,2,2,0,3,1.08917230363809,1.10184765047207
"399",24,27,2,2,159,2,1,0,3,0.906193565935412,0.908250622907726
"400",24,18,2,1,160,2,1,1,4,0.504832575492227,0.529067985883227
"401",24,35,2,2,161,1,2,1,4,0.405353377044687,0.45669535871901
"402",24,19,2,2,162,2,1,0,3,0.654977714222119,0.612589025097994
"403",24,31,2,1,163,2,2,0,2,0.738206827017693,0.758730739355281
"404",24,37,2,1,164,2,2,0,3,0.561583287710309,0.583310657912779
"405",24,26,2,2,165,3,1,0,1,1.17942400041781,1.28287886115199
"406",24,29,2,1,166,2,1,1,3,0.620507962748351,0.586611799065826
"407",24,29,2,1,167,1,2,0,4,0.825997044052188,0.866427813553141
"408",24,21,2,1,168,3,1,1,3,0.812757301007913,0.748678220607723
"409",24,27,2,2,169,2,2,1,4,0.449941553496156,0.443295675587379
"410",24,18,2,2,170,2,2,1,3,0.575052094771547,0.488628210155724
"411",24,35,2,1,171,1,2,0,4,0.469728265167588,0.511693680276103
"412",24,19,2,1,172,3,1,1,2,0.977000459853064,1.00195724230471
"413",24,31,2,1,173,2,1,1,4,0.52596376402281,0.496054255685057
"414",24,37,2,2,174,1,2,1,5,0.418314995803489,0.415471893667548
"415",24,26,2,1,175,1,2,0,3,0.480945199681669,0.395549314839083
"416",24,29,2,2,176,1,2,1,4,0.458966246733166,0.391484973770145
"417",24,29,2,2,177,1,2,1,4,0.352753251236594,0.360771707671339
"418",24,21,2,2,178,3,1,0,2,0.490195478286639,0.470853458744851
"419",24,27,2,2,179,1,2,1,5,0.429396182832813,0.480817600638659
"420",24,18,2,2,180,1,2,1,5,0.365625046646851,0.291701541419117
"421",24,35,2,2,181,3,1,0,1,0.606660195783547,0.650310030173792
"422",24,19,2,1,182,3,2,0,1,1.02219756379808,1.00156418945474
"423",24,31,2,2,183,1,2,1,5,0.444289637306622,0.481288216109519
"424",24,37,2,1,184,3,2,0,2,1.11806977727774,1.23628487224304
"425",24,26,2,2,185,2,2,1,4,0.612445521891924,0.714535109556654
"426",24,29,2,1,186,1,1,1,4,0.422857591080747,0.322562301266489
"427",24,29,2,1,187,3,2,0,1,1.27457271027532,1.30039477351285
"428",24,21,2,2,188,2,1,0,2,0.541853971893687,0.571380933850727
"429",24,27,2,1,189,2,2,0,2,0.634716607204967,0.619930615936833
"430",24,18,2,2,190,2,2,1,3,0.609018765607019,0.507139457269414
"431",24,35,2,2,191,2,2,1,3,0.727384329498161,0.76451847464507
"432",24,19,2,1,192,1,1,1,4,0.401645613493381,0.453354987129307
"433",24,31,2,2,193,2,2,1,3,0.582264486126301,0.52868094590606
"434",24,37,2,2,194,1,1,0,4,0.526934890951227,0.577008944290282
"435",24,26,2,1,195,3,1,1,2,0.356532202625648,0.402456288558885
"436",24,29,2,1,196,1,1,1,5,0.457202996169877,0.467849559937904
"437",24,29,2,1,197,1,2,0,3,0.564440576400317,0.61526089529605
"438",24,21,2,1,198,2,1,1,3,0.587390867229343,0.550794389860683
"439",24,27,2,2,199,3,2,1,2,0.949289914164812,0.971555408795831
"440",24,18,2,2,200,3,1,0,2,0.906475636464138,0.855829572342483
"441",24,35,2,2,201,2,1,0,2,0.679192609454889,0.767293260739653
"442",24,19,2,2,202,3,1,0,2,1.41850044048814,1.40814015993467
"443",24,31,2,2,203,3,1,0,2,1.02297561997402,1.00653133577431
"444",24,37,2,2,204,3,1,0,1,0.512784103142503,0.511418492871793
"445",24,26,2,1,205,3,1,1,2,1.14822827217921,1.09814546765199
"446",24,29,2,1,206,1,1,1,5,0.308906483094699,0.405297383180972
"447",24,29,2,1,207,2,1,1,4,0.657556997279488,0.639389558743546
"448",24,21,2,2,208,1,2,1,4,0.353799048890216,0.355686821261578
"449",24,27,2,1,209,1,1,1,4,0.388909128522771,0.368386421978434
"450",24,18,2,1,210,1,2,0,4,0.470620912530338,0.518929220595483
"451",24,35,2,2,211,3,1,0,1,0.824282645113854,0.930350310228144
"452",24,19,2,2,212,2,1,0,3,0.397595277143439,0.379214842207597
"453",24,31,2,1,213,1,2,0,3,0.455263373521754,0.477684705868893
"454",24,37,2,2,214,2,1,0,2,1.01314877195441,0.991015354623666
"455",24,26,2,2,215,2,2,1,4,0.680894638242921,0.682980059692798
"456",24,29,2,1,216,2,2,0,3,0.621102553135012,0.588478956764953
"457",24,29,2,1,217,3,2,0,2,1.07282778682224,1.17790147983501
"458",24,21,2,1,218,2,1,1,4,0.5583472838111,0.540915404983596
"459",24,27,2,2,219,3,2,1,3,0.940161099735192,0.929316589102142
"460",24,18,2,2,220,3,1,0,1,0.630668517097199,0.592760778654298
"461",24,35,2,2,221,1,1,0,3,0.555243497355975,0.567940764354637
"462",24,19,2,1,222,1,2,0,3,0.475124729326247,0.44440847606395
"463",24,31,2,2,223,1,2,1,4,0.33119468599517,0.367400957200661
"464",24,37,2,2,224,2,1,0,3,0.531681129903853,0.616857060875396
"465",24,26,2,2,225,2,1,0,2,0.764206106047849,0.764895205601444
"466",24,29,2,1,226,3,2,0,1,1.40382154079159,1.41974398446994
"467",24,29,2,2,227,1,2,1,4,0.354291308773893,0.353955894713981
"468",24,21,2,1,228,2,1,1,4,0.881403851234532,0.831057336743556
"469",24,27,2,2,229,2,2,1,3,0.598706118508051,0.582947207475245
"470",24,18,2,1,230,2,1,1,3,0.628459183104399,0.650594637298496
"471",24,35,2,2,231,3,2,1,2,0.80545595089089,0.846775987747508
"472",24,19,2,1,232,2,2,0,3,0.371379676864896,0.434115090257761
"473",24,31,2,1,233,3,1,1,3,0.600481462660886,0.636458337950914
"474",24,37,2,2,234,2,2,1,3,0.768523016413156,0.775997057108797
"475",24,26,2,2,235,3,2,1,2,0.915288583379386,0.796313349106283
"476",24,29,2,2,236,1,2,1,4,0.440788067758968,0.376498401455876
"477",24,29,2,1,237,1,1,1,5,0.408438261435643,0.392994212299736
"478",24,21,2,1,238,3,2,0,2,0.712586432507679,0.671055736549032
"479",24,27,2,1,239,3,1,1,2,0.74365329648909,0.805965478212654
"480",24,18,2,1,240,2,2,0,2,0.49922633126452,0.43849952412528
"481",23,32,1,2,1,1,1,0,3,0.609397121867317,0.711024182387038
"482",23,18,1,1,2,1,1,1,5,0.403307123412471,0.386952724407756
"483",23,39,1,2,3,3,1,0,2,1.13493109315224,1.1065761447016
"484",23,25,1,2,4,3,1,0,1,0.832538134338265,0.859734885806064
"485",23,25,1,1,5,2,1,1,4,0.560808193405609,0.602870744942694
"486",23,37,1,1,6,3,1,1,3,0.668914714106144,0.591239675402403
"487",23,33,1,2,7,1,2,1,4,0.381894213428192,0.443577079201171
"488",23,19,1,1,8,2,1,1,4,0.674818548053177,0.563532298975041
"489",23,19,1,2,9,2,2,1,3,0.623478508797501,0.624421759260106
"490",23,25,1,2,10,3,1,0,1,0.950175695193688,0.960405462383419
"491",23,32,1,1,11,3,2,0,1,1.42681322903816,1.49523937000082
"492",23,18,1,2,12,2,1,0,3,0.833977494872017,0.877182461064239
"493",23,39,1,2,13,3,1,0,2,0.696557676891385,0.731212620145866
"494",23,25,1,2,14,3,1,0,1,0.741526982733391,0.72460176102999
"495",23,25,1,2,15,1,1,0,4,0.380895395354307,0.342610799782295
"496",23,37,1,1,16,1,1,1,4,0.325755141578916,0.364680406945987
"497",23,33,1,1,17,3,1,1,3,0.876042771242136,0.840001847907317
"498",23,19,1,1,18,3,2,0,1,1.64550532451718,1.65180185787715
"499",23,19,1,1,19,1,2,0,3,0.558898219111513,0.608928807629401
"500",23,25,1,1,20,1,1,1,4,0.495577471812511,0.503650441316138
"501",23,32,1,1,21,2,2,0,2,0.69247877726721,0.695172719083165
"502",23,18,1,2,22,1,2,1,4,0.460164994174161,0.462086472629172
"503",23,39,1,2,23,2,1,0,2,1.13148108108242,1.13535284465244
"504",23,25,1,1,24,1,2,0,4,0.446451299659337,0.403325495720507
"505",23,25,1,2,25,2,2,1,4,0.512171051534236,0.581530287895906
"506",23,37,1,2,26,2,1,0,2,0.762372107059159,0.788291508513283
"507",23,33,1,1,27,1,1,1,4,0.423909052655664,0.45092489903843
"508",23,19,1,1,28,2,1,1,3,0.438690835543373,0.451473407305732
"509",23,19,1,2,29,3,2,1,3,0.800510966781081,0.888673233686278
"510",23,25,1,2,30,3,2,1,2,0.988616939100536,1.10561518645222
"511",23,32,1,1,31,1,1,1,5,0.417935861919077,0.528751552819217
"512",23,18,1,2,32,2,1,0,3,0.833135087622838,0.800633656832447
"513",23,39,1,1,33,3,1,1,3,0.575705959942523,0.561175572246485
"514",23,25,1,1,34,1,2,0,4,0.56092614069463,0.628115277967924
"515",23,25,1,2,35,1,2,1,4,0.462326692675412,0.510695643662814
"516",23,37,1,1,36,3,2,0,1,1.5033994096089,1.52545698184999
"517",23,33,1,1,37,2,2,0,2,0.662220487018445,0.594414020620419
"518",23,19,1,1,38,3,2,0,1,1.227622038899,1.18083559645226
"519",23,19,1,1,39,3,2,0,1,1.26353206584409,1.28040134691354
"520",23,25,1,2,40,2,2,1,4,0.633489704232084,0.637128291205614
"521",23,32,1,1,41,2,1,1,3,0.609238552661468,0.63779914801682
"522",23,18,1,2,42,1,2,1,4,0.318223414808699,0.295659866542338
"523",23,39,1,2,43,1,1,0,4,0.589164095918976,0.619628745276944
"524",23,25,1,1,44,2,1,1,4,0.450886640312356,0.428433000836975
"525",23,25,1,2,45,2,1,0,2,0.853999628499832,0.909442918148277
"526",23,37,1,1,46,3,2,0,2,1.03114688359372,0.915060637228659
"527",23,33,1,2,47,2,2,1,4,0.342337617223124,0.330403131274435
"528",23,19,1,1,48,3,1,1,2,0.604595764320879,0.685130505098157
"529",23,19,1,2,49,2,2,1,3,0.413068370509455,0.469241476242431
"530",23,25,1,2,50,3,2,1,3,0.726309936093666,0.759796592355633
"531",23,32,1,2,51,3,2,1,2,0.756696711308754,0.763658265756245
"532",23,18,1,1,52,3,1,1,3,0.888333993192393,0.906688561305959
"533",23,39,1,1,53,1,1,1,5,0.33538053558341,0.310724845431696
"534",23,25,1,2,54,2,1,0,2,0.664221228912931,0.689669098086241
"535",23,25,1,2,55,2,2,1,3,0.64624690504463,0.671199661714295
"536",23,37,1,1,56,3,1,1,3,0.854991543619029,0.932333531873629
"537",23,33,1,2,57,3,1,0,1,0.957822209750376,1.01393597630571
"538",23,19,1,2,58,1,2,1,4,0.3503618531935,0.397816194562064
"539",23,19,1,1,59,2,2,0,3,1.00161553560911,0.921005853071317
"540",23,25,1,2,60,1,1,0,3,0.419033787241166,0.342034640767369
"541",23,32,1,2,61,1,2,1,5,0.379345172727812,0.391527417100501
"542",23,18,1,2,62,1,2,1,4,0.502153864508609,0.541687653014111
"543",23,39,1,1,63,1,1,1,5,0.416226906851874,0.396234701675247
"544",23,25,1,2,64,3,1,0,2,1.05957582492542,1.03076447874214
"545",23,25,1,2,65,3,1,0,1,1.27029030517212,1.24731742020713
"546",23,37,1,1,66,1,1,1,5,0.467792409448054,0.465504173407563
"547",23,33,1,1,67,3,1,1,2,0.728135828266192,0.758231495385108
"548",23,19,1,2,68,2,2,1,3,0.506480641213443,0.505836716661982
"549",23,19,1,1,69,2,2,0,2,0.541291694438261,0.47715379898086
"550",23,25,1,1,70,3,1,1,3,0.681868310237943,0.718897774662049
"551",23,32,1,1,71,2,1,1,4,0.671291699851579,0.696183216451773
"552",23,18,1,2,72,1,2,1,4,0.437247260271609,0.416392251317175
"553",23,39,1,2,73,3,2,1,3,0.708166117602741,0.678979444920247
"554",23,25,1,2,74,3,1,0,1,0.611008717458646,0.57813717876446
"555",23,25,1,1,75,1,1,1,5,0.342434670276906,0.309477828430458
"556",23,37,1,1,76,1,1,1,4,0.330060279459421,0.365831999546885
"557",23,33,1,2,77,3,1,0,1,0.955773074703878,0.97491587262621
"558",23,19,1,1,78,3,1,1,2,0.779184356257622,0.757849765119555
"559",23,19,1,2,79,1,2,1,5,0.548957256653867,0.470472216146093
"560",23,25,1,1,80,1,1,1,5,0.408297953830863,0.324047988117467
"561",23,32,1,2,81,1,2,1,4,0.177852189771687,0.183659517415451
"562",23,18,1,1,82,1,2,0,4,0.539766681254658,0.661637684869641
"563",23,39,1,1,83,3,2,0,2,0.972976663689688,0.947386955367569
"564",23,25,1,1,84,1,1,1,5,0.442833295671066,0.447717590341347
"565",23,25,1,2,85,3,2,1,3,0.900156604694302,0.988576591436449
"566",23,37,1,2,86,1,2,1,5,0.373977881455736,0.353255368439206
"567",23,33,1,2,87,3,1,0,2,0.459966468996961,0.443216349201732
"568",23,19,1,2,88,2,1,0,2,0.729230705443854,0.736797581341992
"569",23,19,1,1,89,2,1,1,4,0.5425955618072,0.540503443842197
"570",23,25,1,1,90,1,2,0,3,0.504832520440681,0.464021324569842
"571",23,32,1,2,91,1,2,1,5,0.365139770412184,0.39781225418044
"572",23,18,1,2,92,1,1,0,4,0.532256665724886,0.558923472340326
"573",23,39,1,2,93,2,2,1,4,0.589500283930681,0.627217518042401
"574",23,25,1,2,94,1,2,1,4,0.404326190367509,0.351779834254309
"575",23,25,1,1,95,2,1,1,4,0.73419045983362,0.697058711619064
"576",23,37,1,1,96,3,2,0,2,0.624024129175199,0.585619486515762
"577",23,33,1,2,97,1,2,1,4,0.272682939174276,0.326495829840955
"578",23,19,1,2,98,2,2,1,3,0.627845407321657,0.568304197293583
"579",23,19,1,2,99,3,2,1,2,0.818148941863996,0.908106689943592
"580",23,25,1,1,100,2,1,1,3,0.49383460407,0.613004179210809
"581",23,32,1,2,101,1,2,1,4,0.234952047974174,0.269835368020633
"582",23,18,1,1,102,2,2,0,3,0.455931769961067,0.407652516186436
"583",23,39,1,2,103,2,2,1,3,0.537949766285664,0.489970458357872
"584",23,25,1,1,104,2,1,1,3,0.424659862906374,0.381248612326473
"585",23,25,1,1,105,1,1,1,5,0.37280180738439,0.375842876228728
"586",23,37,1,1,106,1,1,1,4,0.322317429418706,0.2907598965242
"587",23,33,1,1,107,1,1,1,4,0.383510485404639,0.378296689217792
"588",23,19,1,1,108,2,1,1,4,0.486743531629113,0.583695900827344
"589",23,19,1,1,109,3,1,1,2,1.06563901220798,1.03500873807059
"590",23,25,1,1,110,1,1,1,5,0.195436304252713,0.15446065254114
"591",23,32,1,1,111,3,2,0,1,0.881998253754879,0.906202946159135
"592",23,18,1,2,112,2,2,1,4,0.611468405484209,0.569000689042026
"593",23,39,1,1,113,1,1,1,4,0.488152189609693,0.40580879483694
"594",23,25,1,2,114,1,2,1,4,0.354123575390989,0.368903074521764
"595",23,25,1,1,115,3,2,0,1,0.769174046635183,0.706800178318512
"596",23,37,1,2,116,3,1,0,1,0.869724164402907,0.935263184288096
"597",23,33,1,2,117,2,2,1,4,0.62649969054092,0.632414619800101
"598",23,19,1,2,118,1,1,0,4,0.579305585430633,0.635323573932832
"599",23,19,1,1,119,2,2,0,2,0.85844764032836,0.868102746398501
"600",23,25,1,1,120,2,2,0,3,0.810016796873799,0.883958899992353
"601",23,32,1,1,121,2,2,0,3,0.73962540730968,0.780775651869615
"602",23,18,1,1,122,2,1,1,3,0.46839279633614,0.446265180006681
"603",23,39,1,2,123,3,1,0,1,0.793992321366047,0.804793623406694
"604",23,25,1,1,124,1,1,1,4,0.412999113821066,0.467368501327553
"605",23,25,1,1,125,2,2,0,3,0.69274816704257,0.709385333943648
"606",23,37,1,2,126,1,2,1,5,0.468607925407077,0.56738722640312
"607",23,33,1,1,127,2,1,1,3,0.691515029090618,0.632770422257315
"608",23,19,1,1,128,1,1,1,5,0.41268896320546,0.464625896405091
"609",23,19,1,1,129,2,1,1,3,0.652877934607324,0.717770270090927
"610",23,25,1,1,130,2,1,1,4,0.481101352172122,0.433592442890255
"611",23,32,1,1,131,3,1,1,2,0.988913010388627,0.961478780401059
"612",23,18,1,2,132,2,2,1,3,0.636036368443023,0.629037790620971
"613",23,39,1,1,133,3,2,0,1,0.853829489269057,0.811031455529116
"614",23,25,1,2,134,1,2,1,4,0.326026279889203,0.388084111387672
"615",23,25,1,2,135,3,2,1,2,0.831119747915932,0.845369670956801
"616",23,37,1,2,136,2,1,0,2,0.530781084271862,0.540208217885032
"617",23,33,1,1,137,2,2,0,2,0.750993650079544,0.68536527095223
"618",23,19,1,1,138,1,1,1,5,0.229333927931147,0.222574061774717
"619",23,19,1,2,139,2,2,1,3,0.730799957928721,0.79010242226375
"620",23,25,1,2,140,2,1,0,3,0.836978372638608,0.810380921599151
"621",23,32,1,1,141,2,1,1,4,0.595397907404333,0.635939950845696
"622",23,18,1,2,142,3,2,1,3,0.534552611903353,0.48311654678987
"623",23,39,1,2,143,2,2,1,3,0.612190912792186,0.64100148532629
"624",23,25,1,2,144,3,2,1,3,0.626688731219722,0.624866365967483
"625",23,25,1,1,145,2,1,1,4,0.785259553978188,0.712885503261773
"626",23,37,1,2,146,1,2,1,5,0.40204635601085,0.476693441261191
"627",23,33,1,1,147,1,1,1,4,0.384867652147139,0.43933010400025
"628",23,19,1,2,148,2,1,0,3,0.6775879122639,0.718549752334784
"629",23,19,1,1,149,1,1,1,5,0.433550905494543,0.435387290685293
"630",23,25,1,1,150,3,2,0,2,0.902644469462938,0.924712059777022
"631",23,32,1,2,151,2,2,1,4,0.668662873835587,0.736988555786132
"632",23,18,1,2,152,3,1,0,2,1.03054353406835,1.07429845814718
"633",23,39,1,2,153,3,2,1,3,1.06248238249136,1.02726873515263
"634",23,25,1,2,154,1,2,1,4,0.439061899279936,0.498784376210757
"635",23,25,1,1,155,2,1,1,3,0.60362283901607,0.616687729190034
"636",23,37,1,2,156,2,2,1,3,0.811733987735249,0.722883441175925
"637",23,33,1,2,157,3,1,0,2,0.704972367383318,0.732538067919215
"638",23,19,1,1,158,3,1,1,3,0.619439911141988,0.549278090225621
"639",23,19,1,2,159,1,1,0,4,0.644758213503057,0.685169190960129
"640",23,25,1,2,160,2,2,1,3,0.731787008268244,0.614330011235575
"641",23,32,1,1,161,1,1,1,4,0.452852382659842,0.449303512735019
"642",23,18,1,2,162,2,2,1,3,0.628556630517942,0.640195427696253
"643",23,39,1,1,163,2,1,1,3,0.564446927326756,0.510736533632071
"644",23,25,1,2,164,2,2,1,4,0.754819842849873,0.763505331446313
"645",23,25,1,1,165,2,2,0,3,0.53776207368073,0.552099326218172
"646",23,37,1,2,166,1,2,1,5,0.373146930979661,0.327523129227402
"647",23,33,1,1,167,2,2,0,2,0.606131767737809,0.57987915434229
"648",23,19,1,2,168,2,2,1,4,0.623891379221191,0.539799038092609
"649",23,19,1,1,169,2,2,0,2,0.442951949077161,0.459262003936858
"650",23,25,1,2,170,3,1,0,2,1.33863122669843,1.37417393099286
"651",23,32,1,1,171,1,1,1,4,0.530046359449772,0.558961734667799
"652",23,18,1,1,172,1,1,1,4,0.42537303924252,0.475868354754426
"653",23,39,1,2,173,2,2,1,3,0.496445109081275,0.543291406132636
"654",23,25,1,1,174,3,2,0,2,0.581899606694592,0.475852771009918
"655",23,25,1,1,175,3,1,1,2,0.983696849418574,0.972295917508543
"656",23,37,1,2,176,3,1,0,1,1.46344171003065,1.49309329920945
"657",23,33,1,1,177,3,2,0,1,0.56215397709643,0.595231533706494
"658",23,19,1,2,178,3,2,1,2,0.776811854932468,0.752024997580337
"659",23,19,1,2,179,3,2,1,3,1.06201701118117,1.03349984686601
"660",23,25,1,2,180,1,1,0,3,0.476928096323059,0.399856758503397
"661",23,32,1,2,181,1,2,1,4,0.360797675523802,0.285384278933639
"662",23,18,1,1,182,2,2,0,3,0.729503360001893,0.79624899350875
"663",23,39,1,2,183,1,2,1,4,0.286233279233818,0.325981425680037
"664",23,25,1,1,184,1,1,1,4,0.458933643802227,0.452828306595885
"665",23,25,1,2,185,1,1,0,3,0.491381514616862,0.530229277954354
"666",23,37,1,1,186,3,1,1,2,1.16729155766566,1.13596172098893
"667",23,33,1,2,187,1,2,1,4,0.50302901171341,0.522996738086934
"668",23,19,1,1,188,3,1,1,2,1.06497443391071,1.0975423236536
"669",23,19,1,2,189,2,1,0,2,0.883611017150374,0.843687168530277
"670",23,25,1,1,190,3,1,1,2,0.654638938262657,0.668980189176581
"671",23,32,1,2,191,2,1,0,2,0.920234004060524,0.943573635560834
"672",23,18,1,2,192,1,2,1,5,0.315318163855787,0.350038602385417
"673",23,39,1,1,193,3,1,1,3,0.710945402001289,0.682219793346075
"674",23,25,1,2,194,1,2,1,4,0.360147672915241,0.367186558820071
"675",23,25,1,2,195,2,1,0,3,0.719864476207862,0.730283989138914
"676",23,37,1,1,196,1,1,1,5,0.340891106045353,0.289728133032303
"677",23,33,1,2,197,2,2,1,3,0.387478623205149,0.425935881940884
"678",23,19,1,1,198,3,1,1,3,0.760221946319995,0.689729299620731
"679",23,19,1,1,199,1,2,0,3,0.536530874646262,0.629079917441062
"680",23,25,1,1,200,2,1,1,3,0.792756443928845,0.754455115795025
"681",23,32,1,2,201,2,2,1,3,0.481068041965487,0.485792742884934
"682",23,18,1,2,202,3,2,1,3,0.19544949412918,0.209905832487511
"683",23,39,1,1,203,2,1,1,3,0.539931386867046,0.589461064600532
"684",23,25,1,1,204,3,2,0,1,0.623624228460198,0.5766034433559
"685",23,25,1,2,205,3,2,1,3,0.70947507164351,0.689541234223762
"686",23,37,1,2,206,2,1,0,2,0.793634483631991,0.832007431798732
"687",23,33,1,2,207,1,2,1,4,0.476778650311067,0.434576678262205
"688",23,19,1,2,208,3,1,0,1,1.36793623904288,1.3807783323627
"689",23,19,1,2,209,3,2,1,2,0.875520148875076,0.931577608514749
"690",23,25,1,2,210,3,1,0,2,0.70533498380597,0.724302707951138
"691",23,32,1,1,211,2,1,1,4,0.682000953061266,0.630002262549167
"692",23,18,1,1,212,3,2,0,1,0.627701578869322,0.63267884242552
"693",23,39,1,1,213,2,1,1,4,0.482067035826002,0.396730520481146
"694",23,25,1,1,214,3,1,1,2,0.635354306122654,0.630438804462589
"695",23,25,1,1,215,1,2,0,3,0.584344552905919,0.460404909577633
"696",23,37,1,1,216,1,1,1,4,0.509732672740816,0.459970667894808
"697",23,33,1,1,217,1,1,1,4,0.386851447014485,0.295189733995241
"698",23,19,1,1,218,3,1,1,2,0.659143241408242,0.694331317338742
"699",23,19,1,1,219,2,1,1,3,0.71886558102798,0.746942170797686
"700",23,25,1,1,220,1,1,1,4,0.475259377924898,0.444450027209766
"701",23,32,1,1,221,3,2,0,2,0.867529203169053,0.897774217048599
"702",23,18,1,2,222,3,2,1,2,0.792332216117809,0.630395937309744
"703",23,39,1,1,223,1,1,1,4,0.383291787182277,0.381529298980841
"704",23,25,1,2,224,3,1,0,1,1.26442411449471,1.19309198150813
"705",23,25,1,2,225,3,1,0,1,0.86211663640872,0.829334478641678
"706",23,37,1,1,226,1,2,0,3,0.562810090474992,0.668679890358431
"707",23,33,1,2,227,1,2,1,4,0.445461408595583,0.480606598276312
"708",23,19,1,2,228,3,2,1,2,0.758537450907077,0.724775421244704
"709",23,19,1,2,229,2,1,0,3,0.801179694128947,0.86704934406914
"710",23,25,1,2,230,2,2,1,4,0.67735408100079,0.635630378098306
"711",23,32,1,2,231,1,2,1,4,0.40584823570556,0.361038216197754
"712",23,18,1,2,232,1,1,0,3,0.430845493635341,0.442754231715327
"713",23,39,1,1,233,3,2,0,2,1.091469413566,1.04553121697995
"714",23,25,1,1,234,2,1,1,3,0.450430778287652,0.448488187875876
"715",23,25,1,1,235,3,2,0,1,1.04165445437811,1.02186715367337
"716",23,37,1,2,236,3,1,0,1,0.797629775008352,0.829250432254802
"717",23,33,1,1,237,1,1,1,5,0.486445693145952,0.44467404423126
"718",23,19,1,1,238,3,2,0,1,1.33340864851522,1.30265601695961
"719",23,19,1,2,239,1,2,1,5,0.380153268150092,0.479056825602278
"720",23,25,1,1,240,2,2,0,2,0.625788493560722,0.569859925607833
"721",22,26,2,1,1,1,2,0,3,0.521579072106468,0.548737662657049
"722",22,18,2,1,2,2,1,1,3,0.659922338778205,0.58723678818924
"723",22,34,2,1,3,2,1,1,3,0.554952707701922,0.574333637977259
"724",22,36,2,2,4,2,1,0,3,0.487137418436771,0.45156203991491
"725",22,21,2,1,5,1,1,1,4,0.322791770555136,0.329367204617499
"726",22,21,2,1,6,3,2,0,1,1.21449249921256,1.27362876976397
"727",22,36,2,1,7,1,1,1,5,0.418145905024783,0.48211116722688
"728",22,36,2,1,8,1,2,0,3,0.482024756994457,0.425739748190412
"729",22,21,2,2,9,3,1,0,1,1.56515706771406,1.5973388344422
"730",22,33,2,2,10,3,1,0,1,0.768313452134556,0.790881001786826
"731",22,26,2,2,11,1,2,1,5,0.477226450141071,0.486015985000081
"732",22,18,2,2,12,3,1,0,1,0.46454014826227,0.367545342435683
"733",22,34,2,2,13,3,2,1,3,0.749336444725971,0.74871845895813
"734",22,36,2,2,14,1,2,1,4,0.335601485025997,0.340187430943968
"735",22,21,2,1,15,3,1,1,2,1.03423175280342,1.04597225067644
"736",22,21,2,2,16,3,1,0,1,1.4605253080084,1.4470397221706
"737",22,36,2,1,17,1,2,0,4,0.681733678446311,0.735043788532811
"738",22,36,2,2,18,3,1,0,1,0.690806794355714,0.607091949506045
"739",22,21,2,1,19,1,1,1,4,0.358632966930826,0.396514553769803
"740",22,33,2,2,20,3,1,0,2,1.19803111371964,1.18281475527172
"741",22,26,2,2,21,2,2,1,3,0.613387014793258,0.70294055211605
"742",22,18,2,2,22,1,2,1,5,0.501536404579873,0.485966240350939
"743",22,34,2,2,23,3,2,1,2,1.15474973947905,1.1227123916331
"744",22,36,2,1,24,1,2,0,3,0.585774430748851,0.522752934019312
"745",22,21,2,1,25,1,1,1,5,0.464601322481824,0.407191774124402
"746",22,21,2,2,26,1,2,1,5,0.236755215837792,0.206871481690896
"747",22,36,2,1,27,1,1,1,4,0.494935676689464,0.468138591812963
"748",22,36,2,2,28,2,1,0,3,0.512069017240057,0.52428066965853
"749",22,21,2,2,29,3,1,0,2,1.4651723767908,1.51367297364618
"750",22,33,2,1,30,1,1,1,4,0.449457700941779,0.409760043519953
"751",22,26,2,2,31,2,1,0,2,0.516411290039994,0.430918472932488
"752",22,18,2,1,32,3,2,0,1,1.09074059581169,1.01931813496568
"753",22,34,2,1,33,1,1,1,4,0.574656236226705,0.64677832792532
"754",22,36,2,2,34,3,1,0,1,0.690686887457539,0.751448876754579
"755",22,21,2,1,35,1,2,0,3,0.576374910840897,0.497673027170808
"756",22,21,2,2,36,2,1,0,3,0.830965709644895,0.844532608339806
"757",22,36,2,2,37,1,2,1,5,0.333870828633095,0.298691438696754
"758",22,36,2,1,38,3,1,1,3,0.941269501375545,0.912208195987178
"759",22,21,2,1,39,2,1,1,3,0.676078123866607,0.726428656526037
"760",22,33,2,1,40,1,1,1,5,0.217361914439674,0.219758966777302
"761",22,26,2,1,41,3,1,1,2,0.941125690058851,0.970423840951081
"762",22,18,2,2,42,1,1,0,3,0.49643148432423,0.402704452841351
"763",22,34,2,1,43,3,1,1,3,0.787344490841055,0.872611519805175
"764",22,36,2,1,44,1,1,1,4,0.469440330581479,0.434679314928697
"765",22,21,2,2,45,2,2,1,3,0.358452956259951,0.411371002370293
"766",22,21,2,1,46,1,1,1,5,0.546865365856649,0.605635879005022
"767",22,36,2,2,47,1,2,1,5,0.310837499288462,0.274973495224093
"768",22,36,2,1,48,1,2,0,4,0.581304726578605,0.491015369504107
"769",22,21,2,1,49,3,1,1,2,0.658254972415828,0.689086824664918
"770",22,33,2,2,50,3,1,0,2,0.932377581145793,0.830906403872483
"771",22,26,2,2,51,2,1,0,3,0.814100309475863,0.818068144749382
"772",22,18,2,2,52,2,1,0,2,0.717690416499201,0.677226297674372
"773",22,34,2,1,53,3,1,1,2,0.886623569968328,0.913261251399995
"774",22,36,2,2,54,1,1,0,4,0.812196482202029,0.841200159491022
"775",22,21,2,1,55,1,2,0,4,0.423534002018397,0.358693630563054
"776",22,21,2,1,56,2,1,1,3,0.950440381088023,0.928673063892304
"777",22,36,2,1,57,2,1,1,3,0.698798499106635,0.699023461970483
"778",22,36,2,2,58,1,2,1,5,0.310402614930731,0.284119212822757
"779",22,21,2,1,59,3,1,1,2,0.798684768736502,0.8206293671565
"780",22,33,2,2,60,2,1,0,2,0.849533278768555,0.891120795161457
"781",22,26,2,2,61,2,2,1,3,0.498495609075987,0.437338295550555
"782",22,18,2,2,62,3,1,0,1,1.29657244462447,1.21776578843164
"783",22,34,2,2,63,2,2,1,4,0.650373812901915,0.747038202199315
"784",22,36,2,2,64,1,1,0,4,0.560373998202994,0.570877346894766
"785",22,21,2,1,65,3,2,0,1,1.16621082429621,1.20410500951814
"786",22,21,2,1,66,2,1,1,3,0.61357739072032,0.670462918264723
"787",22,36,2,1,67,3,2,0,1,0.6312240581057,0.649322199467512
"788",22,36,2,1,68,2,1,1,4,0.475551263990323,0.463228863036742
"789",22,21,2,1,69,1,1,1,4,0.250868075975054,0.27907245772216
"790",22,33,2,1,70,1,1,1,5,0.194095742817794,0.214408562014002
"791",22,26,2,2,71,3,1,0,1,0.98499025918551,0.959377807122356
"792",22,18,2,2,72,1,2,1,4,0.358509729689231,0.279265988770069
"793",22,34,2,1,73,3,2,0,1,1.10353542598379,1.07843574919475
"794",22,36,2,1,74,1,1,1,4,0.284969475427513,0.301150624861571
"795",22,21,2,2,75,3,2,1,3,0.661906983102241,0.693735218959544
"796",22,21,2,1,76,2,1,1,3,0.632639935919655,0.640127100487536
"797",22,36,2,1,77,3,1,1,3,0.559087196864037,0.621609299212707
"798",22,36,2,2,78,3,1,0,2,0.934718081211066,0.959106437044666
"799",22,21,2,2,79,2,1,0,3,0.782036815656599,0.738551373632877
"800",22,33,2,2,80,2,2,1,4,0.773894786472701,0.763968207793549
"801",22,26,2,1,81,2,2,0,2,0.85763406242863,0.81679620112479
"802",22,18,2,1,82,3,2,0,1,1.55577628083428,1.4954679174988
"803",22,34,2,1,83,1,1,1,5,0.339179699846586,0.335162440819855
"804",22,36,2,1,84,3,2,0,1,1.32275577289741,1.2713482951471
"805",22,21,2,2,85,1,1,0,3,0.693089600396236,0.690508069936485
"806",22,21,2,2,86,2,2,1,3,0.643036268158709,0.708304068806884
"807",22,36,2,2,87,3,2,1,2,0.988820753767904,0.997847381936003
"808",22,36,2,2,88,3,2,1,3,0.949654905067103,0.991665231186357
"809",22,21,2,1,89,1,1,1,4,0.347593222986674,0.35623234985145
"810",22,33,2,2,90,1,2,1,4,0.389103508746659,0.353866473471279
"811",22,26,2,2,91,3,1,0,2,0.976419746240329,0.997753644851907
"812",22,18,2,1,92,2,1,1,4,0.671169246947788,0.680555662579391
"813",22,34,2,2,93,1,1,0,3,0.656655958832203,0.622371436305003
"814",22,36,2,1,94,2,2,0,2,0.76904052234594,0.758084476861982
"815",22,21,2,1,95,2,2,0,3,0.715215670988121,0.66467330428747
"816",22,21,2,2,96,2,1,0,3,0.776891084670061,0.713672540874693
"817",22,36,2,1,97,1,1,1,5,0.31495588706352,0.330330873526616
"818",22,36,2,1,98,2,1,1,3,0.675087901673143,0.692131506429747
"819",22,21,2,2,99,3,2,1,2,0.939071010248677,0.963205666122101
"820",22,33,2,1,100,2,1,1,3,0.713413848802291,0.772107539659917
"821",22,26,2,1,101,3,2,0,2,0.653273974871538,0.705033011333835
"822",22,18,2,2,102,1,2,1,4,0.347851253490753,0.269803469916534
"823",22,34,2,1,103,1,1,1,5,0.372582999217529,0.417363110210326
"824",22,36,2,1,104,1,1,1,4,0.550035633101335,0.522389482981564
"825",22,21,2,1,105,1,1,1,5,0.446494162997368,0.387401616547506
"826",22,21,2,1,106,2,2,0,2,0.554001178844423,0.541107297703872
"827",22,36,2,1,107,2,2,0,2,0.827429625336938,0.76046662390124
"828",22,36,2,2,108,3,1,0,1,0.643084216108103,0.657881110395502
"829",22,21,2,1,109,2,1,1,3,0.590138585740499,0.530808217513551
"830",22,33,2,1,110,3,1,1,3,0.596575061145566,0.471626023771043
"831",22,26,2,2,111,2,2,1,4,0.702780347716632,0.664043799399032
"832",22,18,2,2,112,3,1,0,2,0.458711471724392,0.534010670641479
"833",22,34,2,1,113,3,1,1,3,0.973779960298863,0.881470263562717
"834",22,36,2,2,114,2,2,1,3,0.784348342497635,0.791000479197694
"835",22,21,2,2,115,2,1,0,2,0.538430911823946,0.462646248578019
"836",22,21,2,2,116,2,2,1,4,0.523645284601539,0.49695195004806
"837",22,36,2,1,117,2,1,1,4,0.560692773012885,0.422915946365759
"838",22,36,2,1,118,1,1,1,5,0.350391557308367,0.399756552888049
"839",22,21,2,1,119,1,1,1,4,0.316592346729947,0.191702703925391
"840",22,33,2,2,120,3,1,0,1,1.1642605563229,1.19724745655171
"841",22,26,2,1,121,2,2,0,3,0.681721991915874,0.637592594210549
"842",22,18,2,1,122,3,1,1,3,1.03363737801816,1.03728483271795
"843",22,34,2,2,123,2,2,1,3,0.822488711703111,0.777556173230936
"844",22,36,2,2,124,1,2,1,5,0.340940278267008,0.291629019965
"845",22,21,2,2,125,2,1,0,2,0.660506204590993,0.628926955208665
"846",22,21,2,2,126,1,2,1,4,0.464149590562291,0.477134926745845
"847",22,36,2,2,127,1,1,0,4,0.426564853434416,0.449754772727307
"848",22,36,2,2,128,2,2,1,3,0.457786595042786,0.472344282900809
"849",22,21,2,2,129,3,2,1,2,0.605373087405828,0.622525732380148
"850",22,33,2,1,130,1,1,1,4,0.491855402384427,0.53064931029681
"851",22,26,2,1,131,3,1,1,2,0.847876283403957,0.846284597665843
"852",22,18,2,1,132,2,2,0,3,0.828843304359088,0.829186491672854
"853",22,34,2,1,133,1,1,1,5,0.319396735951371,0.310217177426883
"854",22,36,2,1,134,3,1,1,3,0.843260719112426,0.870535488930571
"855",22,21,2,2,135,3,1,0,1,1.18355251884814,1.16331741854903
"856",22,21,2,1,136,1,1,1,5,0.328182774609216,0.347236598311358
"857",22,36,2,1,137,1,1,1,4,0.392381767493347,0.477156044586394
"858",22,36,2,2,138,1,2,1,4,0.378970622613121,0.33362347471308
"859",22,21,2,1,139,1,1,1,4,0.398329788924769,0.327073767194669
"860",22,33,2,2,140,1,2,1,4,0.323393168822162,0.303357431289157
"861",22,26,2,1,141,3,2,0,1,0.842465645764376,0.807558143993841
"862",22,18,2,1,142,2,2,0,3,0.580744550696582,0.565609468597408
"863",22,34,2,1,143,3,1,1,2,0.882573319215691,0.917119465884099
"864",22,36,2,1,144,3,2,0,1,0.878282655321699,0.915999875750536
"865",22,21,2,1,145,3,1,1,2,0.709651463486082,0.744082289135711
"866",22,21,2,1,146,3,1,1,3,0.718428156228296,0.659407239158857
"867",22,36,2,2,147,1,2,1,5,0.416460938098341,0.546587455983968
"868",22,36,2,2,148,3,1,0,2,0.951828307135463,0.957100293675907
"869",22,21,2,2,149,2,2,1,3,0.610958635977324,0.597187264343355
"870",22,33,2,2,150,2,1,0,3,0.541912891412558,0.528090334292915
"871",22,26,2,2,151,2,2,1,3,0.593747582232113,0.547099251006846
"872",22,18,2,2,152,2,1,0,2,0.67476060160198,0.623896951095438
"873",22,34,2,2,153,3,2,1,3,0.805612864010556,0.79320947414062
"874",22,36,2,1,154,3,2,0,1,0.532517817531819,0.487191889906971
"875",22,21,2,1,155,2,1,1,4,0.544112173176634,0.617574235553955
"876",22,21,2,2,156,2,2,1,4,0.482389566305159,0.436485684928331
"877",22,36,2,2,157,1,1,0,4,0.531192595301393,0.572066224268302
"878",22,36,2,2,158,3,1,0,1,0.717671867763985,0.801826354883316
"879",22,21,2,2,159,2,2,1,4,0.796631027850663,0.830909645884808
"880",22,33,2,2,160,1,2,1,4,0.483235785338048,0.473374145295062
"881",22,26,2,2,161,1,2,1,4,0.350170868121828,0.38315986706247
"882",22,18,2,1,162,1,2,0,4,0.491128110239625,0.6302035075023
"883",22,34,2,2,163,1,2,1,5,0.41343826858379,0.370934933826886
"884",22,36,2,1,164,3,2,0,1,0.652283516128896,0.640049458658438
"885",22,21,2,2,165,1,2,1,5,0.319407780331194,0.218323490349737
"886",22,21,2,2,166,1,1,0,3,0.628484692464685,0.605785548377927
"887",22,36,2,2,167,2,2,1,3,0.625653484249335,0.574945596144258
"888",22,36,2,2,168,2,1,0,3,0.446538490875269,0.454914549036854
"889",22,21,2,1,169,3,1,1,3,0.789503204326458,0.679861528457935
"890",22,33,2,2,170,1,2,1,4,0.289819815318694,0.301145860681858
"891",22,26,2,2,171,2,2,1,4,0.582000737594634,0.54512907763545
"892",22,18,2,2,172,2,2,1,4,0.603348860289705,0.525710927521818
"893",22,34,2,1,173,2,2,0,2,0.719906761542448,0.783672355406808
"894",22,36,2,2,174,3,1,0,2,0.829785755226681,0.781180751051413
"895",22,21,2,2,175,2,2,1,3,0.644769485473077,0.563139169361935
"896",22,21,2,1,176,3,2,0,2,1.06212643643007,1.1139317958877
"897",22,36,2,2,177,3,1,0,1,0.408422182664191,0.374752523435117
"898",22,36,2,1,178,3,1,1,3,1.1213363322236,1.22038812065715
"899",22,21,2,1,179,2,2,0,2,0.493350428322584,0.421606793044185
"900",22,33,2,2,180,1,2,1,4,0.510187995227131,0.457790040618731
"901",22,26,2,1,181,1,1,1,5,0.3496495799857,0.404600539759648
"902",22,18,2,1,182,2,2,0,3,0.976289353518119,0.864684016624449
"903",22,34,2,2,183,1,1,0,4,0.43503616408596,0.472015955919369
"904",22,36,2,1,184,2,2,0,2,0.620231722986667,0.59149018722807
"905",22,21,2,2,185,1,2,1,5,0.365166036602704,0.316165647280546
"906",22,21,2,2,186,2,1,0,2,0.540723828929607,0.530758064775803
"907",22,36,2,2,187,1,2,1,4,0.521171135005082,0.517055562920836
"908",22,36,2,1,188,1,1,1,4,0.395326965572598,0.463903501816948
"909",22,21,2,1,189,2,2,0,3,0.924656167507707,0.882579617771818
"910",22,33,2,1,190,1,1,1,4,0.428010806598828,0.339948218524726
"911",22,26,2,2,191,1,2,1,4,0.401866532203424,0.423010274456306
"912",22,18,2,2,192,2,1,0,3,0.79389360714996,0.86016895968787
"913",22,34,2,1,193,3,1,1,3,0.928627257250954,0.889835258610534
"914",22,36,2,1,194,3,1,1,2,0.84337862809993,0.828444581058978
"915",22,21,2,2,195,2,2,1,3,0.572606488074749,0.497474963092598
"916",22,21,2,1,196,2,1,1,3,0.659655713487623,0.685799689276622
"917",22,36,2,1,197,1,1,1,4,0.324361612648421,0.352806773202973
"918",22,36,2,2,198,1,2,1,4,0.342225779726153,0.382540647075848
"919",22,21,2,2,199,2,1,0,3,0.941787430472853,0.975062535351142
"920",22,33,2,2,200,1,2,1,4,0.541781793993155,0.669764595603582
"921",22,26,2,1,201,3,1,1,2,0.59138508917256,0.665646584256498
"922",22,18,2,1,202,2,1,1,3,0.508958061396851,0.416769863463209
"923",22,34,2,1,203,3,2,0,1,1.31227191778113,1.36908065353587
"924",22,36,2,2,204,3,2,1,3,0.934520401775808,0.889181221917003
"925",22,21,2,1,205,2,1,1,3,0.758775979156502,0.770622240649623
"926",22,21,2,1,206,3,2,0,2,0.462128051476341,0.497170919183354
"927",22,36,2,2,207,2,1,0,2,0.663126498802077,0.632969671676988
"928",22,36,2,2,208,3,1,0,1,0.989334110893855,0.952574482174398
"929",22,21,2,1,209,2,1,1,3,0.663880740878259,0.711617755332221
"930",22,33,2,1,210,2,1,1,4,0.302690200072957,0.379501834386431
"931",22,26,2,1,211,1,1,1,5,0.607737972199627,0.619494738565438
"932",22,18,2,2,212,3,2,1,2,1.14614444011125,1.07333702393061
"933",22,34,2,2,213,3,2,1,3,0.799080012166685,0.789318936433604
"934",22,36,2,1,214,2,1,1,4,0.698949228673101,0.688175121730896
"935",22,21,2,2,215,3,1,0,2,0.79150961760026,0.877503100699373
"936",22,21,2,1,216,3,1,1,2,0.761140973155545,0.728404945845536
"937",22,36,2,2,217,1,2,1,5,0.239157349512896,0.287030245147447
"938",22,36,2,2,218,2,2,1,4,0.579412317072515,0.570209646414739
"939",22,21,2,1,219,2,2,0,2,0.633781261657657,0.542232511802789
"940",22,33,2,2,220,3,2,1,2,0.723994587956197,0.779502356791597
"941",22,26,2,1,221,1,1,1,4,0.319570868683846,0.369865123445886
"942",22,18,2,2,222,1,2,1,4,0.378636470774385,0.377801653154114
"943",22,34,2,2,223,3,1,0,1,0.415283467241556,0.354236727914456
"944",22,36,2,1,224,2,2,0,3,0.661657381176017,0.746799218339607
"945",22,21,2,2,225,2,1,0,2,0.741212243348062,0.753642777674557
"946",22,21,2,1,226,1,1,1,4,0.257281053096338,0.216556839620376
"947",22,36,2,2,227,1,2,1,5,0.633709742635892,0.671241871969662
"948",22,36,2,2,228,2,1,0,3,0.796149683973728,0.789943641056224
"949",22,21,2,1,229,3,1,1,3,0.604313789152376,0.680404448850418
"950",22,33,2,2,230,2,1,0,2,0.663331404445446,0.566061323028111
"951",22,26,2,2,231,3,1,0,1,1.68165961594467,1.68686258561024
"952",22,18,2,1,232,2,2,0,3,0.7391761129827,0.700980582837237
"953",22,34,2,1,233,2,1,1,3,0.325180697495555,0.370364444383938
"954",22,36,2,1,234,3,2,0,2,1.29067165395557,1.30933840300067
"955",22,21,2,2,235,3,1,0,1,0.452495940081917,0.511020669826429
"956",22,21,2,2,236,1,2,1,5,0.366478785661171,0.386493151946478
"957",22,36,2,1,237,3,2,0,2,1.37131085570861,1.31248871847223
"958",22,36,2,2,238,2,2,1,3,0.61832014131514,0.684987203228004
"959",22,21,2,1,239,3,1,1,3,0.906088438549975,0.865345018243451
"960",22,33,2,1,240,3,2,0,2,0.93581664446197,0.941784605448553
"961",21,26,1,2,1,3,2,1,3,0.741085167347784,0.645581909915182
"962",21,34,1,2,2,3,2,1,3,0.600584303321001,0.519208935205966
"963",21,24,1,1,3,3,1,1,2,0.852047014506837,0.81040414947972
"964",21,19,1,2,4,3,1,0,1,0.833526302814717,0.807086695350563
"965",21,38,1,1,5,3,1,1,2,0.889916439577888,0.835928211026502
"966",21,35,1,1,6,1,1,1,4,0.308384712998421,0.365552943189338
"967",21,21,1,2,7,1,2,1,4,0.371840002022067,0.331769922207177
"968",21,19,1,1,8,3,2,0,1,1.04276411503646,1.0023875885345
"969",21,23,1,1,9,2,2,0,2,0.875204429357557,0.85589299836784
"970",21,29,1,2,10,2,2,1,4,0.832712112716213,0.844754190056825
"971",21,26,1,2,11,3,2,1,3,0.708235124743015,0.733161161142997
"972",21,34,1,1,12,3,2,0,2,0.437024380880592,0.454308691292302
"973",21,24,1,2,13,2,2,1,4,0.676157723341658,0.608183597717906
"974",21,19,1,1,14,2,1,1,3,0.54885186210078,0.544632926795612
"975",21,38,1,1,15,3,1,1,3,0.847609098950703,0.818680043110978
"976",21,35,1,2,16,1,2,1,4,0.502402004617772,0.52873398303239
"977",21,21,1,2,17,2,2,1,4,0.603982848931876,0.523064188357818
"978",21,19,1,2,18,1,2,1,5,0.466293513558702,0.480477980358121
"979",21,23,1,2,19,1,1,0,4,0.472040449528924,0.434247748664259
"980",21,29,1,1,20,1,2,0,3,0.506793199579414,0.528641195636217
"981",21,26,1,2,21,3,1,0,2,1.47078951117439,1.4726950216017
"982",21,34,1,1,22,1,1,1,5,0.541093544724325,0.598729682822406
"983",21,24,1,1,23,2,2,0,2,0.752621500101958,0.809591505591406
"984",21,19,1,2,24,2,2,1,3,0.600915970300735,0.604518426242792
"985",21,38,1,2,25,1,2,1,5,0.404109644407304,0.442713228596459
"986",21,35,1,2,26,3,1,0,2,1.20129366475662,1.20989429863092
"987",21,21,1,1,27,2,2,0,3,0.56014982191013,0.537470789227043
"988",21,19,1,1,28,2,1,1,3,0.630509226543864,0.521325014930061
"989",21,23,1,1,29,2,1,1,4,0.52417351799345,0.472663096494102
"990",21,29,1,1,30,2,2,0,3,0.820824141564799,0.768459300537563
"991",21,26,1,1,31,3,1,1,2,0.723702256483957,0.641710324839492
"992",21,34,1,1,32,1,1,1,5,0.334094204481895,0.285126537619484
"993",21,24,1,2,33,1,2,1,5,0.277486771560722,0.285113744041988
"994",21,19,1,2,34,1,2,1,4,0.435670939526186,0.485577674604398
"995",21,38,1,1,35,2,2,0,3,0.916574204260798,0.917647242491639
"996",21,35,1,2,36,2,2,1,4,0.651500859281101,0.736934284785822
"997",21,21,1,1,37,3,2,0,2,1.58632948938541,1.64205354364117
"998",21,19,1,2,38,1,2,1,5,0.587229246839633,0.593558620548435
"999",21,23,1,2,39,3,2,1,3,0.830871004238574,0.806361005057487
"1000",21,29,1,1,40,2,1,1,4,0.598246209815559,0.660673748245144
"1001",21,26,1,2,41,2,2,1,3,0.43048081254266,0.340320372626517
"1002",21,34,1,2,42,2,2,1,4,0.640418244185496,0.679760230036672
"1003",21,24,1,1,43,2,2,0,3,0.611245550208996,0.690451793657041
"1004",21,19,1,1,44,1,1,1,5,0.533839722851672,0.460308556246294
"1005",21,38,1,1,45,3,1,1,3,0.565827261115781,0.603877413875469
"1006",21,35,1,1,46,3,1,1,2,1.00587617838221,1.03612129588749
"1007",21,21,1,2,47,3,1,0,1,1.20607447321301,1.16135759089487
"1008",21,19,1,2,48,2,1,0,3,0.76086773203347,0.723894435408108
"1009",21,23,1,1,49,1,1,1,5,0.369042218426625,0.374960931593019
"1010",21,29,1,1,50,2,2,0,2,1.01057247061795,0.930823558410796
"1011",21,26,1,2,51,3,1,0,2,1.75675969366807,1.67358858788817
"1012",21,34,1,1,52,3,2,0,2,1.17204891975699,1.14521123972123
"1013",21,24,1,1,53,2,1,1,4,0.672109198614731,0.698415828051786
"1014",21,19,1,1,54,2,1,1,3,0.585304473333351,0.662674959028483
"1015",21,38,1,1,55,3,1,1,2,0.951722614764135,0.971441748797498
"1016",21,35,1,2,56,3,1,0,2,0.989492202559257,0.991318399139308
"1017",21,21,1,1,57,2,2,0,3,0.620103158853988,0.684907200754257
"1018",21,19,1,1,58,2,1,1,3,0.592827984103687,0.557034500183492
"1019",21,23,1,1,59,1,2,0,4,0.573722208332706,0.606997442511855
"1020",21,29,1,2,60,2,1,0,2,0.61005995015939,0.634344010078118
"1021",21,26,1,1,61,1,1,1,4,0.277467367183405,0.299053058405531
"1022",21,34,1,1,62,1,1,1,4,0.29969891260679,0.286397936543267
"1023",21,24,1,1,63,3,1,1,2,0.808810483535939,0.79701313247941
"1024",21,19,1,2,64,2,2,1,3,0.759829352989261,0.860867636791617
"1025",21,38,1,2,65,2,1,0,2,0.883876799169199,0.837243366455826
"1026",21,35,1,1,66,2,1,1,3,0.3604737155688,0.317627406384754
"1027",21,21,1,1,67,2,1,1,3,0.710114639417652,0.669118767182139
"1028",21,19,1,2,68,2,1,0,3,0.681452973417924,0.711752294038488
"1029",21,23,1,1,69,1,1,1,4,0.37182345800457,0.40982166016465
"1030",21,29,1,2,70,3,2,1,2,0.783214137994336,0.828862221206549
"1031",21,26,1,1,71,3,1,1,2,0.990558763153481,0.994141168870683
"1032",21,34,1,2,72,3,1,0,2,0.766977516951211,0.846952737115844
"1033",21,24,1,1,73,1,2,0,3,0.590002133019945,0.624680491640226
"1034",21,19,1,1,74,3,1,1,3,0.57784694118683,0.514466220108036
"1035",21,38,1,2,75,2,1,0,3,0.599348144240223,0.658474188991536
"1036",21,35,1,1,76,1,1,1,4,0.309084443975534,0.343072411025951
"1037",21,21,1,1,77,1,1,1,5,0.355847282531535,0.349811821500231
"1038",21,19,1,2,78,3,2,1,2,0.745318556025591,0.700543742832861
"1039",21,23,1,1,79,1,2,0,3,0.651206837900356,0.610616746008135
"1040",21,29,1,2,80,2,2,1,3,0.630202736309324,0.594249524447009
"1041",21,26,1,1,81,2,2,0,3,0.689906237083869,0.731123064797741
"1042",21,34,1,2,82,1,2,1,4,0.483028089249755,0.478580193186744
"1043",21,24,1,2,83,1,2,1,5,0.39413634378352,0.388581622002641
"1044",21,19,1,1,84,2,1,1,4,0.522039920037108,0.511253384865803
"1045",21,38,1,1,85,3,1,1,3,0.714811284459626,0.769652163294949
"1046",21,35,1,2,86,2,1,0,2,0.553836611588767,0.565497822198038
"1047",21,21,1,2,87,1,2,1,5,0.433194515471834,0.388185569102007
"1048",21,19,1,1,88,3,2,0,2,0.850182059344063,0.873921506951192
"1049",21,23,1,2,89,3,1,0,1,1.09850982755891,1.12137116717302
"1050",21,29,1,1,90,1,2,0,4,0.480442417136769,0.529942161626811
"1051",21,26,1,1,91,3,1,1,2,1.18084329939724,1.17108473154546
"1052",21,34,1,2,92,3,1,0,2,0.944410128184944,0.87734517438796
"1053",21,24,1,1,93,2,2,0,2,0.609950329820411,0.606917629000829
"1054",21,19,1,2,94,2,2,1,3,0.630495832538602,0.625615451020353
"1055",21,38,1,2,95,3,1,0,1,0.526459588469446,0.532027356820783
"1056",21,35,1,2,96,2,2,1,3,0.482247748856978,0.443315835250151
"1057",21,21,1,2,97,2,2,1,4,0.578298959084919,0.474628610991532
"1058",21,19,1,2,98,3,2,1,3,0.737084728105201,0.812694853003542
"1059",21,23,1,2,99,1,2,1,5,0.397983950004132,0.362289726682779
"1060",21,29,1,2,100,1,2,1,4,0.453497233293304,0.527847979810006
"1061",21,26,1,1,101,3,2,0,1,1.32737262537993,1.32650098934995
"1062",21,34,1,1,102,1,2,0,4,0.456431527731981,0.42712897039556
"1063",21,24,1,1,103,3,1,1,2,0.698869993134332,0.643874263088414
"1064",21,19,1,1,104,1,2,0,3,0.552866499464612,0.530670856451761
"1065",21,38,1,1,105,3,1,1,3,0.691160653745031,0.738234941043865
"1066",21,35,1,2,106,3,1,0,2,1.57249946716841,1.6957539838163
"1067",21,21,1,1,107,2,2,0,3,0.397944305744585,0.43455027270977
"1068",21,19,1,2,108,2,2,1,4,0.590308165611837,0.495755216436532
"1069",21,23,1,1,109,3,1,1,3,0.6005456246233,0.618740293067667
"1070",21,29,1,1,110,3,2,0,1,1.1057480044356,1.11279535989111
"1071",21,26,1,1,111,1,1,1,4,0.428406968256541,0.450432652232547
"1072",21,34,1,1,112,1,1,1,4,0.321996711047614,0.280636944255725
"1073",21,24,1,2,113,2,1,0,3,0.844054861928867,0.857991038210081
"1074",21,19,1,2,114,1,2,1,4,0.334059798978997,0.35790825061517
"1075",21,38,1,2,115,1,2,1,4,0.276833726687754,0.282236792726775
"1076",21,35,1,2,116,3,2,1,2,0.702204288428471,0.755076388774529
"1077",21,21,1,2,117,1,2,1,4,0.366350939522292,0.401234725389932
"1078",21,19,1,2,118,1,2,1,4,0.372550346487576,0.41802295435676
"1079",21,23,1,1,119,1,1,1,5,0.312515820996668,0.28631610003796
"1080",21,29,1,1,120,2,2,0,3,0.835610512248275,0.869004894512309
"1081",21,26,1,2,121,2,1,0,2,0.729424092385047,0.810104650579925
"1082",21,34,1,1,122,3,1,1,2,1.16008256122208,1.19287931152087
"1083",21,24,1,2,123,3,1,0,2,1.55538095605097,1.57482337743236
"1084",21,19,1,2,124,3,1,0,1,0.552778593447815,0.528836279209002
"1085",21,38,1,2,125,1,1,0,4,0.634814315705194,0.572873140234451
"1086",21,35,1,2,126,1,2,1,4,0.409107002027872,0.387341269572201
"1087",21,21,1,1,127,3,2,0,1,0.909082564425989,0.910655107361
"1088",21,19,1,1,128,3,2,0,1,1.21221496635555,1.18385344147377
"1089",21,23,1,2,129,1,2,1,5,0.304882591661561,0.26393525950488
"1090",21,29,1,1,130,1,1,1,4,0.484553482866897,0.456934744871332
"1091",21,26,1,1,131,1,1,1,5,0.459275356921127,0.502366805906152
"1092",21,34,1,1,132,2,1,1,4,0.555240154850291,0.464694222192568
"1093",21,24,1,2,133,1,2,1,4,0.333763158648932,0.321462642278364
"1094",21,19,1,1,134,3,1,1,3,0.77152127210979,0.794239721059567
"1095",21,38,1,2,135,3,1,0,2,1.19745013612112,1.18546363015905
"1096",21,35,1,1,136,3,1,1,3,1.00336696330026,0.965345327433586
"1097",21,21,1,2,137,2,1,0,2,0.67078032850452,0.615752661911763
"1098",21,19,1,2,138,2,1,0,3,0.814850102430062,0.779761976266307
"1099",21,23,1,2,139,1,2,1,4,0.40198009134155,0.466243930518329
"1100",21,29,1,2,140,1,2,1,5,0.412828336187726,0.37835729214089
"1101",21,26,1,2,141,2,2,1,3,0.503697363876901,0.442120150108083
"1102",21,34,1,2,142,3,2,1,2,0.482445247167788,0.586656640739977
"1103",21,24,1,2,143,2,2,1,4,0.729658396901966,0.794198522184282
"1104",21,19,1,1,144,2,1,1,4,0.62329984909491,0.573440951333039
"1105",21,38,1,2,145,3,2,1,2,0.661042920831067,0.614560136670209
"1106",21,35,1,2,146,1,1,0,4,0.612550261870963,0.5941129887075
"1107",21,21,1,1,147,2,2,0,3,0.78020160003706,0.803215683788899
"1108",21,19,1,2,148,3,2,1,2,0.890596150220593,0.923836944731237
"1109",21,23,1,1,149,3,1,1,2,0.777269389065663,0.856796536028433
"1110",21,29,1,1,150,1,1,1,4,0.506425638419472,0.550558010588372
"1111",21,26,1,2,151,3,2,1,2,0.833367402555015,0.861550734998261
"1112",21,34,1,1,152,3,2,0,2,1.0596711413064,1.03924667104038
"1113",21,24,1,1,153,1,1,1,4,0.196645865588539,0.215082816133242
"1114",21,19,1,2,154,2,2,1,3,0.450543544629124,0.530351821937808
"1115",21,38,1,2,155,2,1,0,2,0.426347105254596,0.361804091582276
"1116",21,35,1,1,156,2,1,1,3,0.592681867315204,0.671662493560672
"1117",21,21,1,1,157,2,2,0,2,0.603659197515154,0.578560381732869
"1118",21,19,1,2,158,2,2,1,3,0.653632766242505,0.632558719230056
"1119",21,23,1,2,159,3,2,1,2,0.898759531955336,0.91026346812604
"1120",21,29,1,1,160,3,1,1,2,0.421620258006554,0.446635647682845
"1121",21,26,1,2,161,3,2,1,2,0.657463433225797,0.678979700714852
"1122",21,34,1,2,162,3,1,0,1,1.02700004668383,1.10895957551849
"1123",21,24,1,1,163,1,1,1,4,0.278786865170212,0.181310140609298
"1124",21,19,1,2,164,1,2,1,5,0.471046548771869,0.438815099698328
"1125",21,38,1,2,165,3,1,0,1,0.481331951446073,0.57743009413822
"1126",21,35,1,2,166,1,2,1,5,0.387419177381233,0.527013041797871
"1127",21,21,1,1,167,1,1,1,5,0.429804840093514,0.448077273296286
"1128",21,19,1,1,168,3,1,1,2,0.924096932783792,0.887205785873571
"1129",21,23,1,2,169,2,2,1,3,0.642602454169734,0.627138171321745
"1130",21,29,1,1,170,3,2,0,1,1.35395858127924,1.27825275867435
"1131",21,26,1,1,171,3,2,0,2,0.828088001161289,0.819332177388619
"1132",21,34,1,1,172,3,1,1,2,1.01597925242471,0.971212774323994
"1133",21,24,1,2,173,2,1,0,2,0.677227527615914,0.698865865423236
"1134",21,19,1,2,174,2,1,0,3,0.478761838960839,0.398141675119637
"1135",21,38,1,2,175,2,1,0,2,1.00796685531712,1.05748657319759
"1136",21,35,1,2,176,3,1,0,2,1.32343584577173,1.35814150318507
"1137",21,21,1,2,177,1,2,1,5,0.434463687753834,0.433784801817093
"1138",21,19,1,1,178,3,2,0,2,1.18600904634181,1.17946621933727
"1139",21,23,1,2,179,1,1,0,3,0.39651083872721,0.432298092126943
"1140",21,29,1,1,180,3,1,1,3,0.969863155703654,1.04882862665084
"1141",21,26,1,1,181,1,1,1,5,0.417640865808221,0.431587581153021
"1142",21,34,1,2,182,2,1,0,3,0.570749787814989,0.509570283102087
"1143",21,24,1,2,183,1,2,1,4,0.238041831711773,0.212593943724828
"1144",21,19,1,2,184,1,2,1,4,0.344415525167339,0.401637139579754
"1145",21,38,1,1,185,2,1,1,3,0.615587684846263,0.593693732554732
"1146",21,35,1,2,186,1,2,1,5,0.432779051965486,0.355806652971721
"1147",21,21,1,2,187,1,2,1,5,0.498457254347671,0.512110479337165
"1148",21,19,1,2,188,3,1,0,2,1.58145156566089,1.58192224393733
"1149",21,23,1,1,189,3,1,1,2,0.629165154413181,0.600103926026338
"1150",21,29,1,1,190,2,2,0,2,0.755593408356713,0.66877132253772
"1151",21,26,1,1,191,1,1,1,4,0.219328204013871,0.168884434859667
"1152",21,34,1,1,192,1,1,1,5,0.387867792782583,0.362261030619644
"1153",21,24,1,2,193,1,2,1,5,0.460102527978783,0.437052605636114
"1154",21,19,1,1,194,2,1,1,4,0.80798012902712,0.830914186817344
"1155",21,38,1,1,195,1,1,1,4,0.27792331991012,0.214968297403127
"1156",21,35,1,1,196,1,2,0,3,0.439340822011546,0.468444257724362
"1157",21,21,1,1,197,3,1,1,3,0.804967619224233,0.864046596159863
"1158",21,19,1,1,198,2,1,1,4,0.389524444183222,0.31678934131058
"1159",21,23,1,2,199,2,1,0,2,0.548036902584127,0.589732526205009
"1160",21,29,1,2,200,3,1,0,2,1.56815141905109,1.59158192797296
"1161",21,26,1,2,201,1,2,1,5,0.305822741411488,0.340194286700285
"1162",21,34,1,2,202,3,1,0,2,1.2943132333105,1.24955676728079
"1163",21,24,1,2,203,1,2,1,4,0.255543825336574,0.345734590361878
"1164",21,19,1,2,204,2,1,0,2,0.739079646747481,0.784267647300627
"1165",21,38,1,1,205,1,1,1,4,0.477400895797496,0.433575446800791
"1166",21,35,1,2,206,1,1,0,3,0.682071807197916,0.718524351270935
"1167",21,21,1,2,207,1,2,1,5,0.366538486665271,0.329680444721439
"1168",21,19,1,2,208,2,1,0,2,0.53860486066015,0.507653169531245
"1169",21,23,1,1,209,2,1,1,4,0.484573821835156,0.525851635583176
"1170",21,29,1,1,210,3,2,0,1,0.938087599316713,0.945307519884743
"1171",21,26,1,2,211,1,2,1,4,0.504039877374768,0.576434102738613
"1172",21,34,1,2,212,1,1,0,4,0.601137185779383,0.585886670861017
"1173",21,24,1,1,213,2,1,1,3,0.65523212908114,0.624845436945239
"1174",21,19,1,2,214,3,2,1,3,0.920931877584392,0.924368867301297
"1175",21,38,1,2,215,1,2,1,4,0.353177628752154,0.286984796238442
"1176",21,35,1,2,216,3,1,0,2,1.05047821894809,1.00786579338252
"1177",21,21,1,2,217,2,2,1,3,0.706358899672112,0.766512326128448
"1178",21,19,1,2,218,3,2,1,2,0.925471928746203,0.922351560471812
"1179",21,23,1,1,219,2,2,0,3,0.782080500352475,0.697361125673299
"1180",21,29,1,1,220,2,2,0,3,0.73094995657301,0.679900678896061
"1181",21,26,1,1,221,2,1,1,4,0.483180682369189,0.455817256628747
"1182",21,34,1,1,222,2,1,1,4,0.738175513486016,0.735582751749548
"1183",21,24,1,1,223,1,1,1,5,0.379436468244227,0.439790475182487
"1184",21,19,1,2,224,1,2,1,4,0.534238999020477,0.54674348692053
"1185",21,38,1,2,225,2,2,1,3,0.61467980019105,0.595037891873965
"1186",21,35,1,1,226,1,1,1,5,0.443535602354374,0.470022403440643
"1187",21,21,1,1,227,1,1,1,4,0.453336968743242,0.447963381709711
"1188",21,19,1,1,228,2,2,0,3,0.677219474326677,0.581437887875155
"1189",21,23,1,1,229,1,1,1,5,0.301092707658971,0.329141870428577
"1190",21,29,1,1,230,2,2,0,3,0.308784304319161,0.341509460233985
"1191",21,26,1,1,231,2,2,0,3,0.883873897385012,0.928174687490169
"1192",21,34,1,1,232,3,2,0,2,1.00227491843087,1.02134374935166
"1193",21,24,1,1,233,2,2,0,2,0.659717931645849,0.636022558246502
"1194",21,19,1,2,234,1,2,1,4,0.431399911151399,0.428400384428355
"1195",21,38,1,1,235,1,1,1,5,0.394233402175494,0.373104442860292
"1196",21,35,1,1,236,1,1,1,5,0.302578756464822,0.30202502680671
"1197",21,21,1,1,237,3,2,0,1,0.337897607209492,0.321180304812351
"1198",21,19,1,2,238,3,2,1,2,0.89431982314889,0.882894104175044
"1199",21,23,1,2,239,2,1,0,2,0.878461572873568,0.918263284484474
"1200",21,29,1,2,240,3,2,1,3,0.705459083428557,0.669946228967955
"1201",20,30,2,1,1,2,2,0,2,0.824339459669937,0.842230975815185
"1202",20,22,2,2,2,2,1,0,3,0.817600912287059,0.823743448609853
"1203",20,28,2,1,3,3,1,1,3,0.49897792382705,0.477198151129386
"1204",20,30,2,1,4,2,1,1,4,0.539067559691124,0.518917533550054
"1205",20,23,2,2,5,3,2,1,2,1.33980689416666,1.35914768950456
"1206",20,38,2,1,6,2,1,1,3,0.664147804702696,0.761593934441336
"1207",20,36,2,2,7,2,2,1,3,0.610526199110106,0.667811978326432
"1208",20,39,2,2,8,3,1,0,2,1.37660580644855,1.44567946596679
"1209",20,25,2,1,9,1,1,1,4,0.419510249773321,0.420176525783557
"1210",20,32,2,1,10,2,2,0,2,0.795984173402457,0.851955910490164
"1211",20,30,2,1,11,1,1,1,5,0.374450956828367,0.406570748080614
"1212",20,22,2,1,12,3,2,0,1,0.750203205961421,0.714757241624125
"1213",20,28,2,1,13,3,1,1,2,0.930228940311522,0.972601549217365
"1214",20,30,2,1,14,3,1,1,3,0.764213455025938,0.772614259680042
"1215",20,23,2,2,15,1,2,1,5,0.395681279985108,0.355586447690958
"1216",20,38,2,2,16,2,1,0,3,0.64806131914951,0.700658022967587
"1217",20,36,2,1,17,2,1,1,4,0.537511969784355,0.514842127235893
"1218",20,39,2,1,18,2,1,1,4,0.48354477908096,0.405168956001604
"1219",20,25,2,1,19,2,2,0,3,0.528663526609981,0.573634472591281
"1220",20,32,2,2,20,1,2,1,4,0.562575828244162,0.555174633325676
"1221",20,30,2,2,21,3,1,0,1,0.600142701039761,0.684138409296717
"1222",20,22,2,1,22,2,1,1,4,0.733555190421884,0.695751559502281
"1223",20,28,2,2,23,2,2,1,4,0.404088310405936,0.393064874588174
"1224",20,30,2,1,24,2,2,0,2,0.831098465201805,0.778741682849535
"1225",20,23,2,2,25,3,2,1,2,1.13591531221674,1.12528502867588
"1226",20,38,2,1,26,1,2,0,4,0.676455592160083,0.728828069085501
"1227",20,36,2,1,27,3,2,0,1,0.885938302880014,0.836469975505622
"1228",20,39,2,2,28,3,1,0,2,1.51762395297551,1.54608406028186
"1229",20,25,2,2,29,1,2,1,4,0.292739713475479,0.244290330523607
"1230",20,32,2,1,30,3,2,0,2,0.80292680911735,0.776632399028561
"1231",20,30,2,2,31,1,2,1,4,0.38464918262406,0.38278958526562
"1232",20,22,2,1,32,1,1,1,4,0.457492113851111,0.450863630832011
"1233",20,28,2,1,33,1,1,1,5,0.547399753016461,0.541722993778182
"1234",20,30,2,1,34,3,2,0,2,0.858332186376965,0.86459103332188
"1235",20,23,2,1,35,2,1,1,4,0.707578985806973,0.689598533335973
"1236",20,38,2,1,36,3,1,1,2,0.568249247382219,0.602652463819745
"1237",20,36,2,2,37,3,1,0,1,0.666997258477948,0.635900999209744
"1238",20,39,2,2,38,2,2,1,3,0.621526465720395,0.626878694071494
"1239",20,25,2,2,39,1,2,1,4,0.476451487505165,0.585852483098192
"1240",20,32,2,2,40,2,1,0,3,0.579064034854685,0.546142962140439
"1241",20,30,2,1,41,3,1,1,2,0.557956979356565,0.584533211028989
"1242",20,22,2,2,42,3,2,1,2,0.742300758580421,0.732457878379454
"1243",20,28,2,1,43,2,1,1,4,0.512114591185639,0.492284159469987
"1244",20,30,2,2,44,3,1,0,2,0.848020313821258,0.821158290176572
"1245",20,23,2,2,45,3,2,1,3,0.729555452591584,0.741584239470111
"1246",20,38,2,1,46,1,1,1,4,0.502972054293717,0.487640190461385
"1247",20,36,2,2,47,1,1,0,4,0.378385246576986,0.408149139577768
"1248",20,39,2,1,48,3,1,1,3,0.48144993574352,0.414844383644246
"1249",20,25,2,2,49,1,2,1,5,0.466189002076077,0.472072541267914
"1250",20,32,2,1,50,2,2,0,2,0.918359462083417,0.961519259372329
"1251",20,30,2,2,51,2,2,1,3,0.623164644092957,0.597249178148053
"1252",20,22,2,1,52,2,2,0,3,0.614025502729214,0.595844926501827
"1253",20,28,2,1,53,3,2,0,2,1.14875402850641,1.16000738410151
"1254",20,30,2,1,54,3,2,0,2,1.34009170487056,1.31944296507059
"1255",20,23,2,2,55,2,1,0,3,0.67595345619144,0.668598668755579
"1256",20,38,2,2,56,3,1,0,2,0.549518308467455,0.445314334013979
"1257",20,36,2,2,57,3,2,1,2,0.8230383993111,0.904851147502384
"1258",20,39,2,2,58,1,2,1,5,0.379433488794809,0.383189925007782
"1259",20,25,2,1,59,1,1,1,5,0.328797624110677,0.261733521483493
"1260",20,32,2,2,60,1,2,1,4,0.379046163177503,0.407817433982497
"1261",20,30,2,1,61,1,1,1,4,0.396432001462653,0.337985287138787
"1262",20,22,2,2,62,3,1,0,2,0.624119425692037,0.652188339750134
"1263",20,28,2,1,63,2,2,0,3,0.617471830377308,0.561909905381964
"1264",20,30,2,2,64,3,1,0,1,1.32128843563479,1.28594323260007
"1265",20,23,2,1,65,3,1,1,3,0.65235614662969,0.658130637352784
"1266",20,38,2,2,66,2,2,1,3,0.724922382715156,0.663992599524525
"1267",20,36,2,1,67,2,1,1,3,0.810308489777199,0.890526808943054
"1268",20,39,2,1,68,3,2,0,2,1.47471374477342,1.42204168799824
"1269",20,25,2,2,69,1,2,1,4,0.293648043186658,0.258898530856631
"1270",20,32,2,1,70,3,2,0,2,1.45502374573811,1.54496152384645
"1271",20,30,2,1,71,3,2,0,2,1.04882507288766,1.09517955588644
"1272",20,22,2,1,72,2,2,0,2,0.552049068762157,0.549929613187008
"1273",20,28,2,2,73,1,1,0,3,0.675039501257108,0.686206785777655
"1274",20,30,2,2,74,3,1,0,2,1.15412889250219,1.12108772043227
"1275",20,23,2,1,75,2,2,0,3,0.573409567848593,0.523830437002054
"1276",20,38,2,1,76,1,1,1,5,0.446512917477243,0.433375895407655
"1277",20,36,2,2,77,1,2,1,5,0.505105988355496,0.530680596683321
"1278",20,39,2,2,78,2,2,1,4,0.577280064865189,0.599858378213074
"1279",20,25,2,2,79,1,2,1,4,0.286927523716228,0.336748976822294
"1280",20,32,2,2,80,1,2,1,4,0.370085738840504,0.357418074041362
"1281",20,30,2,1,81,2,2,0,3,0.593950380580199,0.612728090648531
"1282",20,22,2,2,82,3,1,0,2,1.13112530283772,1.17771387792447
"1283",20,28,2,2,83,2,2,1,3,0.646219008503785,0.646220937165396
"1284",20,30,2,2,84,1,2,1,5,0.263296926312951,0.353356111629393
"1285",20,23,2,1,85,1,2,0,3,0.660763587485727,0.664837740086863
"1286",20,38,2,2,86,3,1,0,2,0.942917086570372,0.950820989792759
"1287",20,36,2,1,87,1,1,1,5,0.463791503337796,0.436130691854106
"1288",20,39,2,1,88,2,1,1,3,0.621275688158559,0.685876250351913
"1289",20,25,2,1,89,1,2,0,4,0.647438050902033,0.652239206232707
"1290",20,32,2,2,90,3,1,0,2,0.666855283275555,0.708725280416658
"1291",20,30,2,1,91,2,2,0,3,0.747048918685725,0.79451376989216
"1292",20,22,2,1,92,1,1,1,5,0.245327857162004,0.202382488700889
"1293",20,28,2,1,93,1,1,1,4,0.377868223955594,0.318367232442419
"1294",20,30,2,2,94,2,1,0,2,0.776644677600845,0.743108027010565
"1295",20,23,2,1,95,2,1,1,3,0.647502952235366,0.74511407030884
"1296",20,38,2,2,96,2,2,1,4,0.577292096911177,0.534217019957997
"1297",20,36,2,2,97,1,1,0,4,0.498306506287522,0.501092233011358
"1298",20,39,2,1,98,2,1,1,3,0.776144589945087,0.786259538549057
"1299",20,25,2,1,99,3,1,1,2,0.29049293812905,0.285870998431922
"1300",20,32,2,1,100,1,1,1,5,0.472129969074856,0.376798064840645
"1301",20,30,2,2,101,1,2,1,5,0.332040375117026,0.318698246286516
"1302",20,22,2,2,102,3,2,1,2,0.67352780399002,0.71104084109669
"1303",20,28,2,1,103,1,1,1,4,0.312526938708955,0.34624549319548
"1304",20,30,2,1,104,3,1,1,3,0.692669621705722,0.705912489208288
"1305",20,23,2,2,105,2,2,1,3,0.662379680794482,0.650764158039308
"1306",20,38,2,1,106,3,1,1,3,0.685669728143197,0.719971542590001
"1307",20,36,2,2,107,1,2,1,4,0.392490847842217,0.369822429489725
"1308",20,39,2,1,108,3,2,0,1,0.60351705217392,0.593829429126006
"1309",20,25,2,2,109,1,2,1,4,0.371107095180583,0.392157184270363
"1310",20,32,2,2,110,3,2,1,2,0.694642553374836,0.680281194306369
"1311",20,30,2,2,111,1,1,0,3,0.461341993443375,0.453311453343581
"1312",20,22,2,1,112,2,2,0,3,0.79962494150136,0.855411002988407
"1313",20,28,2,1,113,3,2,0,1,1.60230728044079,1.64838629688592
"1314",20,30,2,1,114,1,1,1,5,0.367798945139201,0.274881540648416
"1315",20,23,2,2,115,2,2,1,3,0.536089207746537,0.591664574212618
"1316",20,38,2,2,116,1,2,1,4,0.399969925413706,0.359664784668046
"1317",20,36,2,1,117,3,2,0,2,0.947249258691367,0.987561474115013
"1318",20,39,2,2,118,2,1,0,3,0.674199557416175,0.565699623399642
"1319",20,25,2,1,119,3,2,0,2,1.01399147650966,0.991565699204749
"1320",20,32,2,2,120,1,2,1,4,0.588815287388056,0.501766395845394
"1321",20,30,2,1,121,1,1,1,5,0.34473269607597,0.380854223582872
"1322",20,22,2,2,122,3,1,0,2,0.815520382819423,0.76059040093953
"1323",20,28,2,1,123,1,1,1,4,0.418447548629996,0.461717250181478
"1324",20,30,2,2,124,2,2,1,3,0.45713743992998,0.442138613006055
"1325",20,23,2,2,125,1,1,0,4,0.461980029706374,0.498190779652989
"1326",20,38,2,1,126,3,1,1,3,0.796095379135023,0.831189679755674
"1327",20,36,2,1,127,3,1,1,3,0.616481381629322,0.531120757435677
"1328",20,39,2,2,128,1,2,1,5,0.329830981063327,0.345667898931281
"1329",20,25,2,1,129,2,2,0,2,0.876376979783033,0.812654468506978
"1330",20,32,2,1,130,3,1,1,2,0.834017480559091,0.909665261056924
"1331",20,30,2,2,131,2,1,0,3,0.717227961649717,0.72619060997347
"1332",20,22,2,2,132,1,2,1,5,0.453303020653923,0.463375671607309
"1333",20,28,2,2,133,3,1,0,1,1.12994863326368,1.07297449376126
"1334",20,30,2,2,134,2,1,0,2,0.661035924286971,0.604090957845178
"1335",20,23,2,1,135,3,2,0,2,0.971956479855856,0.926452458996581
"1336",20,38,2,1,136,1,2,0,4,0.603544499950802,0.602740081805713
"1337",20,36,2,1,137,3,1,1,3,0.764303440028831,0.774201035622169
"1338",20,39,2,2,138,2,2,1,3,0.914045529159515,0.906014698687028
"1339",20,25,2,2,139,1,1,0,4,0.514989297751686,0.578020268830728
"1340",20,32,2,2,140,3,1,0,1,0.886674078388081,0.864715989510898
"1341",20,30,2,1,141,2,1,1,3,0.533286169871286,0.498224776575948
"1342",20,22,2,2,142,3,1,0,1,1.29620374203015,1.30204274538617
"1343",20,28,2,1,143,2,1,1,4,0.526590522640595,0.534317040528751
"1344",20,30,2,1,144,3,1,1,2,0.719374128802757,0.750443801767491
"1345",20,23,2,1,145,3,1,1,3,0.593884037873303,0.630533830298973
"1346",20,38,2,1,146,2,1,1,4,0.770908683809438,0.642401964492957
"1347",20,36,2,1,147,3,2,0,2,0.468319968009257,0.495259963567136
"1348",20,39,2,1,148,2,2,0,3,0.712389089277952,0.667369373937749
"1349",20,25,2,2,149,2,1,0,3,0.406596873316308,0.413974054021561
"1350",20,32,2,2,150,2,1,0,2,0.684115981358407,0.753004819388449
"1351",20,30,2,2,151,3,1,0,1,1.39644156841998,1.36856728589472
"1352",20,22,2,1,152,3,2,0,1,1.52718783331346,1.50966936446919
"1353",20,28,2,1,153,3,2,0,2,0.700166160053915,0.676120410727749
"1354",20,30,2,2,154,1,2,1,5,0.461887999139396,0.366676775456474
"1355",20,23,2,1,155,1,1,1,5,0.518811149468143,0.426752822980165
"1356",20,38,2,2,156,2,2,1,4,0.528782037205776,0.506530703940105
"1357",20,36,2,1,157,3,2,0,2,1.05502131366301,1.1004221460716
"1358",20,39,2,1,158,1,2,0,4,0.336044308113592,0.41617790280371
"1359",20,25,2,2,159,1,2,1,5,0.284544462496152,0.333753003539298
"1360",20,32,2,2,160,1,2,1,5,0.369211395990128,0.294874591072217
"1361",20,30,2,1,161,3,2,0,2,0.960850044139309,1.0086698865793
"1362",20,22,2,2,162,2,1,0,2,0.632540808893116,0.71486353058478
"1363",20,28,2,2,163,1,1,0,3,0.586989613981655,0.487439523485906
"1364",20,30,2,2,164,2,2,1,4,0.622055689868904,0.590426481536318
"1365",20,23,2,2,165,3,1,0,1,0.800228111673437,0.747007862559972
"1366",20,38,2,2,166,1,2,1,5,0.364953135042869,0.365926126616167
"1367",20,36,2,1,167,2,2,0,3,0.692828089821533,0.709459211480404
"1368",20,39,2,1,168,3,2,0,1,1.87069380007407,1.79887762926435
"1369",20,25,2,2,169,1,2,1,5,0.334470798312955,0.341208199813883
"1370",20,32,2,1,170,2,2,0,3,0.805649069185905,0.792795982303576
"1371",20,30,2,1,171,2,2,0,3,0.630837343414868,0.731336227023715
"1372",20,22,2,2,172,1,2,1,5,0.375685975933737,0.28882589941779
"1373",20,28,2,1,173,3,2,0,1,1.42264133768785,1.38787776612997
"1374",20,30,2,2,174,2,2,1,3,0.881384926277528,0.846733985784779
"1375",20,23,2,1,175,1,1,1,4,0.364415374467688,0.393398606496533
"1376",20,38,2,2,176,3,2,1,3,0.714247483962728,0.725826319983775
"1377",20,36,2,1,177,1,1,1,4,0.50697223832801,0.488426204909321
"1378",20,39,2,2,178,1,2,1,5,0.470446379772548,0.520720508037821
"1379",20,25,2,2,179,1,1,0,3,0.302805710066212,0.327375881250063
"1380",20,32,2,1,180,2,1,1,3,0.641061034347969,0.573478456948136
"1381",20,30,2,2,181,1,2,1,4,0.51046455339789,0.527383198895013
"1382",20,22,2,1,182,1,2,0,3,0.62830181800797,0.590796665411401
"1383",20,28,2,2,183,2,1,0,3,0.665447588637465,0.688995300313896
"1384",20,30,2,2,184,2,1,0,2,0.819791482408888,0.795715554083142
"1385",20,23,2,1,185,1,1,1,4,0.41118366608164,0.365297892091126
"1386",20,38,2,2,186,2,2,1,4,0.393893840164372,0.454897356339944
"1387",20,36,2,1,187,1,1,1,4,0.384235364738327,0.353886476358814
"1388",20,39,2,1,188,3,2,0,2,0.810539780384826,0.834666377993805
"1389",20,25,2,2,189,3,2,1,3,0.470487069591442,0.509317950752973
"1390",20,32,2,1,190,2,1,1,3,0.407716832064416,0.39057833501476
"1391",20,30,2,1,191,1,1,1,4,0.371189154353358,0.307937030549234
"1392",20,22,2,1,192,2,1,1,3,0.809587922345055,0.785663102520544
"1393",20,28,2,2,193,2,2,1,3,0.635669514556135,0.557661681862488
"1394",20,30,2,1,194,3,2,0,1,0.80326590887811,0.76415009733885
"1395",20,23,2,2,195,1,2,1,4,0.518275211125332,0.601051323212715
"1396",20,38,2,2,196,3,2,1,2,1.17235383661447,1.21939444779046
"1397",20,36,2,2,197,1,2,1,5,0.429092685566327,0.422750209961274
"1398",20,39,2,2,198,1,2,1,4,0.413709878293393,0.493216983982891
"1399",20,25,2,1,199,3,1,1,2,0.885161741989702,0.815762693680981
"1400",20,32,2,1,200,1,1,1,5,0.222161038669368,0.197470699287885
"1401",20,30,2,1,201,1,1,1,5,0.444566897419657,0.385417524830574
"1402",20,22,2,2,202,3,2,1,2,0.825403471177539,0.758257676227107
"1403",20,28,2,2,203,3,2,1,2,0.581732211013291,0.49463358048759
"1404",20,30,2,2,204,1,2,1,5,0.362869832226446,0.401848795634481
"1405",20,23,2,1,205,2,1,1,4,0.728931796391366,0.675005854778472
"1406",20,38,2,1,206,2,1,1,3,0.569053375835441,0.548127840244989
"1407",20,36,2,1,207,2,2,0,2,0.650946977793333,0.638165133451182
"1408",20,39,2,1,208,2,1,1,3,0.412757310259591,0.476083293196051
"1409",20,25,2,1,209,2,2,0,2,0.844025391104916,0.791461039070774
"1410",20,32,2,2,210,1,2,1,5,0.372619253406727,0.46929535030823
"1411",20,30,2,2,211,3,2,1,2,1.28299060892272,1.26660429040817
"1412",20,22,2,2,212,1,2,1,5,0.518489555491071,0.434760817339015
"1413",20,28,2,2,213,1,2,1,4,0.390537032509979,0.391885178651939
"1414",20,30,2,2,214,3,1,0,2,1.79831448430757,1.90330313081054
"1415",20,23,2,1,215,2,1,1,3,0.849285239204569,0.824722801992718
"1416",20,38,2,2,216,3,2,1,3,0.619615220274735,0.685839463508789
"1417",20,36,2,1,217,2,2,0,2,0.819477695515106,0.820687416863864
"1418",20,39,2,2,218,1,2,1,4,0.377068084889116,0.338909856268806
"1419",20,25,2,2,219,1,2,1,4,0.318095055731774,0.330988268400397
"1420",20,32,2,2,220,3,1,0,1,1.48361148692163,1.51106951858008
"1421",20,30,2,1,221,2,2,0,2,0.622085464814824,0.713906878190114
"1422",20,22,2,2,222,1,2,1,5,0.346173702390003,0.295139836517619
"1423",20,28,2,1,223,3,1,1,2,0.81547301640377,0.805502448636081
"1424",20,30,2,2,224,2,1,0,2,0.865396413076009,0.816244424367312
"1425",20,23,2,2,225,2,1,0,3,0.741368842699043,0.728635509709912
"1426",20,38,2,2,226,2,1,0,3,0.558007639032261,0.563394609656131
"1427",20,36,2,2,227,2,2,1,3,0.582060672499575,0.489871690952589
"1428",20,39,2,1,228,3,1,1,2,0.72129262615069,0.646581757926047
"1429",20,25,2,2,229,2,1,0,3,0.756435823859338,0.656895003606126
"1430",20,32,2,1,230,2,1,1,3,0.572640569769565,0.550815567526403
"1431",20,30,2,2,231,3,2,1,2,0.781756167941832,0.805743026576022
"1432",20,22,2,1,232,3,2,0,1,0.949648117868065,0.99667758363506
"1433",20,28,2,2,233,1,2,1,5,0.421712379705915,0.383496678135818
"1434",20,30,2,1,234,3,1,1,3,0.922428707690597,0.950279844388308
"1435",20,23,2,2,235,2,1,0,2,0.629704683222186,0.685889212423586
"1436",20,38,2,1,236,3,1,1,2,1.1843876342278,1.16142250156979
"1437",20,36,2,1,237,1,1,1,4,0.37380913171017,0.409301455127921
"1438",20,39,2,2,238,1,2,1,5,0.461325955008921,0.495859473809044
"1439",20,25,2,2,239,1,2,1,5,0.53737791564213,0.522479410338257
"1440",20,32,2,1,240,2,1,1,4,0.605188144903941,0.58669954758661
"1441",19,31,1,1,1,2,1,1,4,0.684224684194549,0.559322555237488
"1442",19,39,1,2,2,1,2,1,4,0.224943692015209,0.298618639756188
"1443",19,39,1,2,3,2,2,1,4,0.816127121148196,0.820263980644369
"1444",19,29,1,1,4,2,1,1,3,0.505067976784613,0.474029955367569
"1445",19,29,1,2,5,1,2,1,5,0.449287541540791,0.362451406368672
"1446",19,32,1,2,6,2,2,1,3,0.586610960058194,0.570877189332425
"1447",19,24,1,1,7,3,2,0,1,0.705994734457198,0.704064628803023
"1448",19,36,1,1,8,3,1,1,3,0.623000900181553,0.601676649679935
"1449",19,30,1,2,9,3,2,1,2,0.813861150267281,0.786311876990156
"1450",19,36,1,2,10,1,2,1,4,0.333202309035002,0.326922210446413
"1451",19,31,1,1,11,3,1,1,3,0.78426468839521,0.907641319283084
"1452",19,39,1,2,12,1,2,1,5,0.403101696542534,0.436020199691125
"1453",19,39,1,2,13,1,1,0,4,0.667187639578759,0.636467101383107
"1454",19,29,1,1,14,1,1,1,5,0.434186664946021,0.556054114579033
"1455",19,29,1,2,15,1,2,1,5,0.382765039386157,0.343662740193637
"1456",19,32,1,2,16,1,2,1,4,0.477306557517536,0.450909324801501
"1457",19,24,1,2,17,1,2,1,5,0.461723075337797,0.413831374628073
"1458",19,36,1,2,18,3,2,1,2,0.941948988660609,0.947473417695873
"1459",19,30,1,1,19,2,2,0,2,0.796278932184779,0.83730275780288
"1460",19,36,1,1,20,3,2,0,2,0.626561466225983,0.663801334607281
"1461",19,31,1,1,21,1,1,1,4,0.335286439439385,0.405570225744798
"1462",19,39,1,2,22,3,1,0,2,1.35485037989841,1.29658781182912
"1463",19,39,1,1,23,3,1,1,2,1.11240178067516,1.08292881689244
"1464",19,29,1,2,24,3,2,1,3,0.686714156068954,0.699423323375422
"1465",19,29,1,1,25,2,2,0,3,0.665923216781943,0.745590119691575
"1466",19,32,1,1,26,3,2,0,2,1.22095967025728,1.22701327828635
"1467",19,24,1,2,27,3,1,0,2,0.711787684836971,0.701314549227543
"1468",19,36,1,1,28,1,1,1,4,0.40859464233854,0.400170113964148
"1469",19,30,1,2,29,3,1,0,1,1.01512597902527,1.02529339548216
"1470",19,36,1,1,30,2,1,1,3,0.505368219091508,0.480457205582477
"1471",19,31,1,1,31,2,1,1,4,0.773879522719609,0.779468740609259
"1472",19,39,1,1,32,1,2,0,3,0.678696492321423,0.710211460344342
"1473",19,39,1,1,33,2,1,1,4,0.556264101516318,0.553211454260747
"1474",19,29,1,2,34,3,2,1,3,0.748697156755427,0.805315402174928
"1475",19,29,1,2,35,3,1,0,1,1.59951601073805,1.6460486575545
"1476",19,32,1,2,36,3,2,1,3,0.787480716846919,0.708876052821837
"1477",19,24,1,1,37,1,1,1,5,0.431488921805736,0.435868204034932
"1478",19,36,1,2,38,3,2,1,3,0.331329652472056,0.375761754815654
"1479",19,30,1,1,39,2,1,1,3,0.534133475749175,0.657367933067574
"1480",19,36,1,1,40,1,1,1,4,0.384157543391926,0.330759333806712
"1481",19,31,1,1,41,2,1,1,3,0.606907957303135,0.703756401970935
"1482",19,39,1,1,42,1,1,1,4,0.372049618021333,0.387884723396671
"1483",19,39,1,2,43,2,2,1,3,0.662188013367192,0.631566046490804
"1484",19,29,1,2,44,3,1,0,2,0.713917062462172,0.766022608369464
"1485",19,29,1,1,45,2,1,1,4,0.51926142421623,0.47595553354965
"1486",19,32,1,1,46,2,2,0,2,0.732307514675096,0.765764764211679
"1487",19,24,1,2,47,1,2,1,5,0.433880324405193,0.439202182375747
"1488",19,36,1,1,48,1,1,1,5,0.302582053054259,0.343626485554177
"1489",19,30,1,2,49,2,2,1,4,0.349682222317797,0.26288560850806
"1490",19,36,1,2,50,2,1,0,2,0.518009399713844,0.472839246688458
"1491",19,31,1,2,51,2,2,1,4,0.555302506741363,0.527267121162885
"1492",19,39,1,1,52,3,2,0,2,0.840131788289857,0.807692521190661
"1493",19,39,1,2,53,2,2,1,3,0.621774874354444,0.602078443967551
"1494",19,29,1,2,54,2,2,1,4,0.599663556239344,0.54704028998259
"1495",19,29,1,1,55,3,1,1,2,0.965146966126921,0.956098461871263
"1496",19,32,1,2,56,1,2,1,4,0.429071659436283,0.438824255235735
"1497",19,24,1,1,57,2,2,0,2,0.618184738665514,0.639093150958432
"1498",19,36,1,2,58,3,1,0,1,0.951484303693778,0.930650143285604
"1499",19,30,1,1,59,3,2,0,2,0.746396323707512,0.723723199870494
"1500",19,36,1,1,60,1,1,1,5,0.370381910859887,0.347725186583628
"1501",19,31,1,1,61,2,1,1,3,0.631038655768218,0.552950059233021
"1502",19,39,1,1,62,2,1,1,4,0.589842394374896,0.482290130769562
"1503",19,39,1,1,63,2,1,1,4,0.742272138323444,0.743610976647987
"1504",19,29,1,1,64,1,2,0,3,0.471450403641625,0.393167621327009
"1505",19,29,1,1,65,1,1,1,4,0.403003431727459,0.40121886240771
"1506",19,32,1,1,66,3,1,1,2,0.771484281023982,0.745398757689368
"1507",19,24,1,2,67,3,2,1,3,0.833533845967914,0.869491328428542
"1508",19,36,1,2,68,1,2,1,4,0.414363175000511,0.385854632969234
"1509",19,30,1,1,69,1,2,0,4,0.699218978786691,0.704496149100547
"1510",19,36,1,2,70,1,2,1,4,0.460104899962176,0.520255975129767
"1511",19,31,1,1,71,2,1,1,3,0.688369578925179,0.674627233270394
"1512",19,39,1,1,72,3,2,0,2,0.264852068195128,0.182131642553322
"1513",19,39,1,1,73,2,1,1,4,0.337100538488247,0.371331432402602
"1514",19,29,1,2,74,2,2,1,3,0.552046155884668,0.527446965631628
"1515",19,29,1,1,75,1,2,0,3,0.527464984102374,0.530750940529614
"1516",19,32,1,2,76,3,1,0,2,1.36474774840166,1.35702328586667
"1517",19,24,1,1,77,3,1,1,3,0.822175941871046,0.714294246236616
"1518",19,36,1,1,78,2,2,0,2,0.411147954191659,0.516521510795327
"1519",19,30,1,2,79,3,1,0,2,0.722064307765257,0.720228925045807
"1520",19,36,1,2,80,1,1,0,4,0.48610107231737,0.484012593631078
"1521",19,31,1,1,81,3,2,0,2,0.919554639440359,0.955718087171463
"1522",19,39,1,2,82,1,2,1,5,0.479300309248889,0.435130409159516
"1523",19,39,1,1,83,1,1,1,5,0.324866669318989,0.297397584063734
"1524",19,29,1,1,84,2,2,0,3,0.788872974426654,0.791542731593307
"1525",19,29,1,2,85,1,1,0,4,0.45513433914798,0.419815733473042
"1526",19,32,1,2,86,1,2,1,5,0.334499386833568,0.327788062405177
"1527",19,24,1,2,87,2,1,0,2,0.529818166523449,0.530951896837159
"1528",19,36,1,2,88,2,2,1,3,0.636528213789405,0.659899701497711
"1529",19,30,1,1,89,2,1,1,4,0.595470743903319,0.626166778264797
"1530",19,36,1,2,90,3,1,0,2,0.707366312720227,0.715839981738848
"1531",19,31,1,1,91,3,1,1,3,0.439242846083932,0.449980990208075
"1532",19,39,1,2,92,2,1,0,3,0.939847925373776,0.8504577683105
"1533",19,39,1,2,93,2,2,1,3,0.262332598218744,0.231867327072907
"1534",19,29,1,2,94,2,1,0,2,0.820027253138739,0.836038857348791
"1535",19,29,1,2,95,2,1,0,2,0.841431268043764,0.829485381401466
"1536",19,32,1,2,96,2,1,0,2,0.511431148571603,0.517345457215586
"1537",19,24,1,1,97,1,1,1,4,0.41183457866872,0.370982263551352
"1538",19,36,1,1,98,1,1,1,4,0.505436478258554,0.440220972739673
"1539",19,30,1,2,99,3,1,0,2,1.35064343416929,1.3686114088649
"1540",19,36,1,2,100,3,2,1,3,1.04299953102999,1.05512232830795
"1541",19,31,1,1,101,2,1,1,3,0.552502508396548,0.609474794651157
"1542",19,39,1,1,102,1,1,1,5,0.453352915545171,0.476426648751587
"1543",19,39,1,1,103,3,2,0,1,0.923025632309588,0.879900615931907
"1544",19,29,1,2,104,3,2,1,2,0.795795843368672,0.669833571204058
"1545",19,29,1,2,105,3,1,0,2,1.32618739615771,1.30319103819462
"1546",19,32,1,1,106,1,1,1,4,0.402717085958039,0.348909477359666
"1547",19,24,1,2,107,3,1,0,2,1.49855411186849,1.37374717365167
"1548",19,36,1,2,108,1,2,1,5,0.376349043585915,0.384759956703324
"1549",19,30,1,2,109,3,2,1,2,1.1222964315472,1.0947989495075
"1550",19,36,1,1,110,2,1,1,3,0.812021660818678,0.796813731728868
"1551",19,31,1,1,111,1,1,1,4,0.484200433735146,0.441351241152234
"1552",19,39,1,2,112,2,1,0,2,0.409864468524187,0.398540217675845
"1553",19,39,1,2,113,1,2,1,5,0.307444054867774,0.27781221531458
"1554",19,29,1,2,114,3,1,0,1,1.73986448888108,1.732108994922
"1555",19,29,1,2,115,2,1,0,2,0.666058902291999,0.675492984147593
"1556",19,32,1,2,116,3,2,1,3,1.14502304739743,1.11788097451604
"1557",19,24,1,1,117,1,1,1,5,0.390006594699963,0.451784451960797
"1558",19,36,1,1,118,2,1,1,3,0.706412503132187,0.74153386480398
"1559",19,30,1,1,119,1,2,0,3,0.440431774180736,0.551275645753538
"1560",19,36,1,2,120,1,2,1,5,0.524243015854861,0.457729625585341
"1561",19,31,1,2,121,1,2,1,4,0.373707757700136,0.332109182715002
"1562",19,39,1,1,122,1,1,1,4,0.362985021361567,0.381937609417667
"1563",19,39,1,2,123,3,1,0,2,0.936453952139737,0.861114911975223
"1564",19,29,1,2,124,3,1,0,1,1.32093998584285,1.26670901528546
"1565",19,29,1,1,125,1,1,1,4,0.300948056004084,0.239212369319616
"1566",19,32,1,2,126,3,1,0,1,1.75748441682464,1.76774473464809
"1567",19,24,1,1,127,2,2,0,2,0.588739043170277,0.514632851590544
"1568",19,36,1,2,128,1,2,1,5,0.341464115207942,0.339106730174464
"1569",19,30,1,1,129,2,1,1,4,0.363329985352366,0.345298910989445
"1570",19,36,1,1,130,2,2,0,2,0.655733361504222,0.698836930944897
"1571",19,31,1,2,131,2,1,0,3,0.26150321191576,0.295054542688009
"1572",19,39,1,2,132,2,1,0,2,0.831309715629147,0.817581061810393
"1573",19,39,1,2,133,3,2,1,3,0.462405597962697,0.490378217348035
"1574",19,29,1,2,134,3,2,1,2,0.700024153299266,0.794621713387983
"1575",19,29,1,1,135,3,2,0,1,0.990800457889074,0.936415649271894
"1576",19,32,1,2,136,2,2,1,3,0.7207456106999,0.711109420422653
