"","subj_no","age","group","stim","trial","difficulty","resp","corr","conf","RT_day1","RT_day2"
"1",26,33,2,2,1,3,1,0,2,1.21217282098451,1.20674457200049
"2",26,32,2,1,2,3,1,1,3,1.20174832507335,1.16409347671695
"3",26,35,2,2,3,3,1,0,2,-0.405198607446584,-0.39562868051124
"4",26,27,2,1,4,2,2,0,2,0.50056376952164,0.4628869003573
"5",26,25,2,2,5,3,1,0,2,1.63183394123412,1.63369156431567
"6",26,32,2,2,6,3,2,1,2,1.08296438290549,1.03741090916372
"7",26,30,2,2,7,3,1,0,2,1.38760152745229,1.39770225191405
"8",26,30,2,1,8,1,1,1,5,0.3863431093424,0.350034443876084
"9",26,24,2,2,9,3,2,1,3,0.824290616088376,0.824628582155244
"10",26,32,2,1,10,1,1,1,5,0.325689554996056,0.297629002705427
"11",26,33,2,2,11,1,1,0,4,0.4775569818244,0.559084619022501
"12",26,32,2,1,12,2,2,0,3,0.988519764548895,0.932849414037094
"13",26,35,2,2,13,1,2,1,4,0.328399383732017,0.35121359426466
"14",26,27,2,2,14,2,1,0,2,0.741045386461972,0.717606057774293
"15",26,25,2,2,15,1,1,0,4,0.581108215912744,0.586541968075419
"16",26,32,2,2,16,3,2,1,2,0.976059192738724,0.952431605578556
"17",26,30,2,2,17,1,2,1,4,0.344580239198593,0.293142321026453
"18",26,30,2,1,18,1,2,0,3,0.872185329701073,0.844928058626822
"19",26,24,2,2,19,1,2,1,5,0.371193642795168,0.321948767648325
"20",26,32,2,2,20,1,2,1,4,0.565819892853177,0.611286330345258
"21",26,33,2,2,21,3,2,1,2,1.13841158271477,1.09199216578018
"22",26,32,2,2,22,1,2,1,5,0.390194821950476,0.396619264273871
"23",26,35,2,1,23,2,2,0,2,0.799670132694442,0.835277470972857
"24",26,27,2,2,24,3,2,1,3,0.94475422353555,0.896474291333543
"25",26,25,2,2,25,2,2,1,3,0.759242642857382,0.750689064056515
"26",26,32,2,2,26,1,2,1,4,0.406536693051884,0.522572962919241
"27",26,30,2,1,27,1,1,1,4,0.378556139457291,0.36333224033903
"28",26,30,2,2,28,3,1,0,2,1.33312970487061,1.29305940626041
"29",26,24,2,2,29,3,2,1,3,0.59944965797774,0.534958740665048
"30",26,32,2,2,30,2,1,0,2,0.909675991557323,0.856939397855579
"31",26,33,2,2,31,3,1,0,1,0.764953689113665,0.807449787665516
"32",26,32,2,1,32,3,2,0,2,1.21744104543251,1.27025843578054
"33",26,35,2,2,33,3,1,0,2,0.855453861852686,0.892412171010617
"34",26,27,2,1,34,1,1,1,4,0.367213654209825,0.342695019200888
"35",26,25,2,2,35,1,1,0,3,0.589774467746083,0.575992640772013
"36",26,32,2,1,36,1,1,1,5,0.362612637578332,0.371654617440093
"37",26,30,2,1,37,3,2,0,2,1.09779449794177,1.12609443340076
"38",26,30,2,1,38,2,1,1,4,0.699261364003403,0.728535570049937
"39",26,24,2,2,39,3,1,0,1,0.592296592770313,0.558330339610737
"40",26,32,2,1,40,2,2,0,2,0.7048240275935,0.656196985155287
"41",26,33,2,2,41,3,2,1,3,0.5361775750149,0.459345212532068
"42",26,32,2,2,42,1,1,0,3,0.713687353722507,0.661253265831101
"43",26,35,2,1,43,3,1,1,3,0.7201919198661,0.688485317514152
"44",26,27,2,1,44,3,1,1,3,1.07443888154993,1.10535475453101
"45",26,25,2,1,45,3,2,0,2,0.422910539682404,0.402952747488442
"46",26,32,2,1,46,1,1,1,4,0.385011031611713,0.465161169621579
"47",26,30,2,1,47,1,1,1,5,0.398040574675662,0.415845857074875
"48",26,30,2,1,48,3,1,1,3,0.740715487149139,0.849005927170457
"49",26,24,2,2,49,3,1,0,2,0.589369288363323,0.617707397959611
"50",26,32,2,2,50,2,1,0,3,0.722416358454501,0.78619391062444
"51",26,33,2,1,51,2,1,1,3,0.419520413591171,0.42838607311903
"52",26,32,2,2,52,1,2,1,4,0.301266379587859,0.301643037407295
"53",26,35,2,2,53,3,2,1,3,0.60497566646656,0.555518204140806
"54",26,27,2,2,54,2,2,1,3,0.638074194042579,0.639550728522179
"55",26,25,2,2,55,3,2,1,2,0.715498633480468,0.625541571832194
"56",26,32,2,1,56,2,1,1,3,0.811344930644359,0.723451460153057
"57",26,30,2,2,57,2,2,1,3,0.854568936861912,0.824805871151452
"58",26,30,2,2,58,1,2,1,5,0.458842351730944,0.54999315782443
"59",26,24,2,2,59,3,1,0,1,1.8117778291187,1.79023669046249
"60",26,32,2,2,60,2,1,0,3,0.799195836291296,0.786985449204275
"61",26,33,2,2,61,2,2,1,3,0.610257582276065,0.582379211193304
"62",26,32,2,2,62,1,2,1,4,0.270591980567914,0.218767674670091
"63",26,35,2,2,63,2,1,0,2,0.819407675650553,0.821285340778318
"64",26,27,2,1,64,2,1,1,3,0.366041085855912,0.360375119319682
"65",26,25,2,1,65,1,1,1,5,0.278281233104832,0.285519669754704
"66",26,32,2,2,66,2,2,1,3,0.73089878534016,0.744615389322469
"67",26,30,2,1,67,3,1,1,2,0.787582810614222,0.835183930976915
"68",26,30,2,2,68,1,2,1,5,0.358470379649554,0.41732206065798
"69",26,24,2,2,69,1,1,0,4,0.411236018619288,0.480443436445874
"70",26,32,2,1,70,3,2,0,1,1.33381289584598,1.20896445001299
"71",26,33,2,2,71,1,1,0,4,0.411111319849962,0.391166410780095
"72",26,32,2,2,72,2,2,1,3,0.846650065466159,0.80630504503726
"73",26,35,2,1,73,1,2,0,4,0.794335798647071,0.77537041575489
"74",26,27,2,2,74,2,1,0,3,0.672293368022088,0.652565287567559
"75",26,25,2,1,75,1,1,1,4,0.379929177911479,0.429507219013873
"76",26,32,2,2,76,1,1,0,3,0.613714681329252,0.654957503866783
"77",26,30,2,2,77,3,2,1,2,0.66128182736891,0.730012186927966
"78",26,30,2,2,78,3,1,0,2,0.637061191602452,0.627907771301314
"79",26,24,2,2,79,3,1,0,1,1.01448141581008,1.02490378860256
"80",26,32,2,1,80,3,1,1,2,0.829008584315869,0.829232037915885
"81",26,33,2,1,81,2,2,0,2,0.770311323832344,0.752845248153318
"82",26,32,2,1,82,1,1,1,4,0.434637907757728,0.492773112469269
"83",26,35,2,2,83,1,2,1,5,0.445911407750725,0.464926813564615
"84",26,27,2,2,84,2,1,0,2,0.764403439994887,0.835173201920491
"85",26,25,2,2,85,1,2,1,5,0.424469669486966,0.452224265933006
"86",26,32,2,2,86,3,1,0,1,1.54843959046099,1.49661764595312
"87",26,30,2,2,87,2,2,1,4,0.62732271339504,0.67633276517239
"88",26,30,2,1,88,3,2,0,1,0.696524079222421,0.726599241330326
"89",26,24,2,1,89,2,2,0,2,0.629881221364629,0.631950874764611
"90",26,32,2,2,90,2,1,0,2,0.659407160176442,0.62055865413278
"91",26,33,2,2,91,3,2,1,3,0.993365233368713,1.02719628014773
"92",26,32,2,2,92,2,1,0,3,0.765004726999585,0.804316128451617
"93",26,35,2,2,93,3,1,0,2,0.848402431301686,0.798568394048455
"94",26,27,2,2,94,2,2,1,3,0.520536799066677,0.515076693087658
"95",26,25,2,2,95,2,2,1,4,0.659606100358289,0.68573157659625
"96",26,32,2,2,96,3,2,1,2,0.835161434402791,0.901230733807622
"97",26,30,2,2,97,3,1,0,2,1.38626131743163,1.41731429707648
"98",26,30,2,1,98,2,2,0,3,0.620583744355614,0.598196559562218
"99",26,24,2,1,99,3,2,0,1,1.21566745010652,1.19946332378376
"100",26,32,2,2,100,1,2,1,4,0.353460030316926,0.359728838449027
"101",26,33,2,1,101,1,1,1,5,0.570210288342335,0.579043650666485
"102",26,32,2,1,102,2,1,1,4,0.48128017594036,0.480723340297133
"103",26,35,2,1,103,1,1,1,5,0.338522172322134,0.368255005481282
"104",26,27,2,1,104,3,1,1,2,0.457394458798711,0.482111388427146
"105",26,25,2,2,105,2,1,0,3,0.849169484332965,0.872130710296986
"106",26,32,2,2,106,3,1,0,2,0.881244594158158,0.862821997299263
"107",26,30,2,2,107,1,2,1,4,0.430976585943556,0.533412696732087
"108",26,30,2,1,108,1,1,1,4,0.507543221776898,0.569679089810958
"109",26,24,2,2,109,3,1,0,2,0.832865276498824,0.772856280825267
"110",26,32,2,2,110,2,2,1,3,0.540342869483765,0.575801114554023
"111",26,33,2,2,111,2,2,1,3,0.726724063726242,0.788066391947956
"112",26,32,2,1,112,1,1,1,4,0.45013221160554,0.520850356116105
"113",26,35,2,1,113,1,1,1,5,0.345614733008588,0.322660314066077
"114",26,27,2,2,114,2,2,1,3,0.677425560610789,0.635402032050874
"115",26,25,2,1,115,3,1,1,2,0.898897304559215,0.893191145860013
"116",26,32,2,1,116,1,1,1,4,0.422897203028571,0.341000579989281
"117",26,30,2,1,117,1,1,1,5,0.44747610666775,0.443229519934965
"118",26,30,2,2,118,2,2,1,3,0.726878719453325,0.708232775405563
"119",26,24,2,1,119,3,2,0,1,0.826979501840851,0.950394917679591
"120",26,32,2,2,120,1,2,1,5,0.421303863684618,0.430014217559368
"121",26,33,2,2,121,1,1,0,3,0.491436590033491,0.534507345701004
"122",26,32,2,1,122,1,1,1,4,0.374338442117467,0.442371686545746
"123",26,35,2,1,123,3,2,0,2,0.735192722592426,0.750383072697302
"124",26,27,2,2,124,2,1,0,2,0.659431468247558,0.588462978548453
"125",26,25,2,1,125,3,1,1,3,0.748132958725783,0.765718896485217
"126",26,32,2,2,126,1,1,0,3,0.499439579012873,0.538274476760142
"127",26,30,2,1,127,1,1,1,5,0.473185616756473,0.445866714725168
"128",26,30,2,1,128,3,2,0,1,0.612834327136041,0.583386954634079
"129",26,24,2,2,129,2,1,0,2,0.64425414453686,0.702870137313986
"130",26,32,2,2,130,1,2,1,5,0.271566839103838,0.239592093669797
"131",26,33,2,1,131,3,1,1,2,0.632765907418039,0.603620449870059
"132",26,32,2,1,132,2,2,0,2,0.879679001069143,0.855394413440484
"133",26,35,2,1,133,2,1,1,4,0.277349919501331,0.246121987794024
"134",26,27,2,1,134,3,1,1,3,0.78100501324435,0.758464901167339
"135",26,25,2,1,135,1,1,1,5,0.511883989895339,0.427048853355443
"136",26,32,2,1,136,1,2,0,3,0.597694659885061,0.591948434621971
"137",26,30,2,1,137,3,2,0,2,0.383732664414817,0.366968295495604
"138",26,30,2,2,138,3,1,0,1,0.62795930620425,0.548012298766619
"139",26,24,2,1,139,1,1,1,4,0.331218801643615,0.22112772998623
"140",26,32,2,2,140,2,2,1,3,0.570601427574974,0.477551642753595
"141",26,33,2,1,141,3,2,0,1,1.04857322057303,1.03970014332688
"142",26,32,2,1,142,1,1,1,4,0.259091730936312,0.224130284897372
"143",26,35,2,2,143,1,1,0,4,0.832250925748586,0.812933318030565
"144",26,27,2,2,144,3,1,0,1,2.12928228618921,2.12283912511795
"145",26,25,2,1,145,1,1,1,4,0.310482921437228,0.226495806214897
"146",26,32,2,1,146,3,2,0,1,1.33821536122596,1.23616549945568
"147",26,30,2,1,147,3,1,1,2,0.955716378099989,0.873165598919149
"148",26,30,2,2,148,2,2,1,3,0.405465839167374,0.488797637161589
"149",26,24,2,1,149,1,1,1,5,0.353285011122378,0.326996689247854
"150",26,32,2,2,150,2,1,0,3,0.641074601733519,0.62390521697524
"151",26,33,2,1,151,1,1,1,5,0.529034290862783,0.494379269297981
"152",26,32,2,1,152,2,2,0,3,0.609636015687143,0.656247003279045
"153",26,35,2,2,153,2,2,1,4,0.441218835475654,0.439594468083649
"154",26,27,2,1,154,3,1,1,2,0.876308351473316,0.777185439367704
"155",26,25,2,2,155,2,2,1,4,0.666527989779204,0.745104727412481
"156",26,32,2,1,156,2,2,0,2,0.946852380500072,0.869154808744638
"157",26,30,2,2,157,3,1,0,2,1.44082002806992,1.47767256942854
"158",26,30,2,1,158,3,1,1,3,0.616446863547327,0.564897460106505
"159",26,24,2,2,159,2,2,1,3,0.591313888827171,0.615347333435162
"160",26,32,2,1,160,1,1,1,4,0.364374136668289,0.356584038783603
"161",26,33,2,1,161,2,2,0,3,0.761391296554414,0.721347478643233
"162",26,32,2,1,162,2,1,1,4,0.687364814586905,0.749302045274563
"163",26,35,2,2,163,1,1,0,3,0.539128157118717,0.563744279378694
"164",26,27,2,1,164,2,1,1,3,0.360748628701005,0.290015306307419
"165",26,25,2,2,165,2,1,0,2,0.849124594813021,0.789592803833085
"166",26,32,2,1,166,2,2,0,2,0.73910381653335,0.758470473810221
"167",26,30,2,1,167,2,2,0,2,0.707447040270108,0.689440629676891
"168",26,30,2,2,168,1,2,1,5,0.396126443798874,0.421941743565771
"169",26,24,2,1,169,3,2,0,2,0.390403541359127,0.439505806050496
"170",26,32,2,1,170,1,1,1,5,0.383790821807405,0.296396067780033
"171",26,33,2,2,171,2,2,1,3,0.804455857154693,0.790794754065747
"172",26,32,2,2,172,3,1,0,1,1.08271572385399,1.02985365493548
"173",26,35,2,1,173,3,2,0,1,1.34417528821923,1.36718576295008
"174",26,27,2,1,174,2,1,1,3,0.686159369828264,0.695858518564221
"175",26,25,2,1,175,3,2,0,1,1.81644386844222,1.82625392669747
"176",26,32,2,2,176,3,1,0,2,1.43299599412478,1.35383395548522
"177",26,30,2,1,177,2,2,0,2,1.01197424558756,0.97217683889836
"178",26,30,2,1,178,2,1,1,4,0.475964297319286,0.496567860957695
"179",26,24,2,1,179,2,2,0,3,0.930357390291468,0.915473822012579
"180",26,32,2,2,180,1,2,1,5,0.243074441205917,0.16917748588273
"181",26,33,2,1,181,2,1,1,3,0.360702837282451,0.324860843257956
"182",26,32,2,1,182,3,1,1,3,0.913825378747698,0.925910319346296
"183",26,35,2,1,183,1,1,1,5,0.47170097918873,0.445066640160224
"184",26,27,2,1,184,1,2,0,3,0.499207441951101,0.509677983978116
"185",26,25,2,1,185,1,1,1,5,0.450409116477519,0.417621399335838
"186",26,32,2,1,186,2,2,0,3,0.708229842523607,0.703268815383411
"187",26,30,2,2,187,2,2,1,4,0.585782011280075,0.603499618462647
"188",26,30,2,2,188,3,2,1,2,0.781274111197533,0.803861613806282
"189",26,24,2,2,189,1,2,1,5,0.572056495343,0.575234220626343
"190",26,32,2,1,190,3,2,0,2,1.01136796250682,1.07949484486506
"191",26,33,2,2,191,1,2,1,5,0.338608701874922,0.313343008090477
"192",26,32,2,1,192,3,1,1,3,0.829811947781825,0.889764357275257
"193",26,35,2,2,193,1,2,1,5,0.481010553232838,0.526485492100181
"194",26,27,2,1,194,3,2,0,2,0.625809614841143,0.590074212855315
"195",26,25,2,1,195,2,1,1,3,0.567937176210503,0.601416284099535
"196",26,32,2,1,196,2,1,1,3,0.715340157235963,0.660551337720164
"197",26,30,2,1,197,3,1,1,3,0.587797457054324,0.58395696221073
"198",26,30,2,1,198,2,2,0,2,0.654571203559904,0.658531741271089
"199",26,24,2,1,199,2,1,1,3,0.595738519694128,0.586270099791101
"200",26,32,2,1,200,1,1,1,4,0.501349780307618,0.557526978650121
"201",26,33,2,1,201,1,1,1,4,0.363209207189183,0.376581858779398
"202",26,32,2,1,202,1,1,1,4,0.521016271071501,0.538903083277035
"203",26,35,2,1,203,3,2,0,1,1.05053252641171,0.985295832437443
"204",26,27,2,1,204,1,1,1,5,0.379443941444031,0.351871774698564
"205",26,25,2,2,205,1,1,0,4,0.69100513290611,0.683531093845949
"206",26,32,2,2,206,1,2,1,5,0.51341433309346,0.474804178741428
"207",26,30,2,1,207,2,2,0,3,0.412092543237604,0.465550109839698
"208",26,30,2,2,208,3,2,1,2,0.580256523616308,0.548379243381642
"209",26,24,2,2,209,2,1,0,3,0.8955214084375,0.886982106996377
"210",26,32,2,2,210,1,2,1,5,0.46866946513782,0.485450554535961
"211",26,33,2,1,211,1,1,1,5,0.435822230718181,0.384558380637166
"212",26,32,2,1,212,3,1,1,2,1.26709597046261,1.37856663769703
"213",26,35,2,2,213,2,2,1,3,0.652066982997073,0.61769289991907
"214",26,27,2,1,214,1,1,1,4,0.501677706112997,0.471837991283159
"215",26,25,2,1,215,1,1,1,4,0.277899143517743,0.351787165626043
"216",26,32,2,2,216,2,2,1,4,0.949353133812621,0.939107215461771
"217",26,30,2,1,217,1,1,1,5,0.465550573894732,0.430007671055657
"218",26,30,2,2,218,2,2,1,3,0.447570463128256,0.412088873465212
"219",26,24,2,2,219,1,2,1,5,0.220775559798465,0.169269926914601
"220",26,32,2,1,220,3,2,0,1,0.913655153905544,1.01533531150442
"221",26,33,2,1,221,2,1,1,3,0.461239461738317,0.483053950709167
"222",26,32,2,1,222,2,1,1,3,0.647001795499687,0.677331509641907
"223",26,35,2,1,223,2,2,0,2,0.705736574355906,0.768958190130309
"224",26,27,2,2,224,1,2,1,4,0.394265382250213,0.347711271112958
"225",26,25,2,1,225,3,1,1,2,0.85059224107062,0.829617961157777
"226",26,32,2,2,226,2,2,1,3,0.822626116026468,0.792460747464237
"227",26,30,2,2,227,2,2,1,4,0.666463681614854,0.663970976816243
"228",26,30,2,1,228,1,1,1,4,0.391976061810795,0.445311240955567
"229",26,24,2,2,229,3,2,1,2,0.966067391414825,1.0938047941796
"230",26,32,2,1,230,2,1,1,3,0.44720268176894,0.366135366099
"231",26,33,2,1,231,3,1,1,3,0.823602265242048,0.765492605133571
"232",26,32,2,2,232,3,2,1,2,0.818815844829024,0.772818801580526
"233",26,35,2,2,233,3,2,1,2,0.965583172994755,0.954231482692022
"234",26,27,2,1,234,2,1,1,4,0.488399131497278,0.49965746635131
"235",26,25,2,2,235,2,2,1,3,0.731511579002178,0.775830864339115
"236",26,32,2,2,236,3,1,0,2,0.659070741670665,0.567893113387305
"237",26,30,2,1,237,2,1,1,3,0.655139918604189,0.678857015181346
"238",26,30,2,2,238,2,2,1,3,0.447862494940819,0.510134590247884
"239",26,24,2,2,239,1,2,1,5,0.336486244768259,0.416338970835268
"240",26,32,2,1,240,3,2,0,2,0.99275614509125,0.959103004426489
"241",25,31,1,2,1,2,2,1,3,0.67805154528474,0.711624653794656
"242",25,26,1,1,2,2,1,1,3,0.383679322290283,0.315455508475476
"243",25,28,1,2,3,1,2,1,5,0.514014256695182,0.442554786039049
"244",25,21,1,1,4,2,1,1,3,0.711955088643423,0.796769443006193
"245",25,26,1,2,5,3,1,0,1,1.15844276984974,1.07667952568262
"246",25,27,1,1,6,1,1,1,5,0.380229223788286,0.394711179331731
"247",25,35,1,1,7,1,1,1,5,0.275163883338054,0.252478951648638
"248",25,29,1,1,8,1,1,1,4,0.492166232629775,0.519439131515032
"249",25,27,1,1,9,2,2,0,2,0.820884492952669,0.799510863468827
"250",25,30,1,1,10,1,1,1,5,0.421557866378046,0.425698154798183
"251",25,31,1,2,11,2,2,1,4,0.430862054716731,0.442907372257997
"252",25,26,1,2,12,2,1,0,3,0.554567169400177,0.537254909803747
"253",25,28,1,1,13,2,2,0,3,0.730742784484471,0.654061852827709
"254",25,21,1,1,14,1,1,1,4,0.406726394894324,0.4528301363779
"255",25,26,1,1,15,3,2,0,1,1.92124978792158,1.95092791212625
"256",25,27,1,2,16,1,1,0,3,0.487349863211348,0.552416512772826
"257",25,35,1,1,17,2,1,1,4,0.701097149428262,0.696538997354488
"258",25,29,1,1,18,2,1,1,4,0.605004680555311,0.556013078342424
"259",25,27,1,2,19,1,2,1,4,0.474018464033637,0.467818746168913
"260",25,30,1,1,20,2,1,1,3,0.562308227922782,0.546448877565318
"261",25,31,1,2,21,1,2,1,4,0.210444414535001,0.236386827878457
"262",25,26,1,2,22,1,2,1,5,0.448676627456429,0.380900829013447
"263",25,28,1,2,23,1,2,1,5,0.476128136854205,0.395773581275444
"264",25,21,1,1,24,2,1,1,3,0.524826654902373,0.507355551861197
"265",25,26,1,1,25,3,2,0,1,1.61221913416179,1.6391298663242
"266",25,27,1,2,26,2,1,0,3,0.828045612467319,0.855245812139426
"267",25,35,1,1,27,3,1,1,3,0.986633065212446,0.989991342978852
"268",25,29,1,2,28,3,2,1,3,0.892466162081646,0.935086969237812
"269",25,27,1,2,29,3,1,0,1,0.690904212754827,0.724228338744472
"270",25,30,1,1,30,2,1,1,4,0.493495063358907,0.383487040305466
"271",25,31,1,2,31,3,2,1,3,1.02590465067875,0.978128814333739
"272",25,26,1,2,32,1,2,1,4,0.297556839624658,0.262213053863107
"273",25,28,1,1,33,3,1,1,2,0.751924308446656,0.80349700022085
"274",25,21,1,2,34,3,1,0,2,1.48467542946604,1.57394871697952
"275",25,26,1,1,35,2,1,1,3,0.662467864976735,0.771582391989772
"276",25,27,1,2,36,3,2,1,2,1.04914249150769,1.05312439324032
"277",25,35,1,2,37,1,2,1,5,0.484809543841334,0.544981389986427
"278",25,29,1,1,38,3,1,1,2,0.72987690242809,0.785620925166249
"279",25,27,1,1,39,3,2,0,1,0.820236612103195,0.824732972887241
"280",25,30,1,1,40,1,1,1,4,0.427273116815416,0.499709064356774
"281",25,31,1,2,41,2,1,0,2,0.84901827957421,0.827548616443934
"282",25,26,1,1,42,2,1,1,4,0.815769810286225,0.798446449773762
"283",25,28,1,2,43,1,2,1,4,0.268660186669823,0.216854673452907
"284",25,21,1,2,44,3,1,0,1,1.0373957952377,1.05891766501619
"285",25,26,1,2,45,1,2,1,5,0.362650272693509,0.406129627266942
"286",25,27,1,1,46,3,2,0,2,0.652645359730803,0.648353554473123
"287",25,35,1,2,47,3,1,0,1,0.789429919129715,0.819747521020572
"288",25,29,1,1,48,2,2,0,2,0.531931011205576,0.53584610032803
"289",25,27,1,1,49,2,1,1,4,0.620935822571754,0.582307460488641
"290",25,30,1,2,50,2,2,1,4,0.494167412415488,0.593785058353029
"291",25,31,1,2,51,3,1,0,1,1.25422848145847,1.26366184602268
"292",25,26,1,1,52,1,1,1,4,0.467105861828716,0.528534792908783
"293",25,28,1,1,53,3,1,1,2,0.892697666689584,0.85247107656544
"294",25,21,1,1,54,1,1,1,5,0.464740210657972,0.451190308043001
"295",25,26,1,1,55,3,2,0,2,1.26300473317268,1.2229005737235
"296",25,27,1,1,56,3,2,0,1,0.927952741342898,0.92333233838959
"297",25,35,1,2,57,2,2,1,3,0.541474688946605,0.566605502309343
"298",25,29,1,1,58,1,1,1,4,0.418134513083979,0.46196675180341
"299",25,27,1,1,59,3,2,0,2,1.23713606331609,1.22423224300759
"300",25,30,1,2,60,3,2,1,3,0.737448524018961,0.744830345723805
"301",25,31,1,1,61,3,1,1,2,0.710309212829576,0.672971886364206
"302",25,26,1,2,62,2,2,1,4,0.547189894003891,0.550295559490292
"303",25,28,1,1,63,2,2,0,3,0.507626348986023,0.588363859312615
"304",25,21,1,1,64,1,1,1,4,0.538790073400698,0.483934615389866
"305",25,26,1,1,65,2,1,1,3,0.398042346155647,0.409640737417104
"306",25,27,1,1,66,1,1,1,4,0.501423238171359,0.497766985222277
"307",25,35,1,1,67,3,2,0,2,0.926977798030949,0.972415901984672
"308",25,29,1,2,68,2,2,1,4,0.522550222516415,0.452906580138855
"309",25,27,1,2,69,3,2,1,2,0.808165056766505,0.782314395789522
"310",25,30,1,1,70,1,1,1,4,0.39446681574444,0.3805761751357
"311",25,31,1,1,71,2,1,1,4,0.77610770380651,0.751842607179982
"312",25,26,1,2,72,1,2,1,4,0.323889641309548,0.325945387002456
"313",25,28,1,1,73,1,2,0,4,0.576104896501543,0.552741756905069
"314",25,21,1,1,74,3,1,1,2,1.24244693837559,1.25838960039052
"315",25,26,1,1,75,3,1,1,2,0.996739634239172,1.09229920648602
"316",25,27,1,2,76,3,1,0,1,1.18091914050442,1.0963348385337
"317",25,35,1,1,77,1,1,1,5,0.369492725596444,0.409943263360509
"318",25,29,1,2,78,2,2,1,4,0.644174790214127,0.601476406235456
"319",25,27,1,1,79,1,1,1,4,0.372159701780923,0.352177446289422
"320",25,30,1,2,80,3,1,0,2,0.717997045576531,0.797270488228965
"321",25,31,1,1,81,3,1,1,3,0.897535809145022,0.757496036501642
"322",25,26,1,2,82,3,1,0,2,1.06148810714347,1.07366177791777
"323",25,28,1,1,83,2,1,1,3,0.578684449510251,0.637027119027773
"324",25,21,1,1,84,1,1,1,5,0.40912617500333,0.459441615245639
"325",25,26,1,2,85,1,2,1,5,0.435406547100882,0.314651347213669
"326",25,27,1,2,86,2,2,1,3,0.527329007871557,0.550179981352295
"327",25,35,1,2,87,2,2,1,4,0.475401571055409,0.408902462743332
"328",25,29,1,1,88,3,2,0,1,0.897032719707736,0.884090876906257
"329",25,27,1,1,89,1,1,1,4,0.486942701225585,0.446694115402076
"330",25,30,1,2,90,1,2,1,4,0.275808017697868,0.323899436545326
"331",25,31,1,2,91,2,2,1,3,0.700922550250969,0.673282436295107
"332",25,26,1,2,92,1,2,1,4,0.509672446123704,0.503206310343626
"333",25,28,1,1,93,1,1,1,4,0.40356992010374,0.355785847803635
"334",25,21,1,2,94,2,2,1,3,0.822820577363644,0.816935301771237
"335",25,26,1,2,95,2,2,1,3,0.559695774293056,0.529774772072448
"336",25,27,1,2,96,2,2,1,3,0.408208371532483,0.390372643417489
"337",25,35,1,1,97,3,1,1,3,0.592514685542784,0.576725923817412
"338",25,29,1,1,98,2,2,0,3,0.922700675581131,0.938718004820606
"339",25,27,1,2,99,1,2,1,5,0.254588299072052,0.27940328936516
"340",25,30,1,2,100,2,2,1,4,0.518745579043453,0.580034967916479
"341",25,31,1,2,101,3,2,1,3,0.494475766742269,0.56590759935202
"342",25,26,1,2,102,2,2,1,3,0.70163052679514,0.745416494356352
"343",25,28,1,2,103,3,1,0,2,0.949901495971569,0.99037856850522
"344",25,21,1,2,104,2,2,1,3,0.348930677196049,0.35453996345337
"345",25,26,1,2,105,1,1,0,3,0.557411634630831,0.473639670178577
"346",25,27,1,2,106,2,1,0,2,0.79589542815878,0.83792027997852
"347",25,35,1,2,107,3,1,0,1,1.18159932042202,1.20480569637446
"348",25,29,1,2,108,3,2,1,2,1.07096529141466,1.06306853526817
"349",25,27,1,2,109,1,1,0,4,0.593491050957185,0.503761026835584
"350",25,30,1,2,110,1,1,0,3,0.489452515649142,0.448982476583485
"351",25,31,1,1,111,3,1,1,2,1.11616686305667,1.19803143184467
"352",25,26,1,2,112,2,2,1,4,0.657016486178227,0.680802126894566
"353",25,28,1,1,113,1,1,1,4,0.441092332817738,0.369711653125778
"354",25,21,1,1,114,1,2,0,3,0.515667675202262,0.415196529698772
"355",25,26,1,1,115,2,2,0,2,0.77185843356328,0.850162519425746
"356",25,27,1,1,116,3,1,1,3,0.716449663193091,0.661297729644024
"357",25,35,1,1,117,3,1,1,3,0.701254016494804,0.622631745264687
"358",25,29,1,1,118,1,1,1,5,0.480157108730148,0.536414044177745
"359",25,27,1,2,119,3,2,1,2,0.931401324033934,0.89869666883693
"360",25,30,1,2,120,1,2,1,4,0.525506479020399,0.459120726957295
"361",25,31,1,2,121,2,2,1,4,0.535972567714917,0.530658717945714
"362",25,26,1,2,122,2,1,0,3,0.684666014408054,0.723175178355696
"363",25,28,1,2,123,2,2,1,4,0.640941571976295,0.609850063233773
"364",25,21,1,1,124,2,2,0,3,0.697043628135338,0.729986700635883
"365",25,26,1,2,125,1,2,1,4,0.300265389407376,0.225915035246468
"366",25,27,1,2,126,3,2,1,2,0.990796382751742,0.990997433136409
"367",25,35,1,2,127,3,1,0,1,1.17277912951791,1.1565343874458
"368",25,29,1,1,128,1,1,1,5,0.464526973476712,0.414312229305207
"369",25,27,1,1,129,3,1,1,3,1.14392384712861,1.15983834715458
"370",25,30,1,2,130,1,2,1,4,0.365284183763973,0.343550493085779
"371",25,31,1,2,131,2,1,0,3,0.780892896617206,0.743914044580374
"372",25,26,1,1,132,3,1,1,2,1.09128210232493,1.08648184880399
"373",25,28,1,2,133,1,2,1,4,0.312661587495194,0.252122594016607
"374",25,21,1,1,134,3,1,1,2,1.00618432432695,1.00242240913908
"375",25,26,1,1,135,2,1,1,4,0.848233724147461,0.852813054659
"376",25,27,1,1,136,2,1,1,4,0.616485338119067,0.546813489313067
"377",25,35,1,1,137,3,1,1,3,1.12395441999558,1.1213734035022
"378",25,29,1,1,138,3,1,1,3,0.268913938338068,0.371977849085656
"379",25,27,1,1,139,1,1,1,5,0.458589156441307,0.463154933319849
"380",25,30,1,2,140,1,2,1,5,0.37778209295879,0.349109579649879
"381",25,31,1,1,141,1,1,1,5,0.462627429575352,0.423355572582621
"382",25,26,1,2,142,3,2,1,2,0.721340852726712,0.698689220093045
"383",25,28,1,2,143,1,2,1,4,0.549024948888398,0.536434072407439
"384",25,21,1,2,144,1,2,1,4,0.426901594431658,0.472952758200028
"385",25,26,1,2,145,3,2,1,2,1.02466211856069,0.985890729259215
"386",25,27,1,2,146,3,2,1,2,0.842510593264342,0.800879373197739
"387",25,35,1,2,147,1,2,1,5,0.366799207877264,0.450793877795188
"388",25,29,1,2,148,1,1,0,4,0.610854283851738,0.598632042538835
"389",25,27,1,2,149,3,1,0,2,1.27051463544969,1.28758382705392
"390",25,30,1,2,150,2,1,0,2,0.928998668249975,1.00029130890997
"391",25,31,1,1,151,1,1,1,5,0.348903048174305,0.473046844966447
"392",25,26,1,2,152,2,2,1,3,0.605789460235423,0.575112448016502
"393",25,28,1,1,153,2,1,1,4,0.605306362727094,0.585804926307637
"394",25,21,1,1,154,2,1,1,4,0.634578853436371,0.683323511789957
"395",25,26,1,2,155,2,2,1,4,0.579526141494763,0.603987369210909
"396",25,27,1,1,156,1,1,1,4,0.326409063872899,0.401103228714394
"397",25,35,1,2,157,1,2,1,5,0.381024555783372,0.378834669056974
"398",25,29,1,2,158,2,1,0,2,0.861864894923682,0.830505890745461
"399",25,27,1,1,159,1,1,1,5,0.359160287005183,0.514084576347291
"400",25,30,1,1,160,2,1,1,3,0.691149864979052,0.700645313052981
"401",25,31,1,2,161,3,1,0,2,1.48177384251248,1.57825830690946
"402",25,26,1,1,162,2,1,1,3,0.466499814912217,0.39717817376238
"403",25,28,1,1,163,1,2,0,3,0.527743122296506,0.551968981293797
"404",25,21,1,1,164,3,2,0,1,1.11105718425735,1.16453310894064
"405",25,26,1,1,165,3,2,0,2,1.002123055807,1.05061773986009
"406",25,27,1,2,166,3,2,1,2,0.756537403911586,0.712119639164534
"407",25,35,1,1,167,2,2,0,2,0.640971056590693,0.607165287520296
"408",25,29,1,2,168,3,2,1,2,0.587950291314487,0.609196056224349
"409",25,27,1,2,169,2,1,0,2,0.853926303971535,0.858186749430789
"410",25,30,1,2,170,1,1,0,3,0.478658246372911,0.442421919274801
"411",25,31,1,2,171,2,2,1,4,0.689283349943206,0.740066456479578
"412",25,26,1,1,172,3,1,1,3,1.01056249380987,0.973002985451708
"413",25,28,1,1,173,1,1,1,5,0.303535535686358,0.308272177682859
"414",25,21,1,2,174,3,2,1,2,0.929957856058007,0.886234121308986
"415",25,26,1,1,175,1,1,1,4,0.397182128443358,0.439022095039593
"416",25,27,1,1,176,3,1,1,2,0.651356379920326,0.659907784754106
"417",25,35,1,2,177,3,2,1,3,0.582962082200979,0.522294314851772
"418",25,29,1,2,178,2,1,0,2,0.57835635412662,0.551578778496862
"419",25,27,1,2,179,1,2,1,5,0.429507842165664,0.475592941649888
"420",25,30,1,1,180,2,2,0,3,0.744037300543219,0.697921587620625
"421",25,31,1,2,181,3,1,0,2,1.48070887892728,1.43013277725634
"422",25,26,1,1,182,3,1,1,2,0.775010815858805,0.818995037161316
"423",25,28,1,2,183,1,2,1,4,0.455460544094849,0.514533806054635
"424",25,21,1,1,184,3,1,1,3,0.707980257926956,0.730463709651737
"425",25,26,1,2,185,2,2,1,4,0.436482469566404,0.464040531867371
"426",25,27,1,2,186,2,2,1,4,0.482481906536181,0.477494826757255
"427",25,35,1,1,187,3,1,1,2,0.919337227547558,0.936912589613175
"428",25,29,1,1,188,3,2,0,1,0.587253057298664,0.610214130649293
"429",25,27,1,2,189,1,1,0,3,0.645426176872471,0.67664759058749
"430",25,30,1,2,190,3,2,1,2,1.18635450563946,1.27622489066033
"431",25,31,1,1,191,1,1,1,5,0.438193258179979,0.416001282022276
"432",25,26,1,2,192,2,1,0,3,0.650250260587904,0.680718131982942
"433",25,28,1,1,193,3,1,1,2,0.491546764134334,0.529032354006948
"434",25,21,1,1,194,1,1,1,5,0.29519571619716,0.220196746604917
"435",25,26,1,2,195,1,2,1,5,0.458318715317918,0.475649451747432
"436",25,27,1,1,196,3,2,0,2,0.64083470713556,0.642363149985715
"437",25,35,1,1,197,2,1,1,3,0.485240579420292,0.50863565923302
"438",25,29,1,2,198,2,2,1,3,0.699156902873091,0.727362856865952
"439",25,27,1,1,199,1,1,1,5,0.479534742021014,0.470399159030734
"440",25,30,1,2,200,3,1,0,1,0.824836959962666,0.880994335275832
"441",25,31,1,1,201,3,1,1,2,0.859438130169703,0.968073839496994
"442",25,26,1,2,202,3,2,1,3,0.720445144717864,0.750971548713215
"443",25,28,1,1,203,1,1,1,5,0.357486424295334,0.409494202800494
"444",25,21,1,1,204,1,1,1,4,0.470947086036055,0.531818919445837
"445",25,26,1,2,205,3,2,1,3,0.824765905747808,0.83385459681089
"446",25,27,1,2,206,2,1,0,2,0.92648650517807,0.901977769405176
"447",25,35,1,1,207,3,1,1,3,1.10359831176444,1.09294013121066
"448",25,29,1,2,208,2,2,1,4,0.60308798217008,0.573145978632312
"449",25,27,1,2,209,3,2,1,2,0.852454970235792,0.883172961604275
"450",25,30,1,1,210,1,1,1,5,0.566837871390213,0.620988529153858
"451",25,31,1,2,211,1,2,1,5,0.489869551327989,0.461288001763297
"452",25,26,1,2,212,2,1,0,3,0.822967699216446,0.840063571842649
"453",25,28,1,2,213,3,2,1,2,0.56949123880513,0.55562033375237
"454",25,21,1,1,214,2,2,0,2,0.714084004632914,0.703257623048332
"455",25,26,1,1,215,1,1,1,4,0.430081840420867,0.404199213888234
"456",25,27,1,1,216,2,1,1,4,0.501979560305004,0.423769654019978
"457",25,35,1,1,217,1,1,1,5,0.465565097554482,0.497386250082524
"458",25,29,1,1,218,2,1,1,3,0.452660664429632,0.409148636160041
"459",25,27,1,1,219,2,2,0,2,0.886735200285116,0.963268028684339
"460",25,30,1,1,220,1,2,0,4,0.689280666847143,0.603782329063674
"461",25,31,1,1,221,3,2,0,1,0.287271964787634,0.251393028062598
"462",25,26,1,1,222,2,1,1,3,0.620239574374462,0.502655263695875
"463",25,28,1,1,223,1,2,0,4,0.620304370096945,0.646847108069333
"464",25,21,1,1,224,3,2,0,2,1.18882134641984,1.11763701699003
"465",25,26,1,1,225,2,2,0,3,0.706439077719364,0.711228227659549
"466",25,27,1,1,226,2,1,1,4,0.831882257270084,0.896908179893136
"467",25,35,1,2,227,1,2,1,4,0.32020899685152,0.243104617030345
"468",25,29,1,1,228,2,2,0,2,0.629965051236546,0.60779558965649
"469",25,27,1,1,229,2,2,0,3,0.555513808026035,0.639615859334103
"470",25,30,1,2,230,2,2,1,4,0.475829911094988,0.473158198112825
"471",25,31,1,2,231,1,2,1,4,0.380964820090329,0.381185716506439
"472",25,26,1,1,232,3,2,0,1,1.46026516413424,1.39585796142498
"473",25,28,1,2,233,3,1,0,2,1.55581659865787,1.54838886510167
"474",25,21,1,1,234,1,1,1,4,0.447701247981902,0.481127446214778
"475",25,26,1,2,235,1,2,1,5,0.402050438910493,0.439355232869367
"476",25,27,1,2,236,2,2,1,4,0.573114499498493,0.577140884419123
"477",25,35,1,2,237,2,2,1,3,0.530334791109074,0.48888745349702
"478",25,29,1,2,238,1,2,1,4,0.34302279178365,0.323762662844703
"479",25,27,1,2,239,1,2,1,5,0.467808294010816,0.413866498824538
"480",25,30,1,2,240,3,2,1,3,0.872528161075346,0.841275847666084
"481",24,35,2,2,1,3,2,1,3,0.958276133201179,1.02691340268305
"482",24,19,2,1,2,1,2,0,3,0.488198710740249,0.464633136168439
"483",24,31,2,1,3,3,1,1,2,0.514728305360232,0.504621834995294
"484",24,37,2,2,4,1,2,1,5,0.407667181405587,0.403241608973869
"485",24,26,2,1,5,1,1,1,4,0.414818899957519,0.386016230301218
"486",24,29,2,1,6,2,1,1,3,0.729353572439048,0.807430976495917
"487",24,29,2,2,7,2,2,1,3,0.553767316439423,0.509370940991831
"488",24,21,2,2,8,1,2,1,4,0.336144863794399,0.392082163066872
"489",24,27,2,1,9,3,1,1,3,0.791080119508274,0.788765914356179
"490",24,18,2,1,10,3,2,0,2,1.06748300919567,1.16779526516878
"491",24,35,2,1,11,3,2,0,1,1.5901727965242,1.6777932464556
"492",24,19,2,2,12,2,2,1,3,0.759178515992319,0.750145991652302
"493",24,31,2,2,13,1,2,1,4,0.363812771495956,0.274110547158077
"494",24,37,2,2,14,1,1,0,3,0.560436733338382,0.483283727757429
"495",24,26,2,2,15,2,1,0,2,0.711210949487094,0.642048421427802
"496",24,29,2,2,16,3,2,1,2,0.713601366089005,0.665208282752241
"497",24,29,2,2,17,3,1,0,2,1.34000944472361,1.28056193294601
"498",24,21,2,1,18,3,2,0,2,0.588598414882229,0.580350463111105
"499",24,27,2,2,19,1,2,1,5,0.448591924872706,0.43735964639237
"500",24,18,2,1,20,2,2,0,3,0.672851410294554,0.719662395521044
"501",24,35,2,1,21,2,2,0,2,0.829508760452288,0.818391326437367
"502",24,19,2,1,22,3,2,0,1,0.98236962442517,1.00170728435939
"503",24,31,2,1,23,3,1,1,2,0.545428466406285,0.522966106374845
"504",24,37,2,2,24,1,2,1,5,0.348335291767228,0.43874398809096
"505",24,26,2,2,25,1,2,1,5,0.446865492579081,0.432397899088711
"506",24,29,2,1,26,2,1,1,3,0.642446802313359,0.61425333661475
"507",24,29,2,1,27,3,2,0,2,1.64132860933973,1.58536997856126
"508",24,21,2,2,28,2,1,0,2,0.855803671662049,0.842168948825265
"509",24,27,2,2,29,2,2,1,3,0.803517142593732,0.896797259508732
"510",24,18,2,1,30,1,1,1,5,0.44917804327806,0.415249293472097
"511",24,35,2,1,31,3,1,1,3,0.365980692213544,0.425337234575143
"512",24,19,2,1,32,3,1,1,2,0.926945552096229,0.940782789742779
"513",24,31,2,2,33,1,2,1,4,0.408683976311549,0.449244870157429
"514",24,37,2,1,34,3,2,0,1,0.712756093293213,0.700081988221183
"515",24,26,2,2,35,1,2,1,4,0.321537328324045,0.2921231672653
"516",24,29,2,1,36,2,1,1,4,0.512751234379294,0.484728667701809
"517",24,29,2,1,37,1,1,1,5,0.403649160565428,0.518721499515712
"518",24,21,2,2,38,2,2,1,4,0.420257080102043,0.435907698175539
"519",24,27,2,2,39,1,2,1,5,0.435681140462703,0.485513157312485
"520",24,18,2,2,40,2,2,1,4,0.526783932633223,0.508101089773302
"521",24,35,2,1,41,1,1,1,5,0.450505024697492,0.410327415337564
"522",24,19,2,2,42,1,2,1,4,0.261064413958543,0.319304793425084
"523",24,31,2,2,43,2,1,0,3,0.733279146007851,0.69035031543003
"524",24,37,2,1,44,1,2,0,4,0.499241390835475,0.473160249235062
"525",24,26,2,2,45,3,2,1,2,0.921380939824698,0.926919207413539
"526",24,29,2,1,46,3,1,1,3,0.531758958681774,0.501887368920283
"527",24,29,2,1,47,3,2,0,2,0.382737621584257,0.321984101295418
"528",24,21,2,1,48,1,1,1,4,0.260635057358052,0.188086459670204
"529",24,27,2,1,49,3,2,0,1,0.82788419347674,0.866140462545207
"530",24,18,2,2,50,2,1,0,2,0.504672295391817,0.464027282224314
"531",24,35,2,1,51,3,1,1,2,1.04768076036531,1.10793137352747
"532",24,19,2,2,52,1,2,1,5,0.425264651108038,0.369290658538313
"533",24,31,2,2,53,2,1,0,2,0.638291683431518,0.590154208742894
"534",24,37,2,2,54,1,2,1,4,0.40821697025612,0.378307831432649
"535",24,26,2,2,55,2,1,0,2,0.791352846356739,0.799949523230971
"536",24,29,2,1,56,3,1,1,3,0.954442367099691,0.969825831895375
"537",24,29,2,1,57,1,2,0,3,0.425181337978963,0.408161707357439
"538",24,21,2,1,58,1,1,1,4,0.409552995189006,0.396942340951723
"539",24,27,2,1,59,2,1,1,3,0.441725526330564,0.417566080480167
"540",24,18,2,1,60,3,2,0,2,0.384229925880944,0.340796250873589
"541",24,35,2,2,61,3,1,0,1,1.22747123794057,1.28751039610895
"542",24,19,2,1,62,3,1,1,3,1.27451226592245,1.23005911741911
"543",24,31,2,1,63,2,1,1,4,0.66114812111072,0.732432032980098
"544",24,37,2,2,64,1,2,1,4,0.388803333847535,0.374291327054586
"545",24,26,2,2,65,1,2,1,4,0.360669152550665,0.35519958306544
"546",24,29,2,2,66,1,2,1,5,0.373192995370357,0.379692716313989
"547",24,29,2,2,67,1,1,0,3,0.572943700675576,0.637090731608046
"548",24,21,2,1,68,1,1,1,4,0.449410508345964,0.398944942630101
"549",24,27,2,1,69,3,1,1,3,0.730849231810496,0.766867799025006
"550",24,18,2,2,70,3,2,1,2,0.693686000979097,0.830008729096181
"551",24,35,2,1,71,2,2,0,3,0.724150503746356,0.735695676048301
"552",24,19,2,1,72,2,1,1,4,0.654451196782753,0.680668504912697
"553",24,31,2,2,73,1,2,1,5,0.430689534185605,0.359945507009979
"554",24,37,2,2,74,3,2,1,2,0.95964505695222,0.927575429283402
"555",24,26,2,1,75,3,1,1,2,0.94662926581329,0.951217848550524
"556",24,29,2,1,76,2,2,0,2,0.388828418025859,0.384574002440081
"557",24,29,2,2,77,2,2,1,3,0.87023604499299,0.894349405804496
"558",24,21,2,1,78,1,1,1,5,0.413027535418333,0.418934905259357
"559",24,27,2,1,79,1,1,1,4,0.427542020354029,0.429066986297092
"560",24,18,2,1,80,3,1,1,3,0.758753743982896,0.701313884026957
"561",24,35,2,2,81,2,2,1,3,0.829019353104957,0.790161969500426
"562",24,19,2,1,82,3,1,1,3,1.0501615922033,1.05318220504229
"563",24,31,2,2,83,3,2,1,3,1.183504600583,1.1288862443378
"564",24,37,2,1,84,2,2,0,2,0.457218759610208,0.428190218510265
"565",24,26,2,1,85,3,1,1,2,0.701952018880335,0.774188355806463
"566",24,29,2,1,86,1,1,1,4,0.466706442543658,0.515518957875322
"567",24,29,2,2,87,2,2,1,3,0.700972831234425,0.698464211052192
"568",24,21,2,2,88,2,2,1,3,0.552908005151073,0.529535670253619
"569",24,27,2,2,89,1,2,1,4,0.393057531070867,0.432827388957617
"570",24,18,2,1,90,2,2,0,2,0.535531508603414,0.501159423796862
"571",24,35,2,2,91,1,2,1,4,0.358910688879797,0.38609061939764
"572",24,19,2,2,92,1,2,1,4,0.528563064447155,0.553395782353556
"573",24,31,2,2,93,3,1,0,1,1.20830982699058,1.23419499864414
"574",24,37,2,2,94,1,2,1,4,0.440653908142,0.360974786939437
"575",24,26,2,1,95,1,1,1,4,0.397321303641628,0.284299332347195
"576",24,29,2,2,96,3,1,0,2,1.19534114792412,1.24832911961436
"577",24,29,2,1,97,3,1,1,2,0.979821237756924,0.853608521937101
"578",24,21,2,1,98,1,1,1,4,0.364212730087787,0.42607801823564
"579",24,27,2,2,99,1,1,0,3,0.554184734214856,0.574062260474255
"580",24,18,2,2,100,2,2,1,3,0.387067254196896,0.376760557507729
"581",24,35,2,2,101,3,2,1,2,0.576256037490362,0.516668757928393
"582",24,19,2,2,102,2,1,0,3,0.91198228883753,0.94194750977516
"583",24,31,2,2,103,3,2,1,2,0.637673853637645,0.58690040341136
"584",24,37,2,2,104,2,1,0,2,0.714146509136133,0.713196780250332
"585",24,26,2,2,105,1,2,1,4,0.352023514855545,0.330745863929336
"586",24,29,2,2,106,3,1,0,2,0.804171725698226,0.885602449408507
"587",24,29,2,2,107,2,2,1,3,0.493445451149265,0.571467245892008
"588",24,21,2,2,108,3,1,0,2,0.597390904577822,0.5270138661633
"589",24,27,2,1,109,2,2,0,2,0.806573735652791,0.807101111613729
"590",24,18,2,2,110,1,2,1,4,0.314384492257463,0.258947947615237
"591",24,35,2,2,111,3,2,1,2,0.936609109830183,0.99568754161035
"592",24,19,2,1,112,1,1,1,4,0.599345955383635,0.656026044117922
"593",24,31,2,2,113,1,2,1,4,0.501226662878477,0.570168529386527
"594",24,37,2,2,114,3,1,0,2,0.811846120706649,0.902490276670278
"595",24,26,2,2,115,2,1,0,2,0.645292523764508,0.714373713990583
"596",24,29,2,1,116,1,2,0,3,0.561541115247963,0.633356964924255
"597",24,29,2,1,117,2,2,0,2,0.624731732382831,0.618076514383909
"598",24,21,2,1,118,2,1,1,4,0.401187641885226,0.323342215122747
"599",24,27,2,1,119,3,2,0,1,1.08508911057105,1.01809806016455
"600",24,18,2,2,120,3,1,0,1,0.58923875013878,0.600341530191149
"601",24,35,2,2,121,3,1,0,1,0.873999396853663,0.844533526158715
"602",24,19,2,1,122,2,2,0,3,0.894198950138154,0.814910093846801
"603",24,31,2,1,123,1,1,1,4,0.344307093984743,0.293022789468366
"604",24,37,2,1,124,1,1,1,5,0.28595149141892,0.296457252876646
"605",24,26,2,2,125,3,1,0,1,1.0426692563468,1.03166691765843
"606",24,29,2,2,126,2,2,1,4,0.418864255934788,0.451653869057942
"607",24,29,2,2,127,3,2,1,2,1.16014936996638,1.24185919669005
"608",24,21,2,1,128,3,2,0,1,1.29994707472654,1.32540400436053
"609",24,27,2,2,129,3,2,1,2,0.779171729255797,0.723150498118199
"610",24,18,2,1,130,2,1,1,3,0.557785924280651,0.540969071090108
"611",24,35,2,2,131,3,2,1,3,0.947984041355437,0.895905424906249
"612",24,19,2,1,132,2,1,1,4,0.635690020867472,0.64219513798103
"613",24,31,2,2,133,3,2,1,3,0.665305501342542,0.715358211928987
"614",24,37,2,1,134,1,1,1,5,0.395201370648371,0.41859119953846
"615",24,26,2,1,135,2,1,1,4,0.624769140398397,0.560657808144925
"616",24,29,2,1,136,2,2,0,3,0.695223357319822,0.732812032169569
"617",24,29,2,2,137,1,2,1,4,0.509730677951313,0.51859862419963
"618",24,21,2,1,138,3,1,1,2,0.941295073577213,0.883787206042554
"619",24,27,2,1,139,1,1,1,5,0.349907825125265,0.354387028701081
"620",24,18,2,1,140,2,2,0,2,0.604411449690747,0.59994518148666
"621",24,35,2,1,141,1,1,1,5,0.375799881612456,0.342809756760789
"622",24,19,2,2,142,3,2,1,2,0.649433077025951,0.713753558824106
"623",24,31,2,2,143,1,2,1,5,0.330994051639018,0.387414091819921
"624",24,37,2,2,144,1,2,1,5,0.343788145211712,0.329123023276811
"625",24,26,2,2,145,2,1,0,2,0.704685857245631,0.722037081769266
"626",24,29,2,2,146,2,1,0,2,0.940401535885493,0.911082900933366
"627",24,29,2,1,147,1,2,0,4,0.529642489255351,0.585058254691906
"628",24,21,2,1,148,1,1,1,4,0.384094183549743,0.363041980430331
"629",24,27,2,1,149,3,2,0,1,1.60910779628698,1.49874131816
"630",24,18,2,2,150,2,2,1,3,0.651122607486751,0.591971749820481
"631",24,35,2,1,151,2,1,1,3,0.644090246406888,0.626197442986563
"632",24,19,2,1,152,2,1,1,3,0.531455596035966,0.618902144936638
"633",24,31,2,1,153,2,1,1,3,0.575695932976462,0.616412713770304
"634",24,37,2,1,154,3,1,1,3,0.635785152753296,0.625462561865619
"635",24,26,2,1,155,3,2,0,1,0.647538204112147,0.711632160022655
"636",24,29,2,1,156,1,1,1,4,0.379126399379507,0.39625443293799
"637",24,29,2,1,157,3,1,1,2,0.875110565615532,0.94060710602381
"638",24,21,2,1,158,2,2,0,3,1.08917230363809,1.10184765047207
"639",24,27,2,2,159,2,1,0,3,0.906193565935412,0.908250622907726
"640",24,18,2,1,160,2,1,1,4,0.504832575492227,0.529067985883227
"641",24,35,2,2,161,1,2,1,4,0.405353377044687,0.45669535871901
"642",24,19,2,2,162,2,1,0,3,0.654977714222119,0.612589025097994
"643",24,31,2,1,163,2,2,0,2,0.738206827017693,0.758730739355281
"644",24,37,2,1,164,2,2,0,3,0.561583287710309,0.583310657912779
"645",24,26,2,2,165,3,1,0,1,1.17942400041781,1.28287886115199
"646",24,29,2,1,166,2,1,1,3,0.620507962748351,0.586611799065826
"647",24,29,2,1,167,1,2,0,4,0.825997044052188,0.866427813553141
"648",24,21,2,1,168,3,1,1,3,0.812757301007913,0.748678220607723
"649",24,27,2,2,169,2,2,1,4,0.449941553496156,0.443295675587379
"650",24,18,2,2,170,2,2,1,3,0.575052094771547,0.488628210155724
"651",24,35,2,1,171,1,2,0,4,0.469728265167588,0.511693680276103
"652",24,19,2,1,172,3,1,1,2,0.977000459853064,1.00195724230471
"653",24,31,2,1,173,2,1,1,4,0.52596376402281,0.496054255685057
"654",24,37,2,2,174,1,2,1,5,0.418314995803489,0.415471893667548
"655",24,26,2,1,175,1,2,0,3,0.480945199681669,0.395549314839083
"656",24,29,2,2,176,1,2,1,4,0.458966246733166,0.391484973770145
"657",24,29,2,2,177,1,2,1,4,0.352753251236594,0.360771707671339
"658",24,21,2,2,178,3,1,0,2,0.490195478286639,0.470853458744851
"659",24,27,2,2,179,1,2,1,5,0.429396182832813,0.480817600638659
"660",24,18,2,2,180,1,2,1,5,0.365625046646851,0.291701541419117
"661",24,35,2,2,181,3,1,0,1,0.606660195783547,0.650310030173792
"662",24,19,2,1,182,3,2,0,1,1.02219756379808,1.00156418945474
"663",24,31,2,2,183,1,2,1,5,0.444289637306622,0.481288216109519
"664",24,37,2,1,184,3,2,0,2,1.11806977727774,1.23628487224304
"665",24,26,2,2,185,2,2,1,4,0.612445521891924,0.714535109556654
"666",24,29,2,1,186,1,1,1,4,0.422857591080747,0.322562301266489
"667",24,29,2,1,187,3,2,0,1,1.27457271027532,1.30039477351285
"668",24,21,2,2,188,2,1,0,2,0.541853971893687,0.571380933850727
"669",24,27,2,1,189,2,2,0,2,0.634716607204967,0.619930615936833
"670",24,18,2,2,190,2,2,1,3,0.609018765607019,0.507139457269414
"671",24,35,2,2,191,2,2,1,3,0.727384329498161,0.76451847464507
"672",24,19,2,1,192,1,1,1,4,0.401645613493381,0.453354987129307
"673",24,31,2,2,193,2,2,1,3,0.582264486126301,0.52868094590606
"674",24,37,2,2,194,1,1,0,4,0.526934890951227,0.577008944290282
"675",24,26,2,1,195,3,1,1,2,0.356532202625648,0.402456288558885
"676",24,29,2,1,196,1,1,1,5,0.457202996169877,0.467849559937904
"677",24,29,2,1,197,1,2,0,3,0.564440576400317,0.61526089529605
"678",24,21,2,1,198,2,1,1,3,0.587390867229343,0.550794389860683
"679",24,27,2,2,199,3,2,1,2,0.949289914164812,0.971555408795831
"680",24,18,2,2,200,3,1,0,2,0.906475636464138,0.855829572342483
"681",24,35,2,2,201,2,1,0,2,0.679192609454889,0.767293260739653
"682",24,19,2,2,202,3,1,0,2,1.41850044048814,1.40814015993467
"683",24,31,2,2,203,3,1,0,2,1.02297561997402,1.00653133577431
"684",24,37,2,2,204,3,1,0,1,0.512784103142503,0.511418492871793
"685",24,26,2,1,205,3,1,1,2,1.14822827217921,1.09814546765199
"686",24,29,2,1,206,1,1,1,5,0.308906483094699,0.405297383180972
"687",24,29,2,1,207,2,1,1,4,0.657556997279488,0.639389558743546
"688",24,21,2,2,208,1,2,1,4,0.353799048890216,0.355686821261578
"689",24,27,2,1,209,1,1,1,4,0.388909128522771,0.368386421978434
"690",24,18,2,1,210,1,2,0,4,0.470620912530338,0.518929220595483
"691",24,35,2,2,211,3,1,0,1,0.824282645113854,0.930350310228144
"692",24,19,2,2,212,2,1,0,3,0.397595277143439,0.379214842207597
"693",24,31,2,1,213,1,2,0,3,0.455263373521754,0.477684705868893
"694",24,37,2,2,214,2,1,0,2,1.01314877195441,0.991015354623666
"695",24,26,2,2,215,2,2,1,4,0.680894638242921,0.682980059692798
"696",24,29,2,1,216,2,2,0,3,0.621102553135012,0.588478956764953
"697",24,29,2,1,217,3,2,0,2,1.07282778682224,1.17790147983501
"698",24,21,2,1,218,2,1,1,4,0.5583472838111,0.540915404983596
"699",24,27,2,2,219,3,2,1,3,0.940161099735192,0.929316589102142
"700",24,18,2,2,220,3,1,0,1,0.630668517097199,0.592760778654298
"701",24,35,2,2,221,1,1,0,3,0.555243497355975,0.567940764354637
"702",24,19,2,1,222,1,2,0,3,0.475124729326247,0.44440847606395
"703",24,31,2,2,223,1,2,1,4,0.33119468599517,0.367400957200661
"704",24,37,2,2,224,2,1,0,3,0.531681129903853,0.616857060875396
"705",24,26,2,2,225,2,1,0,2,0.764206106047849,0.764895205601444
"706",24,29,2,1,226,3,2,0,1,1.40382154079159,1.41974398446994
"707",24,29,2,2,227,1,2,1,4,0.354291308773893,0.353955894713981
"708",24,21,2,1,228,2,1,1,4,0.881403851234532,0.831057336743556
"709",24,27,2,2,229,2,2,1,3,0.598706118508051,0.582947207475245
"710",24,18,2,1,230,2,1,1,3,0.628459183104399,0.650594637298496
"711",24,35,2,2,231,3,2,1,2,0.80545595089089,0.846775987747508
"712",24,19,2,1,232,2,2,0,3,0.371379676864896,0.434115090257761
"713",24,31,2,1,233,3,1,1,3,0.600481462660886,0.636458337950914
"714",24,37,2,2,234,2,2,1,3,0.768523016413156,0.775997057108797
"715",24,26,2,2,235,3,2,1,2,0.915288583379386,0.796313349106283
"716",24,29,2,2,236,1,2,1,4,0.440788067758968,0.376498401455876
"717",24,29,2,1,237,1,1,1,5,0.408438261435643,0.392994212299736
"718",24,21,2,1,238,3,2,0,2,0.712586432507679,0.671055736549032
"719",24,27,2,1,239,3,1,1,2,0.74365329648909,0.805965478212654
"720",24,18,2,1,240,2,2,0,2,0.49922633126452,0.43849952412528
"721",23,32,1,2,1,1,1,0,3,0.609397121867317,0.711024182387038
"722",23,18,1,1,2,1,1,1,5,0.403307123412471,0.386952724407756
"723",23,39,1,2,3,3,1,0,2,1.13493109315224,1.1065761447016
"724",23,25,1,2,4,3,1,0,1,0.832538134338265,0.859734885806064
"725",23,25,1,1,5,2,1,1,4,0.560808193405609,0.602870744942694
"726",23,37,1,1,6,3,1,1,3,0.668914714106144,0.591239675402403
"727",23,33,1,2,7,1,2,1,4,0.381894213428192,0.443577079201171
"728",23,19,1,1,8,2,1,1,4,0.674818548053177,0.563532298975041
"729",23,19,1,2,9,2,2,1,3,0.623478508797501,0.624421759260106
"730",23,25,1,2,10,3,1,0,1,0.950175695193688,0.960405462383419
"731",23,32,1,1,11,3,2,0,1,1.42681322903816,1.49523937000082
"732",23,18,1,2,12,2,1,0,3,0.833977494872017,0.877182461064239
"733",23,39,1,2,13,3,1,0,2,0.696557676891385,0.731212620145866
"734",23,25,1,2,14,3,1,0,1,0.741526982733391,0.72460176102999
"735",23,25,1,2,15,1,1,0,4,0.380895395354307,0.342610799782295
"736",23,37,1,1,16,1,1,1,4,0.325755141578916,0.364680406945987
"737",23,33,1,1,17,3,1,1,3,0.876042771242136,0.840001847907317
"738",23,19,1,1,18,3,2,0,1,1.64550532451718,1.65180185787715
"739",23,19,1,1,19,1,2,0,3,0.558898219111513,0.608928807629401
"740",23,25,1,1,20,1,1,1,4,0.495577471812511,0.503650441316138
"741",23,32,1,1,21,2,2,0,2,0.69247877726721,0.695172719083165
"742",23,18,1,2,22,1,2,1,4,0.460164994174161,0.462086472629172
"743",23,39,1,2,23,2,1,0,2,1.13148108108242,1.13535284465244
"744",23,25,1,1,24,1,2,0,4,0.446451299659337,0.403325495720507
"745",23,25,1,2,25,2,2,1,4,0.512171051534236,0.581530287895906
"746",23,37,1,2,26,2,1,0,2,0.762372107059159,0.788291508513283
"747",23,33,1,1,27,1,1,1,4,0.423909052655664,0.45092489903843
"748",23,19,1,1,28,2,1,1,3,0.438690835543373,0.451473407305732
"749",23,19,1,2,29,3,2,1,3,0.800510966781081,0.888673233686278
"750",23,25,1,2,30,3,2,1,2,0.988616939100536,1.10561518645222
"751",23,32,1,1,31,1,1,1,5,0.417935861919077,0.528751552819217
"752",23,18,1,2,32,2,1,0,3,0.833135087622838,0.800633656832447
"753",23,39,1,1,33,3,1,1,3,0.575705959942523,0.561175572246485
"754",23,25,1,1,34,1,2,0,4,0.56092614069463,0.628115277967924
"755",23,25,1,2,35,1,2,1,4,0.462326692675412,0.510695643662814
"756",23,37,1,1,36,3,2,0,1,1.5033994096089,1.52545698184999
"757",23,33,1,1,37,2,2,0,2,0.662220487018445,0.594414020620419
"758",23,19,1,1,38,3,2,0,1,1.227622038899,1.18083559645226
"759",23,19,1,1,39,3,2,0,1,1.26353206584409,1.28040134691354
"760",23,25,1,2,40,2,2,1,4,0.633489704232084,0.637128291205614
"761",23,32,1,1,41,2,1,1,3,0.609238552661468,0.63779914801682
"762",23,18,1,2,42,1,2,1,4,0.318223414808699,0.295659866542338
"763",23,39,1,2,43,1,1,0,4,0.589164095918976,0.619628745276944
"764",23,25,1,1,44,2,1,1,4,0.450886640312356,0.428433000836975
"765",23,25,1,2,45,2,1,0,2,0.853999628499832,0.909442918148277
"766",23,37,1,1,46,3,2,0,2,1.03114688359372,0.915060637228659
"767",23,33,1,2,47,2,2,1,4,0.342337617223124,0.330403131274435
"768",23,19,1,1,48,3,1,1,2,0.604595764320879,0.685130505098157
"769",23,19,1,2,49,2,2,1,3,0.413068370509455,0.469241476242431
"770",23,25,1,2,50,3,2,1,3,0.726309936093666,0.759796592355633
"771",23,32,1,2,51,3,2,1,2,0.756696711308754,0.763658265756245
"772",23,18,1,1,52,3,1,1,3,0.888333993192393,0.906688561305959
"773",23,39,1,1,53,1,1,1,5,0.33538053558341,0.310724845431696
"774",23,25,1,2,54,2,1,0,2,0.664221228912931,0.689669098086241
"775",23,25,1,2,55,2,2,1,3,0.64624690504463,0.671199661714295
"776",23,37,1,1,56,3,1,1,3,0.854991543619029,0.932333531873629
"777",23,33,1,2,57,3,1,0,1,0.957822209750376,1.01393597630571
"778",23,19,1,2,58,1,2,1,4,0.3503618531935,0.397816194562064
"779",23,19,1,1,59,2,2,0,3,1.00161553560911,0.921005853071317
"780",23,25,1,2,60,1,1,0,3,0.419033787241166,0.342034640767369
"781",23,32,1,2,61,1,2,1,5,0.379345172727812,0.391527417100501
"782",23,18,1,2,62,1,2,1,4,0.502153864508609,0.541687653014111
"783",23,39,1,1,63,1,1,1,5,0.416226906851874,0.396234701675247
"784",23,25,1,2,64,3,1,0,2,1.05957582492542,1.03076447874214
"785",23,25,1,2,65,3,1,0,1,1.27029030517212,1.24731742020713
"786",23,37,1,1,66,1,1,1,5,0.467792409448054,0.465504173407563
"787",23,33,1,1,67,3,1,1,2,0.728135828266192,0.758231495385108
"788",23,19,1,2,68,2,2,1,3,0.506480641213443,0.505836716661982
"789",23,19,1,1,69,2,2,0,2,0.541291694438261,0.47715379898086
"790",23,25,1,1,70,3,1,1,3,0.681868310237943,0.718897774662049
"791",23,32,1,1,71,2,1,1,4,0.671291699851579,0.696183216451773
"792",23,18,1,2,72,1,2,1,4,0.437247260271609,0.416392251317175
"793",23,39,1,2,73,3,2,1,3,0.708166117602741,0.678979444920247
"794",23,25,1,2,74,3,1,0,1,0.611008717458646,0.57813717876446
"795",23,25,1,1,75,1,1,1,5,0.342434670276906,0.309477828430458
"796",23,37,1,1,76,1,1,1,4,0.330060279459421,0.365831999546885
"797",23,33,1,2,77,3,1,0,1,0.955773074703878,0.97491587262621
"798",23,19,1,1,78,3,1,1,2,0.779184356257622,0.757849765119555
"799",23,19,1,2,79,1,2,1,5,0.548957256653867,0.470472216146093
"800",23,25,1,1,80,1,1,1,5,0.408297953830863,0.324047988117467
"801",23,32,1,2,81,1,2,1,4,0.177852189771687,0.183659517415451
"802",23,18,1,1,82,1,2,0,4,0.539766681254658,0.661637684869641
"803",23,39,1,1,83,3,2,0,2,0.972976663689688,0.947386955367569
"804",23,25,1,1,84,1,1,1,5,0.442833295671066,0.447717590341347
"805",23,25,1,2,85,3,2,1,3,0.900156604694302,0.988576591436449
"806",23,37,1,2,86,1,2,1,5,0.373977881455736,0.353255368439206
"807",23,33,1,2,87,3,1,0,2,0.459966468996961,0.443216349201732
"808",23,19,1,2,88,2,1,0,2,0.729230705443854,0.736797581341992
"809",23,19,1,1,89,2,1,1,4,0.5425955618072,0.540503443842197
"810",23,25,1,1,90,1,2,0,3,0.504832520440681,0.464021324569842
"811",23,32,1,2,91,1,2,1,5,0.365139770412184,0.39781225418044
"812",23,18,1,2,92,1,1,0,4,0.532256665724886,0.558923472340326
"813",23,39,1,2,93,2,2,1,4,0.589500283930681,0.627217518042401
"814",23,25,1,2,94,1,2,1,4,0.404326190367509,0.351779834254309
"815",23,25,1,1,95,2,1,1,4,0.73419045983362,0.697058711619064
"816",23,37,1,1,96,3,2,0,2,0.624024129175199,0.585619486515762
"817",23,33,1,2,97,1,2,1,4,0.272682939174276,0.326495829840955
"818",23,19,1,2,98,2,2,1,3,0.627845407321657,0.568304197293583
"819",23,19,1,2,99,3,2,1,2,0.818148941863996,0.908106689943592
"820",23,25,1,1,100,2,1,1,3,0.49383460407,0.613004179210809
"821",23,32,1,2,101,1,2,1,4,0.234952047974174,0.269835368020633
"822",23,18,1,1,102,2,2,0,3,0.455931769961067,0.407652516186436
"823",23,39,1,2,103,2,2,1,3,0.537949766285664,0.489970458357872
"824",23,25,1,1,104,2,1,1,3,0.424659862906374,0.381248612326473
"825",23,25,1,1,105,1,1,1,5,0.37280180738439,0.375842876228728
"826",23,37,1,1,106,1,1,1,4,0.322317429418706,0.2907598965242
"827",23,33,1,1,107,1,1,1,4,0.383510485404639,0.378296689217792
"828",23,19,1,1,108,2,1,1,4,0.486743531629113,0.583695900827344
"829",23,19,1,1,109,3,1,1,2,1.06563901220798,1.03500873807059
"830",23,25,1,1,110,1,1,1,5,0.195436304252713,0.15446065254114
"831",23,32,1,1,111,3,2,0,1,0.881998253754879,0.906202946159135
"832",23,18,1,2,112,2,2,1,4,0.611468405484209,0.569000689042026
"833",23,39,1,1,113,1,1,1,4,0.488152189609693,0.40580879483694
"834",23,25,1,2,114,1,2,1,4,0.354123575390989,0.368903074521764
"835",23,25,1,1,115,3,2,0,1,0.769174046635183,0.706800178318512
"836",23,37,1,2,116,3,1,0,1,0.869724164402907,0.935263184288096
"837",23,33,1,2,117,2,2,1,4,0.62649969054092,0.632414619800101
"838",23,19,1,2,118,1,1,0,4,0.579305585430633,0.635323573932832
"839",23,19,1,1,119,2,2,0,2,0.85844764032836,0.868102746398501
"840",23,25,1,1,120,2,2,0,3,0.810016796873799,0.883958899992353
"841",23,32,1,1,121,2,2,0,3,0.73962540730968,0.780775651869615
"842",23,18,1,1,122,2,1,1,3,0.46839279633614,0.446265180006681
"843",23,39,1,2,123,3,1,0,1,0.793992321366047,0.804793623406694
"844",23,25,1,1,124,1,1,1,4,0.412999113821066,0.467368501327553
"845",23,25,1,1,125,2,2,0,3,0.69274816704257,0.709385333943648
"846",23,37,1,2,126,1,2,1,5,0.468607925407077,0.56738722640312
"847",23,33,1,1,127,2,1,1,3,0.691515029090618,0.632770422257315
"848",23,19,1,1,128,1,1,1,5,0.41268896320546,0.464625896405091
"849",23,19,1,1,129,2,1,1,3,0.652877934607324,0.717770270090927
"850",23,25,1,1,130,2,1,1,4,0.481101352172122,0.433592442890255
"851",23,32,1,1,131,3,1,1,2,0.988913010388627,0.961478780401059
"852",23,18,1,2,132,2,2,1,3,0.636036368443023,0.629037790620971
"853",23,39,1,1,133,3,2,0,1,0.853829489269057,0.811031455529116
"854",23,25,1,2,134,1,2,1,4,0.326026279889203,0.388084111387672
"855",23,25,1,2,135,3,2,1,2,0.831119747915932,0.845369670956801
"856",23,37,1,2,136,2,1,0,2,0.530781084271862,0.540208217885032
"857",23,33,1,1,137,2,2,0,2,0.750993650079544,0.68536527095223
"858",23,19,1,1,138,1,1,1,5,0.229333927931147,0.222574061774717
"859",23,19,1,2,139,2,2,1,3,0.730799957928721,0.79010242226375
"860",23,25,1,2,140,2,1,0,3,0.836978372638608,0.810380921599151
"861",23,32,1,1,141,2,1,1,4,0.595397907404333,0.635939950845696
"862",23,18,1,2,142,3,2,1,3,0.534552611903353,0.48311654678987
"863",23,39,1,2,143,2,2,1,3,0.612190912792186,0.64100148532629
"864",23,25,1,2,144,3,2,1,3,0.626688731219722,0.624866365967483
"865",23,25,1,1,145,2,1,1,4,0.785259553978188,0.712885503261773
"866",23,37,1,2,146,1,2,1,5,0.40204635601085,0.476693441261191
"867",23,33,1,1,147,1,1,1,4,0.384867652147139,0.43933010400025
"868",23,19,1,2,148,2,1,0,3,0.6775879122639,0.718549752334784
"869",23,19,1,1,149,1,1,1,5,0.433550905494543,0.435387290685293
"870",23,25,1,1,150,3,2,0,2,0.902644469462938,0.924712059777022
"871",23,32,1,2,151,2,2,1,4,0.668662873835587,0.736988555786132
"872",23,18,1,2,152,3,1,0,2,1.03054353406835,1.07429845814718
"873",23,39,1,2,153,3,2,1,3,1.06248238249136,1.02726873515263
"874",23,25,1,2,154,1,2,1,4,0.439061899279936,0.498784376210757
"875",23,25,1,1,155,2,1,1,3,0.60362283901607,0.616687729190034
"876",23,37,1,2,156,2,2,1,3,0.811733987735249,0.722883441175925
"877",23,33,1,2,157,3,1,0,2,0.704972367383318,0.732538067919215
"878",23,19,1,1,158,3,1,1,3,0.619439911141988,0.549278090225621
"879",23,19,1,2,159,1,1,0,4,0.644758213503057,0.685169190960129
"880",23,25,1,2,160,2,2,1,3,0.731787008268244,0.614330011235575
"881",23,32,1,1,161,1,1,1,4,0.452852382659842,0.449303512735019
"882",23,18,1,2,162,2,2,1,3,0.628556630517942,0.640195427696253
"883",23,39,1,1,163,2,1,1,3,0.564446927326756,0.510736533632071
"884",23,25,1,2,164,2,2,1,4,0.754819842849873,0.763505331446313
"885",23,25,1,1,165,2,2,0,3,0.53776207368073,0.552099326218172
"886",23,37,1,2,166,1,2,1,5,0.373146930979661,0.327523129227402
"887",23,33,1,1,167,2,2,0,2,0.606131767737809,0.57987915434229
"888",23,19,1,2,168,2,2,1,4,0.623891379221191,0.539799038092609
"889",23,19,1,1,169,2,2,0,2,0.442951949077161,0.459262003936858
"890",23,25,1,2,170,3,1,0,2,1.33863122669843,1.37417393099286
"891",23,32,1,1,171,1,1,1,4,0.530046359449772,0.558961734667799
"892",23,18,1,1,172,1,1,1,4,0.42537303924252,0.475868354754426
"893",23,39,1,2,173,2,2,1,3,0.496445109081275,0.543291406132636
"894",23,25,1,1,174,3,2,0,2,0.581899606694592,0.475852771009918
"895",23,25,1,1,175,3,1,1,2,0.983696849418574,0.972295917508543
"896",23,37,1,2,176,3,1,0,1,1.46344171003065,1.49309329920945
"897",23,33,1,1,177,3,2,0,1,0.56215397709643,0.595231533706494
"898",23,19,1,2,178,3,2,1,2,0.776811854932468,0.752024997580337
"899",23,19,1,2,179,3,2,1,3,1.06201701118117,1.03349984686601
"900",23,25,1,2,180,1,1,0,3,0.476928096323059,0.399856758503397
"901",23,32,1,2,181,1,2,1,4,0.360797675523802,0.285384278933639
"902",23,18,1,1,182,2,2,0,3,0.729503360001893,0.79624899350875
"903",23,39,1,2,183,1,2,1,4,0.286233279233818,0.325981425680037
"904",23,25,1,1,184,1,1,1,4,0.458933643802227,0.452828306595885
"905",23,25,1,2,185,1,1,0,3,0.491381514616862,0.530229277954354
"906",23,37,1,1,186,3,1,1,2,1.16729155766566,1.13596172098893
"907",23,33,1,2,187,1,2,1,4,0.50302901171341,0.522996738086934
"908",23,19,1,1,188,3,1,1,2,1.06497443391071,1.0975423236536
"909",23,19,1,2,189,2,1,0,2,0.883611017150374,0.843687168530277
"910",23,25,1,1,190,3,1,1,2,0.654638938262657,0.668980189176581
"911",23,32,1,2,191,2,1,0,2,0.920234004060524,0.943573635560834
"912",23,18,1,2,192,1,2,1,5,0.315318163855787,0.350038602385417
"913",23,39,1,1,193,3,1,1,3,0.710945402001289,0.682219793346075
"914",23,25,1,2,194,1,2,1,4,0.360147672915241,0.367186558820071
"915",23,25,1,2,195,2,1,0,3,0.719864476207862,0.730283989138914
"916",23,37,1,1,196,1,1,1,5,0.340891106045353,0.289728133032303
"917",23,33,1,2,197,2,2,1,3,0.387478623205149,0.425935881940884
"918",23,19,1,1,198,3,1,1,3,0.760221946319995,0.689729299620731
"919",23,19,1,1,199,1,2,0,3,0.536530874646262,0.629079917441062
"920",23,25,1,1,200,2,1,1,3,0.792756443928845,0.754455115795025
"921",23,32,1,2,201,2,2,1,3,0.481068041965487,0.485792742884934
"922",23,18,1,2,202,3,2,1,3,0.19544949412918,0.209905832487511
"923",23,39,1,1,203,2,1,1,3,0.539931386867046,0.589461064600532
"924",23,25,1,1,204,3,2,0,1,0.623624228460198,0.5766034433559
"925",23,25,1,2,205,3,2,1,3,0.70947507164351,0.689541234223762
"926",23,37,1,2,206,2,1,0,2,0.793634483631991,0.832007431798732
"927",23,33,1,2,207,1,2,1,4,0.476778650311067,0.434576678262205
"928",23,19,1,2,208,3,1,0,1,1.36793623904288,1.3807783323627
"929",23,19,1,2,209,3,2,1,2,0.875520148875076,0.931577608514749
"930",23,25,1,2,210,3,1,0,2,0.70533498380597,0.724302707951138
"931",23,32,1,1,211,2,1,1,4,0.682000953061266,0.630002262549167
"932",23,18,1,1,212,3,2,0,1,0.627701578869322,0.63267884242552
"933",23,39,1,1,213,2,1,1,4,0.482067035826002,0.396730520481146
"934",23,25,1,1,214,3,1,1,2,0.635354306122654,0.630438804462589
"935",23,25,1,1,215,1,2,0,3,0.584344552905919,0.460404909577633
"936",23,37,1,1,216,1,1,1,4,0.509732672740816,0.459970667894808
"937",23,33,1,1,217,1,1,1,4,0.386851447014485,0.295189733995241
"938",23,19,1,1,218,3,1,1,2,0.659143241408242,0.694331317338742
"939",23,19,1,1,219,2,1,1,3,0.71886558102798,0.746942170797686
"940",23,25,1,1,220,1,1,1,4,0.475259377924898,0.444450027209766
"941",23,32,1,1,221,3,2,0,2,0.867529203169053,0.897774217048599
"942",23,18,1,2,222,3,2,1,2,0.792332216117809,0.630395937309744
"943",23,39,1,1,223,1,1,1,4,0.383291787182277,0.381529298980841
"944",23,25,1,2,224,3,1,0,1,1.26442411449471,1.19309198150813
"945",23,25,1,2,225,3,1,0,1,0.86211663640872,0.829334478641678
"946",23,37,1,1,226,1,2,0,3,0.562810090474992,0.668679890358431
"947",23,33,1,2,227,1,2,1,4,0.445461408595583,0.480606598276312
"948",23,19,1,2,228,3,2,1,2,0.758537450907077,0.724775421244704
"949",23,19,1,2,229,2,1,0,3,0.801179694128947,0.86704934406914
"950",23,25,1,2,230,2,2,1,4,0.67735408100079,0.635630378098306
"951",23,32,1,2,231,1,2,1,4,0.40584823570556,0.361038216197754
"952",23,18,1,2,232,1,1,0,3,0.430845493635341,0.442754231715327
"953",23,39,1,1,233,3,2,0,2,1.091469413566,1.04553121697995
"954",23,25,1,1,234,2,1,1,3,0.450430778287652,0.448488187875876
"955",23,25,1,1,235,3,2,0,1,1.04165445437811,1.02186715367337
"956",23,37,1,2,236,3,1,0,1,0.797629775008352,0.829250432254802
"957",23,33,1,1,237,1,1,1,5,0.486445693145952,0.44467404423126
"958",23,19,1,1,238,3,2,0,1,1.33340864851522,1.30265601695961
"959",23,19,1,2,239,1,2,1,5,0.380153268150092,0.479056825602278
"960",23,25,1,1,240,2,2,0,2,0.625788493560722,0.569859925607833
"961",22,26,2,1,1,1,2,0,3,0.521579072106468,0.548737662657049
"962",22,18,2,1,2,2,1,1,3,0.659922338778205,0.58723678818924
"963",22,34,2,1,3,2,1,1,3,0.554952707701922,0.574333637977259
"964",22,36,2,2,4,2,1,0,3,0.487137418436771,0.45156203991491
"965",22,21,2,1,5,1,1,1,4,0.322791770555136,0.329367204617499
"966",22,21,2,1,6,3,2,0,1,1.21449249921256,1.27362876976397
"967",22,36,2,1,7,1,1,1,5,0.418145905024783,0.48211116722688
"968",22,36,2,1,8,1,2,0,3,0.482024756994457,0.425739748190412
"969",22,21,2,2,9,3,1,0,1,1.56515706771406,1.5973388344422
"970",22,33,2,2,10,3,1,0,1,0.768313452134556,0.790881001786826
"971",22,26,2,2,11,1,2,1,5,0.477226450141071,0.486015985000081
"972",22,18,2,2,12,3,1,0,1,0.46454014826227,0.367545342435683
"973",22,34,2,2,13,3,2,1,3,0.749336444725971,0.74871845895813
"974",22,36,2,2,14,1,2,1,4,0.335601485025997,0.340187430943968
"975",22,21,2,1,15,3,1,1,2,1.03423175280342,1.04597225067644
"976",22,21,2,2,16,3,1,0,1,1.4605253080084,1.4470397221706
"977",22,36,2,1,17,1,2,0,4,0.681733678446311,0.735043788532811
"978",22,36,2,2,18,3,1,0,1,0.690806794355714,0.607091949506045
"979",22,21,2,1,19,1,1,1,4,0.358632966930826,0.396514553769803
"980",22,33,2,2,20,3,1,0,2,1.19803111371964,1.18281475527172
"981",22,26,2,2,21,2,2,1,3,0.613387014793258,0.70294055211605
"982",22,18,2,2,22,1,2,1,5,0.501536404579873,0.485966240350939
"983",22,34,2,2,23,3,2,1,2,1.15474973947905,1.1227123916331
"984",22,36,2,1,24,1,2,0,3,0.585774430748851,0.522752934019312
"985",22,21,2,1,25,1,1,1,5,0.464601322481824,0.407191774124402
"986",22,21,2,2,26,1,2,1,5,0.236755215837792,0.206871481690896
"987",22,36,2,1,27,1,1,1,4,0.494935676689464,0.468138591812963
"988",22,36,2,2,28,2,1,0,3,0.512069017240057,0.52428066965853
"989",22,21,2,2,29,3,1,0,2,1.4651723767908,1.51367297364618
"990",22,33,2,1,30,1,1,1,4,0.449457700941779,0.409760043519953
"991",22,26,2,2,31,2,1,0,2,0.516411290039994,0.430918472932488
"992",22,18,2,1,32,3,2,0,1,1.09074059581169,1.01931813496568
"993",22,34,2,1,33,1,1,1,4,0.574656236226705,0.64677832792532
"994",22,36,2,2,34,3,1,0,1,0.690686887457539,0.751448876754579
"995",22,21,2,1,35,1,2,0,3,0.576374910840897,0.497673027170808
"996",22,21,2,2,36,2,1,0,3,0.830965709644895,0.844532608339806
"997",22,36,2,2,37,1,2,1,5,0.333870828633095,0.298691438696754
"998",22,36,2,1,38,3,1,1,3,0.941269501375545,0.912208195987178
"999",22,21,2,1,39,2,1,1,3,0.676078123866607,0.726428656526037
"1000",22,33,2,1,40,1,1,1,5,0.217361914439674,0.219758966777302
"1001",22,26,2,1,41,3,1,1,2,0.941125690058851,0.970423840951081
"1002",22,18,2,2,42,1,1,0,3,0.49643148432423,0.402704452841351
"1003",22,34,2,1,43,3,1,1,3,0.787344490841055,0.872611519805175
"1004",22,36,2,1,44,1,1,1,4,0.469440330581479,0.434679314928697
"1005",22,21,2,2,45,2,2,1,3,0.358452956259951,0.411371002370293
"1006",22,21,2,1,46,1,1,1,5,0.546865365856649,0.605635879005022
"1007",22,36,2,2,47,1,2,1,5,0.310837499288462,0.274973495224093
"1008",22,36,2,1,48,1,2,0,4,0.581304726578605,0.491015369504107
"1009",22,21,2,1,49,3,1,1,2,0.658254972415828,0.689086824664918
"1010",22,33,2,2,50,3,1,0,2,0.932377581145793,0.830906403872483
"1011",22,26,2,2,51,2,1,0,3,0.814100309475863,0.818068144749382
"1012",22,18,2,2,52,2,1,0,2,0.717690416499201,0.677226297674372
"1013",22,34,2,1,53,3,1,1,2,0.886623569968328,0.913261251399995
"1014",22,36,2,2,54,1,1,0,4,0.812196482202029,0.841200159491022
"1015",22,21,2,1,55,1,2,0,4,0.423534002018397,0.358693630563054
"1016",22,21,2,1,56,2,1,1,3,0.950440381088023,0.928673063892304
"1017",22,36,2,1,57,2,1,1,3,0.698798499106635,0.699023461970483
"1018",22,36,2,2,58,1,2,1,5,0.310402614930731,0.284119212822757
"1019",22,21,2,1,59,3,1,1,2,0.798684768736502,0.8206293671565
"1020",22,33,2,2,60,2,1,0,2,0.849533278768555,0.891120795161457
"1021",22,26,2,2,61,2,2,1,3,0.498495609075987,0.437338295550555
"1022",22,18,2,2,62,3,1,0,1,1.29657244462447,1.21776578843164
"1023",22,34,2,2,63,2,2,1,4,0.650373812901915,0.747038202199315
"1024",22,36,2,2,64,1,1,0,4,0.560373998202994,0.570877346894766
"1025",22,21,2,1,65,3,2,0,1,1.16621082429621,1.20410500951814
"1026",22,21,2,1,66,2,1,1,3,0.61357739072032,0.670462918264723
"1027",22,36,2,1,67,3,2,0,1,0.6312240581057,0.649322199467512
"1028",22,36,2,1,68,2,1,1,4,0.475551263990323,0.463228863036742
"1029",22,21,2,1,69,1,1,1,4,0.250868075975054,0.27907245772216
"1030",22,33,2,1,70,1,1,1,5,0.194095742817794,0.214408562014002
"1031",22,26,2,2,71,3,1,0,1,0.98499025918551,0.959377807122356
"1032",22,18,2,2,72,1,2,1,4,0.358509729689231,0.279265988770069
"1033",22,34,2,1,73,3,2,0,1,1.10353542598379,1.07843574919475
"1034",22,36,2,1,74,1,1,1,4,0.284969475427513,0.301150624861571
"1035",22,21,2,2,75,3,2,1,3,0.661906983102241,0.693735218959544
"1036",22,21,2,1,76,2,1,1,3,0.632639935919655,0.640127100487536
"1037",22,36,2,1,77,3,1,1,3,0.559087196864037,0.621609299212707
"1038",22,36,2,2,78,3,1,0,2,0.934718081211066,0.959106437044666
"1039",22,21,2,2,79,2,1,0,3,0.782036815656599,0.738551373632877
"1040",22,33,2,2,80,2,2,1,4,0.773894786472701,0.763968207793549
"1041",22,26,2,1,81,2,2,0,2,0.85763406242863,0.81679620112479
"1042",22,18,2,1,82,3,2,0,1,1.55577628083428,1.4954679174988
"1043",22,34,2,1,83,1,1,1,5,0.339179699846586,0.335162440819855
"1044",22,36,2,1,84,3,2,0,1,1.32275577289741,1.2713482951471
"1045",22,21,2,2,85,1,1,0,3,0.693089600396236,0.690508069936485
"1046",22,21,2,2,86,2,2,1,3,0.643036268158709,0.708304068806884
"1047",22,36,2,2,87,3,2,1,2,0.988820753767904,0.997847381936003
"1048",22,36,2,2,88,3,2,1,3,0.949654905067103,0.991665231186357
"1049",22,21,2,1,89,1,1,1,4,0.347593222986674,0.35623234985145
"1050",22,33,2,2,90,1,2,1,4,0.389103508746659,0.353866473471279
"1051",22,26,2,2,91,3,1,0,2,0.976419746240329,0.997753644851907
"1052",22,18,2,1,92,2,1,1,4,0.671169246947788,0.680555662579391
"1053",22,34,2,2,93,1,1,0,3,0.656655958832203,0.622371436305003
"1054",22,36,2,1,94,2,2,0,2,0.76904052234594,0.758084476861982
"1055",22,21,2,1,95,2,2,0,3,0.715215670988121,0.66467330428747
"1056",22,21,2,2,96,2,1,0,3,0.776891084670061,0.713672540874693
"1057",22,36,2,1,97,1,1,1,5,0.31495588706352,0.330330873526616
"1058",22,36,2,1,98,2,1,1,3,0.675087901673143,0.692131506429747
"1059",22,21,2,2,99,3,2,1,2,0.939071010248677,0.963205666122101
"1060",22,33,2,1,100,2,1,1,3,0.713413848802291,0.772107539659917
"1061",22,26,2,1,101,3,2,0,2,0.653273974871538,0.705033011333835
"1062",22,18,2,2,102,1,2,1,4,0.347851253490753,0.269803469916534
"1063",22,34,2,1,103,1,1,1,5,0.372582999217529,0.417363110210326
"1064",22,36,2,1,104,1,1,1,4,0.550035633101335,0.522389482981564
"1065",22,21,2,1,105,1,1,1,5,0.446494162997368,0.387401616547506
"1066",22,21,2,1,106,2,2,0,2,0.554001178844423,0.541107297703872
"1067",22,36,2,1,107,2,2,0,2,0.827429625336938,0.76046662390124
"1068",22,36,2,2,108,3,1,0,1,0.643084216108103,0.657881110395502
"1069",22,21,2,1,109,2,1,1,3,0.590138585740499,0.530808217513551
"1070",22,33,2,1,110,3,1,1,3,0.596575061145566,0.471626023771043
"1071",22,26,2,2,111,2,2,1,4,0.702780347716632,0.664043799399032
"1072",22,18,2,2,112,3,1,0,2,0.458711471724392,0.534010670641479
"1073",22,34,2,1,113,3,1,1,3,0.973779960298863,0.881470263562717
"1074",22,36,2,2,114,2,2,1,3,0.784348342497635,0.791000479197694
"1075",22,21,2,2,115,2,1,0,2,0.538430911823946,0.462646248578019
"1076",22,21,2,2,116,2,2,1,4,0.523645284601539,0.49695195004806
"1077",22,36,2,1,117,2,1,1,4,0.560692773012885,0.422915946365759
"1078",22,36,2,1,118,1,1,1,5,0.350391557308367,0.399756552888049
"1079",22,21,2,1,119,1,1,1,4,0.316592346729947,0.191702703925391
"1080",22,33,2,2,120,3,1,0,1,1.1642605563229,1.19724745655171
"1081",22,26,2,1,121,2,2,0,3,0.681721991915874,0.637592594210549
"1082",22,18,2,1,122,3,1,1,3,1.03363737801816,1.03728483271795
"1083",22,34,2,2,123,2,2,1,3,0.822488711703111,0.777556173230936
"1084",22,36,2,2,124,1,2,1,5,0.340940278267008,0.291629019965
"1085",22,21,2,2,125,2,1,0,2,0.660506204590993,0.628926955208665
"1086",22,21,2,2,126,1,2,1,4,0.464149590562291,0.477134926745845
"1087",22,36,2,2,127,1,1,0,4,0.426564853434416,0.449754772727307
"1088",22,36,2,2,128,2,2,1,3,0.457786595042786,0.472344282900809
"1089",22,21,2,2,129,3,2,1,2,0.605373087405828,0.622525732380148
"1090",22,33,2,1,130,1,1,1,4,0.491855402384427,0.53064931029681
"1091",22,26,2,1,131,3,1,1,2,0.847876283403957,0.846284597665843
"1092",22,18,2,1,132,2,2,0,3,0.828843304359088,0.829186491672854
"1093",22,34,2,1,133,1,1,1,5,0.319396735951371,0.310217177426883
"1094",22,36,2,1,134,3,1,1,3,0.843260719112426,0.870535488930571
"1095",22,21,2,2,135,3,1,0,1,1.18355251884814,1.16331741854903
"1096",22,21,2,1,136,1,1,1,5,0.328182774609216,0.347236598311358
"1097",22,36,2,1,137,1,1,1,4,0.392381767493347,0.477156044586394
"1098",22,36,2,2,138,1,2,1,4,0.378970622613121,0.33362347471308
"1099",22,21,2,1,139,1,1,1,4,0.398329788924769,0.327073767194669
"1100",22,33,2,2,140,1,2,1,4,0.323393168822162,0.303357431289157
"1101",22,26,2,1,141,3,2,0,1,0.842465645764376,0.807558143993841
"1102",22,18,2,1,142,2,2,0,3,0.580744550696582,0.565609468597408
"1103",22,34,2,1,143,3,1,1,2,0.882573319215691,0.917119465884099
"1104",22,36,2,1,144,3,2,0,1,0.878282655321699,0.915999875750536
"1105",22,21,2,1,145,3,1,1,2,0.709651463486082,0.744082289135711
"1106",22,21,2,1,146,3,1,1,3,0.718428156228296,0.659407239158857
"1107",22,36,2,2,147,1,2,1,5,0.416460938098341,0.546587455983968
"1108",22,36,2,2,148,3,1,0,2,0.951828307135463,0.957100293675907
"1109",22,21,2,2,149,2,2,1,3,0.610958635977324,0.597187264343355
"1110",22,33,2,2,150,2,1,0,3,0.541912891412558,0.528090334292915
"1111",22,26,2,2,151,2,2,1,3,0.593747582232113,0.547099251006846
"1112",22,18,2,2,152,2,1,0,2,0.67476060160198,0.623896951095438
"1113",22,34,2,2,153,3,2,1,3,0.805612864010556,0.79320947414062
"1114",22,36,2,1,154,3,2,0,1,0.532517817531819,0.487191889906971
"1115",22,21,2,1,155,2,1,1,4,0.544112173176634,0.617574235553955
"1116",22,21,2,2,156,2,2,1,4,0.482389566305159,0.436485684928331
"1117",22,36,2,2,157,1,1,0,4,0.531192595301393,0.572066224268302
"1118",22,36,2,2,158,3,1,0,1,0.717671867763985,0.801826354883316
"1119",22,21,2,2,159,2,2,1,4,0.796631027850663,0.830909645884808
"1120",22,33,2,2,160,1,2,1,4,0.483235785338048,0.473374145295062
"1121",22,26,2,2,161,1,2,1,4,0.350170868121828,0.38315986706247
"1122",22,18,2,1,162,1,2,0,4,0.491128110239625,0.6302035075023
"1123",22,34,2,2,163,1,2,1,5,0.41343826858379,0.370934933826886
"1124",22,36,2,1,164,3,2,0,1,0.652283516128896,0.640049458658438
"1125",22,21,2,2,165,1,2,1,5,0.319407780331194,0.218323490349737
"1126",22,21,2,2,166,1,1,0,3,0.628484692464685,0.605785548377927
"1127",22,36,2,2,167,2,2,1,3,0.625653484249335,0.574945596144258
"1128",22,36,2,2,168,2,1,0,3,0.446538490875269,0.454914549036854
"1129",22,21,2,1,169,3,1,1,3,0.789503204326458,0.679861528457935
"1130",22,33,2,2,170,1,2,1,4,0.289819815318694,0.301145860681858
"1131",22,26,2,2,171,2,2,1,4,0.582000737594634,0.54512907763545
"1132",22,18,2,2,172,2,2,1,4,0.603348860289705,0.525710927521818
"1133",22,34,2,1,173,2,2,0,2,0.719906761542448,0.783672355406808
"1134",22,36,2,2,174,3,1,0,2,0.829785755226681,0.781180751051413
"1135",22,21,2,2,175,2,2,1,3,0.644769485473077,0.563139169361935
"1136",22,21,2,1,176,3,2,0,2,1.06212643643007,1.1139317958877
"1137",22,36,2,2,177,3,1,0,1,0.408422182664191,0.374752523435117
"1138",22,36,2,1,178,3,1,1,3,1.1213363322236,1.22038812065715
"1139",22,21,2,1,179,2,2,0,2,0.493350428322584,0.421606793044185
"1140",22,33,2,2,180,1,2,1,4,0.510187995227131,0.457790040618731
"1141",22,26,2,1,181,1,1,1,5,0.3496495799857,0.404600539759648
"1142",22,18,2,1,182,2,2,0,3,0.976289353518119,0.864684016624449
"1143",22,34,2,2,183,1,1,0,4,0.43503616408596,0.472015955919369
"1144",22,36,2,1,184,2,2,0,2,0.620231722986667,0.59149018722807
"1145",22,21,2,2,185,1,2,1,5,0.365166036602704,0.316165647280546
"1146",22,21,2,2,186,2,1,0,2,0.540723828929607,0.530758064775803
"1147",22,36,2,2,187,1,2,1,4,0.521171135005082,0.517055562920836
"1148",22,36,2,1,188,1,1,1,4,0.395326965572598,0.463903501816948
"1149",22,21,2,1,189,2,2,0,3,0.924656167507707,0.882579617771818
"1150",22,33,2,1,190,1,1,1,4,0.428010806598828,0.339948218524726
"1151",22,26,2,2,191,1,2,1,4,0.401866532203424,0.423010274456306
"1152",22,18,2,2,192,2,1,0,3,0.79389360714996,0.86016895968787
"1153",22,34,2,1,193,3,1,1,3,0.928627257250954,0.889835258610534
"1154",22,36,2,1,194,3,1,1,2,0.84337862809993,0.828444581058978
"1155",22,21,2,2,195,2,2,1,3,0.572606488074749,0.497474963092598
"1156",22,21,2,1,196,2,1,1,3,0.659655713487623,0.685799689276622
"1157",22,36,2,1,197,1,1,1,4,0.324361612648421,0.352806773202973
"1158",22,36,2,2,198,1,2,1,4,0.342225779726153,0.382540647075848
"1159",22,21,2,2,199,2,1,0,3,0.941787430472853,0.975062535351142
"1160",22,33,2,2,200,1,2,1,4,0.541781793993155,0.669764595603582
"1161",22,26,2,1,201,3,1,1,2,0.59138508917256,0.665646584256498
"1162",22,18,2,1,202,2,1,1,3,0.508958061396851,0.416769863463209
"1163",22,34,2,1,203,3,2,0,1,1.31227191778113,1.36908065353587
"1164",22,36,2,2,204,3,2,1,3,0.934520401775808,0.889181221917003
"1165",22,21,2,1,205,2,1,1,3,0.758775979156502,0.770622240649623
"1166",22,21,2,1,206,3,2,0,2,0.462128051476341,0.497170919183354
"1167",22,36,2,2,207,2,1,0,2,0.663126498802077,0.632969671676988
"1168",22,36,2,2,208,3,1,0,1,0.989334110893855,0.952574482174398
"1169",22,21,2,1,209,2,1,1,3,0.663880740878259,0.711617755332221
"1170",22,33,2,1,210,2,1,1,4,0.302690200072957,0.379501834386431
"1171",22,26,2,1,211,1,1,1,5,0.607737972199627,0.619494738565438
"1172",22,18,2,2,212,3,2,1,2,1.14614444011125,1.07333702393061
"1173",22,34,2,2,213,3,2,1,3,0.799080012166685,0.789318936433604
"1174",22,36,2,1,214,2,1,1,4,0.698949228673101,0.688175121730896
"1175",22,21,2,2,215,3,1,0,2,0.79150961760026,0.877503100699373
"1176",22,21,2,1,216,3,1,1,2,0.761140973155545,0.728404945845536
"1177",22,36,2,2,217,1,2,1,5,0.239157349512896,0.287030245147447
"1178",22,36,2,2,218,2,2,1,4,0.579412317072515,0.570209646414739
"1179",22,21,2,1,219,2,2,0,2,0.633781261657657,0.542232511802789
"1180",22,33,2,2,220,3,2,1,2,0.723994587956197,0.779502356791597
"1181",22,26,2,1,221,1,1,1,4,0.319570868683846,0.369865123445886
"1182",22,18,2,2,222,1,2,1,4,0.378636470774385,0.377801653154114
"1183",22,34,2,2,223,3,1,0,1,0.415283467241556,0.354236727914456
"1184",22,36,2,1,224,2,2,0,3,0.661657381176017,0.746799218339607
"1185",22,21,2,2,225,2,1,0,2,0.741212243348062,0.753642777674557
"1186",22,21,2,1,226,1,1,1,4,0.257281053096338,0.216556839620376
"1187",22,36,2,2,227,1,2,1,5,0.633709742635892,0.671241871969662
"1188",22,36,2,2,228,2,1,0,3,0.796149683973728,0.789943641056224
"1189",22,21,2,1,229,3,1,1,3,0.604313789152376,0.680404448850418
"1190",22,33,2,2,230,2,1,0,2,0.663331404445446,0.566061323028111
"1191",22,26,2,2,231,3,1,0,1,1.68165961594467,1.68686258561024
"1192",22,18,2,1,232,2,2,0,3,0.7391761129827,0.700980582837237
"1193",22,34,2,1,233,2,1,1,3,0.325180697495555,0.370364444383938
"1194",22,36,2,1,234,3,2,0,2,1.29067165395557,1.30933840300067
"1195",22,21,2,2,235,3,1,0,1,0.452495940081917,0.511020669826429
"1196",22,21,2,2,236,1,2,1,5,0.366478785661171,0.386493151946478
"1197",22,36,2,1,237,3,2,0,2,1.37131085570861,1.31248871847223
"1198",22,36,2,2,238,2,2,1,3,0.61832014131514,0.684987203228004
"1199",22,21,2,1,239,3,1,1,3,0.906088438549975,0.865345018243451
"1200",22,33,2,1,240,3,2,0,2,0.93581664446197,0.941784605448553
"1201",21,26,1,2,1,3,2,1,3,0.741085167347784,0.645581909915182
"1202",21,34,1,2,2,3,2,1,3,0.600584303321001,0.519208935205966
"1203",21,24,1,1,3,3,1,1,2,0.852047014506837,0.81040414947972
"1204",21,19,1,2,4,3,1,0,1,0.833526302814717,0.807086695350563
"1205",21,38,1,1,5,3,1,1,2,0.889916439577888,0.835928211026502
"1206",21,35,1,1,6,1,1,1,4,0.308384712998421,0.365552943189338
"1207",21,21,1,2,7,1,2,1,4,0.371840002022067,0.331769922207177
"1208",21,19,1,1,8,3,2,0,1,1.04276411503646,1.0023875885345
"1209",21,23,1,1,9,2,2,0,2,0.875204429357557,0.85589299836784
"1210",21,29,1,2,10,2,2,1,4,0.832712112716213,0.844754190056825
"1211",21,26,1,2,11,3,2,1,3,0.708235124743015,0.733161161142997
"1212",21,34,1,1,12,3,2,0,2,0.437024380880592,0.454308691292302
"1213",21,24,1,2,13,2,2,1,4,0.676157723341658,0.608183597717906
"1214",21,19,1,1,14,2,1,1,3,0.54885186210078,0.544632926795612
"1215",21,38,1,1,15,3,1,1,3,0.847609098950703,0.818680043110978
"1216",21,35,1,2,16,1,2,1,4,0.502402004617772,0.52873398303239
"1217",21,21,1,2,17,2,2,1,4,0.603982848931876,0.523064188357818
"1218",21,19,1,2,18,1,2,1,5,0.466293513558702,0.480477980358121
"1219",21,23,1,2,19,1,1,0,4,0.472040449528924,0.434247748664259
"1220",21,29,1,1,20,1,2,0,3,0.506793199579414,0.528641195636217
"1221",21,26,1,2,21,3,1,0,2,1.47078951117439,1.4726950216017
"1222",21,34,1,1,22,1,1,1,5,0.541093544724325,0.598729682822406
"1223",21,24,1,1,23,2,2,0,2,0.752621500101958,0.809591505591406
"1224",21,19,1,2,24,2,2,1,3,0.600915970300735,0.604518426242792
"1225",21,38,1,2,25,1,2,1,5,0.404109644407304,0.442713228596459
"1226",21,35,1,2,26,3,1,0,2,1.20129366475662,1.20989429863092
"1227",21,21,1,1,27,2,2,0,3,0.56014982191013,0.537470789227043
"1228",21,19,1,1,28,2,1,1,3,0.630509226543864,0.521325014930061
"1229",21,23,1,1,29,2,1,1,4,0.52417351799345,0.472663096494102
"1230",21,29,1,1,30,2,2,0,3,0.820824141564799,0.768459300537563
"1231",21,26,1,1,31,3,1,1,2,0.723702256483957,0.641710324839492
"1232",21,34,1,1,32,1,1,1,5,0.334094204481895,0.285126537619484
"1233",21,24,1,2,33,1,2,1,5,0.277486771560722,0.285113744041988
"1234",21,19,1,2,34,1,2,1,4,0.435670939526186,0.485577674604398
"1235",21,38,1,1,35,2,2,0,3,0.916574204260798,0.917647242491639
"1236",21,35,1,2,36,2,2,1,4,0.651500859281101,0.736934284785822
"1237",21,21,1,1,37,3,2,0,2,1.58632948938541,1.64205354364117
"1238",21,19,1,2,38,1,2,1,5,0.587229246839633,0.593558620548435
"1239",21,23,1,2,39,3,2,1,3,0.830871004238574,0.806361005057487
"1240",21,29,1,1,40,2,1,1,4,0.598246209815559,0.660673748245144
"1241",21,26,1,2,41,2,2,1,3,0.43048081254266,0.340320372626517
"1242",21,34,1,2,42,2,2,1,4,0.640418244185496,0.679760230036672
"1243",21,24,1,1,43,2,2,0,3,0.611245550208996,0.690451793657041
"1244",21,19,1,1,44,1,1,1,5,0.533839722851672,0.460308556246294
"1245",21,38,1,1,45,3,1,1,3,0.565827261115781,0.603877413875469
"1246",21,35,1,1,46,3,1,1,2,1.00587617838221,1.03612129588749
"1247",21,21,1,2,47,3,1,0,1,1.20607447321301,1.16135759089487
"1248",21,19,1,2,48,2,1,0,3,0.76086773203347,0.723894435408108
"1249",21,23,1,1,49,1,1,1,5,0.369042218426625,0.374960931593019
"1250",21,29,1,1,50,2,2,0,2,1.01057247061795,0.930823558410796
"1251",21,26,1,2,51,3,1,0,2,1.75675969366807,1.67358858788817
"1252",21,34,1,1,52,3,2,0,2,1.17204891975699,1.14521123972123
"1253",21,24,1,1,53,2,1,1,4,0.672109198614731,0.698415828051786
"1254",21,19,1,1,54,2,1,1,3,0.585304473333351,0.662674959028483
"1255",21,38,1,1,55,3,1,1,2,0.951722614764135,0.971441748797498
"1256",21,35,1,2,56,3,1,0,2,0.989492202559257,0.991318399139308
"1257",21,21,1,1,57,2,2,0,3,0.620103158853988,0.684907200754257
"1258",21,19,1,1,58,2,1,1,3,0.592827984103687,0.557034500183492
"1259",21,23,1,1,59,1,2,0,4,0.573722208332706,0.606997442511855
"1260",21,29,1,2,60,2,1,0,2,0.61005995015939,0.634344010078118
"1261",21,26,1,1,61,1,1,1,4,0.277467367183405,0.299053058405531
"1262",21,34,1,1,62,1,1,1,4,0.29969891260679,0.286397936543267
"1263",21,24,1,1,63,3,1,1,2,0.808810483535939,0.79701313247941
"1264",21,19,1,2,64,2,2,1,3,0.759829352989261,0.860867636791617
"1265",21,38,1,2,65,2,1,0,2,0.883876799169199,0.837243366455826
"1266",21,35,1,1,66,2,1,1,3,0.3604737155688,0.317627406384754
"1267",21,21,1,1,67,2,1,1,3,0.710114639417652,0.669118767182139
"1268",21,19,1,2,68,2,1,0,3,0.681452973417924,0.711752294038488
"1269",21,23,1,1,69,1,1,1,4,0.37182345800457,0.40982166016465
"1270",21,29,1,2,70,3,2,1,2,0.783214137994336,0.828862221206549
"1271",21,26,1,1,71,3,1,1,2,0.990558763153481,0.994141168870683
"1272",21,34,1,2,72,3,1,0,2,0.766977516951211,0.846952737115844
"1273",21,24,1,1,73,1,2,0,3,0.590002133019945,0.624680491640226
"1274",21,19,1,1,74,3,1,1,3,0.57784694118683,0.514466220108036
"1275",21,38,1,2,75,2,1,0,3,0.599348144240223,0.658474188991536
"1276",21,35,1,1,76,1,1,1,4,0.309084443975534,0.343072411025951
"1277",21,21,1,1,77,1,1,1,5,0.355847282531535,0.349811821500231
"1278",21,19,1,2,78,3,2,1,2,0.745318556025591,0.700543742832861
"1279",21,23,1,1,79,1,2,0,3,0.651206837900356,0.610616746008135
"1280",21,29,1,2,80,2,2,1,3,0.630202736309324,0.594249524447009
"1281",21,26,1,1,81,2,2,0,3,0.689906237083869,0.731123064797741
"1282",21,34,1,2,82,1,2,1,4,0.483028089249755,0.478580193186744
"1283",21,24,1,2,83,1,2,1,5,0.39413634378352,0.388581622002641
"1284",21,19,1,1,84,2,1,1,4,0.522039920037108,0.511253384865803
"1285",21,38,1,1,85,3,1,1,3,0.714811284459626,0.769652163294949
"1286",21,35,1,2,86,2,1,0,2,0.553836611588767,0.565497822198038
"1287",21,21,1,2,87,1,2,1,5,0.433194515471834,0.388185569102007
"1288",21,19,1,1,88,3,2,0,2,0.850182059344063,0.873921506951192
"1289",21,23,1,2,89,3,1,0,1,1.09850982755891,1.12137116717302
"1290",21,29,1,1,90,1,2,0,4,0.480442417136769,0.529942161626811
"1291",21,26,1,1,91,3,1,1,2,1.18084329939724,1.17108473154546
"1292",21,34,1,2,92,3,1,0,2,0.944410128184944,0.87734517438796
"1293",21,24,1,1,93,2,2,0,2,0.609950329820411,0.606917629000829
"1294",21,19,1,2,94,2,2,1,3,0.630495832538602,0.625615451020353
"1295",21,38,1,2,95,3,1,0,1,0.526459588469446,0.532027356820783
"1296",21,35,1,2,96,2,2,1,3,0.482247748856978,0.443315835250151
"1297",21,21,1,2,97,2,2,1,4,0.578298959084919,0.474628610991532
"1298",21,19,1,2,98,3,2,1,3,0.737084728105201,0.812694853003542
"1299",21,23,1,2,99,1,2,1,5,0.397983950004132,0.362289726682779
"1300",21,29,1,2,100,1,2,1,4,0.453497233293304,0.527847979810006
"1301",21,26,1,1,101,3,2,0,1,1.32737262537993,1.32650098934995
"1302",21,34,1,1,102,1,2,0,4,0.456431527731981,0.42712897039556
"1303",21,24,1,1,103,3,1,1,2,0.698869993134332,0.643874263088414
"1304",21,19,1,1,104,1,2,0,3,0.552866499464612,0.530670856451761
"1305",21,38,1,1,105,3,1,1,3,0.691160653745031,0.738234941043865
"1306",21,35,1,2,106,3,1,0,2,1.57249946716841,1.6957539838163
"1307",21,21,1,1,107,2,2,0,3,0.397944305744585,0.43455027270977
"1308",21,19,1,2,108,2,2,1,4,0.590308165611837,0.495755216436532
"1309",21,23,1,1,109,3,1,1,3,0.6005456246233,0.618740293067667
"1310",21,29,1,1,110,3,2,0,1,1.1057480044356,1.11279535989111
"1311",21,26,1,1,111,1,1,1,4,0.428406968256541,0.450432652232547
"1312",21,34,1,1,112,1,1,1,4,0.321996711047614,0.280636944255725
"1313",21,24,1,2,113,2,1,0,3,0.844054861928867,0.857991038210081
"1314",21,19,1,2,114,1,2,1,4,0.334059798978997,0.35790825061517
"1315",21,38,1,2,115,1,2,1,4,0.276833726687754,0.282236792726775
"1316",21,35,1,2,116,3,2,1,2,0.702204288428471,0.755076388774529
"1317",21,21,1,2,117,1,2,1,4,0.366350939522292,0.401234725389932
"1318",21,19,1,2,118,1,2,1,4,0.372550346487576,0.41802295435676
"1319",21,23,1,1,119,1,1,1,5,0.312515820996668,0.28631610003796
"1320",21,29,1,1,120,2,2,0,3,0.835610512248275,0.869004894512309
"1321",21,26,1,2,121,2,1,0,2,0.729424092385047,0.810104650579925
"1322",21,34,1,1,122,3,1,1,2,1.16008256122208,1.19287931152087
"1323",21,24,1,2,123,3,1,0,2,1.55538095605097,1.57482337743236
"1324",21,19,1,2,124,3,1,0,1,0.552778593447815,0.528836279209002
"1325",21,38,1,2,125,1,1,0,4,0.634814315705194,0.572873140234451
"1326",21,35,1,2,126,1,2,1,4,0.409107002027872,0.387341269572201
"1327",21,21,1,1,127,3,2,0,1,0.909082564425989,0.910655107361
"1328",21,19,1,1,128,3,2,0,1,1.21221496635555,1.18385344147377
"1329",21,23,1,2,129,1,2,1,5,0.304882591661561,0.26393525950488
"1330",21,29,1,1,130,1,1,1,4,0.484553482866897,0.456934744871332
"1331",21,26,1,1,131,1,1,1,5,0.459275356921127,0.502366805906152
"1332",21,34,1,1,132,2,1,1,4,0.555240154850291,0.464694222192568
"1333",21,24,1,2,133,1,2,1,4,0.333763158648932,0.321462642278364
"1334",21,19,1,1,134,3,1,1,3,0.77152127210979,0.794239721059567
"1335",21,38,1,2,135,3,1,0,2,1.19745013612112,1.18546363015905
"1336",21,35,1,1,136,3,1,1,3,1.00336696330026,0.965345327433586
"1337",21,21,1,2,137,2,1,0,2,0.67078032850452,0.615752661911763
"1338",21,19,1,2,138,2,1,0,3,0.814850102430062,0.779761976266307
"1339",21,23,1,2,139,1,2,1,4,0.40198009134155,0.466243930518329
"1340",21,29,1,2,140,1,2,1,5,0.412828336187726,0.37835729214089
"1341",21,26,1,2,141,2,2,1,3,0.503697363876901,0.442120150108083
"1342",21,34,1,2,142,3,2,1,2,0.482445247167788,0.586656640739977
"1343",21,24,1,2,143,2,2,1,4,0.729658396901966,0.794198522184282
"1344",21,19,1,1,144,2,1,1,4,0.62329984909491,0.573440951333039
"1345",21,38,1,2,145,3,2,1,2,0.661042920831067,0.614560136670209
"1346",21,35,1,2,146,1,1,0,4,0.612550261870963,0.5941129887075
"1347",21,21,1,1,147,2,2,0,3,0.78020160003706,0.803215683788899
"1348",21,19,1,2,148,3,2,1,2,0.890596150220593,0.923836944731237
"1349",21,23,1,1,149,3,1,1,2,0.777269389065663,0.856796536028433
"1350",21,29,1,1,150,1,1,1,4,0.506425638419472,0.550558010588372
"1351",21,26,1,2,151,3,2,1,2,0.833367402555015,0.861550734998261
"1352",21,34,1,1,152,3,2,0,2,1.0596711413064,1.03924667104038
"1353",21,24,1,1,153,1,1,1,4,0.196645865588539,0.215082816133242
"1354",21,19,1,2,154,2,2,1,3,0.450543544629124,0.530351821937808
"1355",21,38,1,2,155,2,1,0,2,0.426347105254596,0.361804091582276
"1356",21,35,1,1,156,2,1,1,3,0.592681867315204,0.671662493560672
"1357",21,21,1,1,157,2,2,0,2,0.603659197515154,0.578560381732869
"1358",21,19,1,2,158,2,2,1,3,0.653632766242505,0.632558719230056
"1359",21,23,1,2,159,3,2,1,2,0.898759531955336,0.91026346812604
"1360",21,29,1,1,160,3,1,1,2,0.421620258006554,0.446635647682845
"1361",21,26,1,2,161,3,2,1,2,0.657463433225797,0.678979700714852
"1362",21,34,1,2,162,3,1,0,1,1.02700004668383,1.10895957551849
"1363",21,24,1,1,163,1,1,1,4,0.278786865170212,0.181310140609298
"1364",21,19,1,2,164,1,2,1,5,0.471046548771869,0.438815099698328
"1365",21,38,1,2,165,3,1,0,1,0.481331951446073,0.57743009413822
"1366",21,35,1,2,166,1,2,1,5,0.387419177381233,0.527013041797871
"1367",21,21,1,1,167,1,1,1,5,0.429804840093514,0.448077273296286
"1368",21,19,1,1,168,3,1,1,2,0.924096932783792,0.887205785873571
"1369",21,23,1,2,169,2,2,1,3,0.642602454169734,0.627138171321745
"1370",21,29,1,1,170,3,2,0,1,1.35395858127924,1.27825275867435
"1371",21,26,1,1,171,3,2,0,2,0.828088001161289,0.819332177388619
"1372",21,34,1,1,172,3,1,1,2,1.01597925242471,0.971212774323994
"1373",21,24,1,2,173,2,1,0,2,0.677227527615914,0.698865865423236
"1374",21,19,1,2,174,2,1,0,3,0.478761838960839,0.398141675119637
"1375",21,38,1,2,175,2,1,0,2,1.00796685531712,1.05748657319759
"1376",21,35,1,2,176,3,1,0,2,1.32343584577173,1.35814150318507
"1377",21,21,1,2,177,1,2,1,5,0.434463687753834,0.433784801817093
"1378",21,19,1,1,178,3,2,0,2,1.18600904634181,1.17946621933727
"1379",21,23,1,2,179,1,1,0,3,0.39651083872721,0.432298092126943
"1380",21,29,1,1,180,3,1,1,3,0.969863155703654,1.04882862665084
"1381",21,26,1,1,181,1,1,1,5,0.417640865808221,0.431587581153021
"1382",21,34,1,2,182,2,1,0,3,0.570749787814989,0.509570283102087
"1383",21,24,1,2,183,1,2,1,4,0.238041831711773,0.212593943724828
"1384",21,19,1,2,184,1,2,1,4,0.344415525167339,0.401637139579754
"1385",21,38,1,1,185,2,1,1,3,0.615587684846263,0.593693732554732
"1386",21,35,1,2,186,1,2,1,5,0.432779051965486,0.355806652971721
"1387",21,21,1,2,187,1,2,1,5,0.498457254347671,0.512110479337165
"1388",21,19,1,2,188,3,1,0,2,1.58145156566089,1.58192224393733
"1389",21,23,1,1,189,3,1,1,2,0.629165154413181,0.600103926026338
"1390",21,29,1,1,190,2,2,0,2,0.755593408356713,0.66877132253772
"1391",21,26,1,1,191,1,1,1,4,0.219328204013871,0.168884434859667
"1392",21,34,1,1,192,1,1,1,5,0.387867792782583,0.362261030619644
"1393",21,24,1,2,193,1,2,1,5,0.460102527978783,0.437052605636114
"1394",21,19,1,1,194,2,1,1,4,0.80798012902712,0.830914186817344
"1395",21,38,1,1,195,1,1,1,4,0.27792331991012,0.214968297403127
"1396",21,35,1,1,196,1,2,0,3,0.439340822011546,0.468444257724362
"1397",21,21,1,1,197,3,1,1,3,0.804967619224233,0.864046596159863
"1398",21,19,1,1,198,2,1,1,4,0.389524444183222,0.31678934131058
"1399",21,23,1,2,199,2,1,0,2,0.548036902584127,0.589732526205009
"1400",21,29,1,2,200,3,1,0,2,1.56815141905109,1.59158192797296
"1401",21,26,1,2,201,1,2,1,5,0.305822741411488,0.340194286700285
"1402",21,34,1,2,202,3,1,0,2,1.2943132333105,1.24955676728079
"1403",21,24,1,2,203,1,2,1,4,0.255543825336574,0.345734590361878
"1404",21,19,1,2,204,2,1,0,2,0.739079646747481,0.784267647300627
"1405",21,38,1,1,205,1,1,1,4,0.477400895797496,0.433575446800791
"1406",21,35,1,2,206,1,1,0,3,0.682071807197916,0.718524351270935
"1407",21,21,1,2,207,1,2,1,5,0.366538486665271,0.329680444721439
"1408",21,19,1,2,208,2,1,0,2,0.53860486066015,0.507653169531245
"1409",21,23,1,1,209,2,1,1,4,0.484573821835156,0.525851635583176
"1410",21,29,1,1,210,3,2,0,1,0.938087599316713,0.945307519884743
"1411",21,26,1,2,211,1,2,1,4,0.504039877374768,0.576434102738613
"1412",21,34,1,2,212,1,1,0,4,0.601137185779383,0.585886670861017
"1413",21,24,1,1,213,2,1,1,3,0.65523212908114,0.624845436945239
"1414",21,19,1,2,214,3,2,1,3,0.920931877584392,0.924368867301297
"1415",21,38,1,2,215,1,2,1,4,0.353177628752154,0.286984796238442
"1416",21,35,1,2,216,3,1,0,2,1.05047821894809,1.00786579338252
"1417",21,21,1,2,217,2,2,1,3,0.706358899672112,0.766512326128448
"1418",21,19,1,2,218,3,2,1,2,0.925471928746203,0.922351560471812
"1419",21,23,1,1,219,2,2,0,3,0.782080500352475,0.697361125673299
"1420",21,29,1,1,220,2,2,0,3,0.73094995657301,0.679900678896061
"1421",21,26,1,1,221,2,1,1,4,0.483180682369189,0.455817256628747
"1422",21,34,1,1,222,2,1,1,4,0.738175513486016,0.735582751749548
"1423",21,24,1,1,223,1,1,1,5,0.379436468244227,0.439790475182487
"1424",21,19,1,2,224,1,2,1,4,0.534238999020477,0.54674348692053
"1425",21,38,1,2,225,2,2,1,3,0.61467980019105,0.595037891873965
"1426",21,35,1,1,226,1,1,1,5,0.443535602354374,0.470022403440643
"1427",21,21,1,1,227,1,1,1,4,0.453336968743242,0.447963381709711
"1428",21,19,1,1,228,2,2,0,3,0.677219474326677,0.581437887875155
"1429",21,23,1,1,229,1,1,1,5,0.301092707658971,0.329141870428577
"1430",21,29,1,1,230,2,2,0,3,0.308784304319161,0.341509460233985
"1431",21,26,1,1,231,2,2,0,3,0.883873897385012,0.928174687490169
"1432",21,34,1,1,232,3,2,0,2,1.00227491843087,1.02134374935166
"1433",21,24,1,1,233,2,2,0,2,0.659717931645849,0.636022558246502
"1434",21,19,1,2,234,1,2,1,4,0.431399911151399,0.428400384428355
"1435",21,38,1,1,235,1,1,1,5,0.394233402175494,0.373104442860292
"1436",21,35,1,1,236,1,1,1,5,0.302578756464822,0.30202502680671
"1437",21,21,1,1,237,3,2,0,1,0.337897607209492,0.321180304812351
"1438",21,19,1,2,238,3,2,1,2,0.89431982314889,0.882894104175044
"1439",21,23,1,2,239,2,1,0,2,0.878461572873568,0.918263284484474
"1440",21,29,1,2,240,3,2,1,3,0.705459083428557,0.669946228967955
"1441",20,30,2,1,1,2,2,0,2,0.824339459669937,0.842230975815185
"1442",20,22,2,2,2,2,1,0,3,0.817600912287059,0.823743448609853
"1443",20,28,2,1,3,3,1,1,3,0.49897792382705,0.477198151129386
"1444",20,30,2,1,4,2,1,1,4,0.539067559691124,0.518917533550054
"1445",20,23,2,2,5,3,2,1,2,1.33980689416666,1.35914768950456
"1446",20,38,2,1,6,2,1,1,3,0.664147804702696,0.761593934441336
"1447",20,36,2,2,7,2,2,1,3,0.610526199110106,0.667811978326432
"1448",20,39,2,2,8,3,1,0,2,1.37660580644855,1.44567946596679
"1449",20,25,2,1,9,1,1,1,4,0.419510249773321,0.420176525783557
"1450",20,32,2,1,10,2,2,0,2,0.795984173402457,0.851955910490164
"1451",20,30,2,1,11,1,1,1,5,0.374450956828367,0.406570748080614
"1452",20,22,2,1,12,3,2,0,1,0.750203205961421,0.714757241624125
"1453",20,28,2,1,13,3,1,1,2,0.930228940311522,0.972601549217365
"1454",20,30,2,1,14,3,1,1,3,0.764213455025938,0.772614259680042
"1455",20,23,2,2,15,1,2,1,5,0.395681279985108,0.355586447690958
"1456",20,38,2,2,16,2,1,0,3,0.64806131914951,0.700658022967587
"1457",20,36,2,1,17,2,1,1,4,0.537511969784355,0.514842127235893
"1458",20,39,2,1,18,2,1,1,4,0.48354477908096,0.405168956001604
"1459",20,25,2,1,19,2,2,0,3,0.528663526609981,0.573634472591281
"1460",20,32,2,2,20,1,2,1,4,0.562575828244162,0.555174633325676
"1461",20,30,2,2,21,3,1,0,1,0.600142701039761,0.684138409296717
"1462",20,22,2,1,22,2,1,1,4,0.733555190421884,0.695751559502281
"1463",20,28,2,2,23,2,2,1,4,0.404088310405936,0.393064874588174
"1464",20,30,2,1,24,2,2,0,2,0.831098465201805,0.778741682849535
"1465",20,23,2,2,25,3,2,1,2,1.13591531221674,1.12528502867588
"1466",20,38,2,1,26,1,2,0,4,0.676455592160083,0.728828069085501
"1467",20,36,2,1,27,3,2,0,1,0.885938302880014,0.836469975505622
"1468",20,39,2,2,28,3,1,0,2,1.51762395297551,1.54608406028186
"1469",20,25,2,2,29,1,2,1,4,0.292739713475479,0.244290330523607
"1470",20,32,2,1,30,3,2,0,2,0.80292680911735,0.776632399028561
"1471",20,30,2,2,31,1,2,1,4,0.38464918262406,0.38278958526562
"1472",20,22,2,1,32,1,1,1,4,0.457492113851111,0.450863630832011
"1473",20,28,2,1,33,1,1,1,5,0.547399753016461,0.541722993778182
"1474",20,30,2,1,34,3,2,0,2,0.858332186376965,0.86459103332188
"1475",20,23,2,1,35,2,1,1,4,0.707578985806973,0.689598533335973
"1476",20,38,2,1,36,3,1,1,2,0.568249247382219,0.602652463819745
"1477",20,36,2,2,37,3,1,0,1,0.666997258477948,0.635900999209744
"1478",20,39,2,2,38,2,2,1,3,0.621526465720395,0.626878694071494
"1479",20,25,2,2,39,1,2,1,4,0.476451487505165,0.585852483098192
"1480",20,32,2,2,40,2,1,0,3,0.579064034854685,0.546142962140439
"1481",20,30,2,1,41,3,1,1,2,0.557956979356565,0.584533211028989
"1482",20,22,2,2,42,3,2,1,2,0.742300758580421,0.732457878379454
"1483",20,28,2,1,43,2,1,1,4,0.512114591185639,0.492284159469987
"1484",20,30,2,2,44,3,1,0,2,0.848020313821258,0.821158290176572
"1485",20,23,2,2,45,3,2,1,3,0.729555452591584,0.741584239470111
"1486",20,38,2,1,46,1,1,1,4,0.502972054293717,0.487640190461385
"1487",20,36,2,2,47,1,1,0,4,0.378385246576986,0.408149139577768
"1488",20,39,2,1,48,3,1,1,3,0.48144993574352,0.414844383644246
"1489",20,25,2,2,49,1,2,1,5,0.466189002076077,0.472072541267914
"1490",20,32,2,1,50,2,2,0,2,0.918359462083417,0.961519259372329
"1491",20,30,2,2,51,2,2,1,3,0.623164644092957,0.597249178148053
"1492",20,22,2,1,52,2,2,0,3,0.614025502729214,0.595844926501827
"1493",20,28,2,1,53,3,2,0,2,1.14875402850641,1.16000738410151
"1494",20,30,2,1,54,3,2,0,2,1.34009170487056,1.31944296507059
"1495",20,23,2,2,55,2,1,0,3,0.67595345619144,0.668598668755579
"1496",20,38,2,2,56,3,1,0,2,0.549518308467455,0.445314334013979
"1497",20,36,2,2,57,3,2,1,2,0.8230383993111,0.904851147502384
"1498",20,39,2,2,58,1,2,1,5,0.379433488794809,0.383189925007782
"1499",20,25,2,1,59,1,1,1,5,0.328797624110677,0.261733521483493
"1500",20,32,2,2,60,1,2,1,4,0.379046163177503,0.407817433982497
"1501",20,30,2,1,61,1,1,1,4,0.396432001462653,0.337985287138787
"1502",20,22,2,2,62,3,1,0,2,0.624119425692037,0.652188339750134
"1503",20,28,2,1,63,2,2,0,3,0.617471830377308,0.561909905381964
"1504",20,30,2,2,64,3,1,0,1,1.32128843563479,1.28594323260007
"1505",20,23,2,1,65,3,1,1,3,0.65235614662969,0.658130637352784
"1506",20,38,2,2,66,2,2,1,3,0.724922382715156,0.663992599524525
"1507",20,36,2,1,67,2,1,1,3,0.810308489777199,0.890526808943054
"1508",20,39,2,1,68,3,2,0,2,1.47471374477342,1.42204168799824
"1509",20,25,2,2,69,1,2,1,4,0.293648043186658,0.258898530856631
"1510",20,32,2,1,70,3,2,0,2,1.45502374573811,1.54496152384645
"1511",20,30,2,1,71,3,2,0,2,1.04882507288766,1.09517955588644
"1512",20,22,2,1,72,2,2,0,2,0.552049068762157,0.549929613187008
"1513",20,28,2,2,73,1,1,0,3,0.675039501257108,0.686206785777655
"1514",20,30,2,2,74,3,1,0,2,1.15412889250219,1.12108772043227
"1515",20,23,2,1,75,2,2,0,3,0.573409567848593,0.523830437002054
"1516",20,38,2,1,76,1,1,1,5,0.446512917477243,0.433375895407655
"1517",20,36,2,2,77,1,2,1,5,0.505105988355496,0.530680596683321
"1518",20,39,2,2,78,2,2,1,4,0.577280064865189,0.599858378213074
"1519",20,25,2,2,79,1,2,1,4,0.286927523716228,0.336748976822294
"1520",20,32,2,2,80,1,2,1,4,0.370085738840504,0.357418074041362
"1521",20,30,2,1,81,2,2,0,3,0.593950380580199,0.612728090648531
"1522",20,22,2,2,82,3,1,0,2,1.13112530283772,1.17771387792447
"1523",20,28,2,2,83,2,2,1,3,0.646219008503785,0.646220937165396
"1524",20,30,2,2,84,1,2,1,5,0.263296926312951,0.353356111629393
"1525",20,23,2,1,85,1,2,0,3,0.660763587485727,0.664837740086863
"1526",20,38,2,2,86,3,1,0,2,0.942917086570372,0.950820989792759
"1527",20,36,2,1,87,1,1,1,5,0.463791503337796,0.436130691854106
"1528",20,39,2,1,88,2,1,1,3,0.621275688158559,0.685876250351913
"1529",20,25,2,1,89,1,2,0,4,0.647438050902033,0.652239206232707
"1530",20,32,2,2,90,3,1,0,2,0.666855283275555,0.708725280416658
"1531",20,30,2,1,91,2,2,0,3,0.747048918685725,0.79451376989216
"1532",20,22,2,1,92,1,1,1,5,0.245327857162004,0.202382488700889
"1533",20,28,2,1,93,1,1,1,4,0.377868223955594,0.318367232442419
"1534",20,30,2,2,94,2,1,0,2,0.776644677600845,0.743108027010565
"1535",20,23,2,1,95,2,1,1,3,0.647502952235366,0.74511407030884
"1536",20,38,2,2,96,2,2,1,4,0.577292096911177,0.534217019957997
"1537",20,36,2,2,97,1,1,0,4,0.498306506287522,0.501092233011358
"1538",20,39,2,1,98,2,1,1,3,0.776144589945087,0.786259538549057
"1539",20,25,2,1,99,3,1,1,2,0.29049293812905,0.285870998431922
"1540",20,32,2,1,100,1,1,1,5,0.472129969074856,0.376798064840645
"1541",20,30,2,2,101,1,2,1,5,0.332040375117026,0.318698246286516
"1542",20,22,2,2,102,3,2,1,2,0.67352780399002,0.71104084109669
"1543",20,28,2,1,103,1,1,1,4,0.312526938708955,0.34624549319548
"1544",20,30,2,1,104,3,1,1,3,0.692669621705722,0.705912489208288
"1545",20,23,2,2,105,2,2,1,3,0.662379680794482,0.650764158039308
"1546",20,38,2,1,106,3,1,1,3,0.685669728143197,0.719971542590001
"1547",20,36,2,2,107,1,2,1,4,0.392490847842217,0.369822429489725
"1548",20,39,2,1,108,3,2,0,1,0.60351705217392,0.593829429126006
"1549",20,25,2,2,109,1,2,1,4,0.371107095180583,0.392157184270363
"1550",20,32,2,2,110,3,2,1,2,0.694642553374836,0.680281194306369
"1551",20,30,2,2,111,1,1,0,3,0.461341993443375,0.453311453343581
"1552",20,22,2,1,112,2,2,0,3,0.79962494150136,0.855411002988407
"1553",20,28,2,1,113,3,2,0,1,1.60230728044079,1.64838629688592
"1554",20,30,2,1,114,1,1,1,5,0.367798945139201,0.274881540648416
"1555",20,23,2,2,115,2,2,1,3,0.536089207746537,0.591664574212618
"1556",20,38,2,2,116,1,2,1,4,0.399969925413706,0.359664784668046
"1557",20,36,2,1,117,3,2,0,2,0.947249258691367,0.987561474115013
"1558",20,39,2,2,118,2,1,0,3,0.674199557416175,0.565699623399642
"1559",20,25,2,1,119,3,2,0,2,1.01399147650966,0.991565699204749
"1560",20,32,2,2,120,1,2,1,4,0.588815287388056,0.501766395845394
"1561",20,30,2,1,121,1,1,1,5,0.34473269607597,0.380854223582872
"1562",20,22,2,2,122,3,1,0,2,0.815520382819423,0.76059040093953
"1563",20,28,2,1,123,1,1,1,4,0.418447548629996,0.461717250181478
"1564",20,30,2,2,124,2,2,1,3,0.45713743992998,0.442138613006055
"1565",20,23,2,2,125,1,1,0,4,0.461980029706374,0.498190779652989
"1566",20,38,2,1,126,3,1,1,3,0.796095379135023,0.831189679755674
"1567",20,36,2,1,127,3,1,1,3,0.616481381629322,0.531120757435677
"1568",20,39,2,2,128,1,2,1,5,0.329830981063327,0.345667898931281
"1569",20,25,2,1,129,2,2,0,2,0.876376979783033,0.812654468506978
"1570",20,32,2,1,130,3,1,1,2,0.834017480559091,0.909665261056924
"1571",20,30,2,2,131,2,1,0,3,0.717227961649717,0.72619060997347
"1572",20,22,2,2,132,1,2,1,5,0.453303020653923,0.463375671607309
"1573",20,28,2,2,133,3,1,0,1,1.12994863326368,1.07297449376126
"1574",20,30,2,2,134,2,1,0,2,0.661035924286971,0.604090957845178
"1575",20,23,2,1,135,3,2,0,2,0.971956479855856,0.926452458996581
"1576",20,38,2,1,136,1,2,0,4,0.603544499950802,0.602740081805713
