"","subj_no","age","group","stim","trial","difficulty","resp","corr","conf","RT_day1","RT_day2"
"1",27,25,1,1,1,2,2,0,3,0.939298698398282,0.953219321851019
"2",27,31,1,1,2,1,1,1,4,0.318372027483652,0.280992528495976
"3",27,27,1,2,3,1,2,1,5,0.515325696154003,0.568565710791299
"4",27,37,1,1,4,2,1,1,3,0.65715362549688,0.694216685326828
"5",27,39,1,2,5,3,2,1,2,1.03119633075904,1.05834173908998
"6",27,40,1,1,6,3,2,0,1,0.875310917582259,0.911782163919528
"7",27,22,1,2,7,3,2,1,2,0.891183349388994,0.894102539399112
"8",27,30,1,2,8,1,2,1,5,0.306543988111433,0.333869848625295
"9",27,24,1,1,9,3,1,1,3,0.708721006723383,0.632370335461155
"10",27,22,1,1,10,2,1,1,4,0.756819732169651,0.828315385521117
"11",27,25,1,2,11,2,2,1,3,0.709371209490815,0.808693892174755
"12",27,31,1,2,12,3,2,1,2,1.04635721567326,1.07420975268232
"13",27,27,1,2,13,2,2,1,4,0.684993180190361,0.657215853959128
"14",27,37,1,2,14,2,2,1,4,0.707370616505126,0.640411004858116
"15",27,39,1,1,15,1,1,1,5,0.37799270312916,0.454710337668092
"16",27,40,1,1,16,2,2,0,3,0.848415372864849,0.810969932126846
"17",27,22,1,2,17,3,2,1,2,1.29088226345588,1.26309899476331
"18",27,30,1,1,18,1,1,1,5,0.419643487613601,0.335697184627153
"19",27,24,1,2,19,1,2,1,4,0.467283310198841,0.421443895355882
"20",27,22,1,2,20,2,2,1,3,0.825183921099073,0.823687065418125
"21",27,25,1,1,21,3,2,0,1,1.29481953758349,1.23349123720576
"22",27,31,1,2,22,3,2,1,3,0.636934170096504,0.710134944299264
"23",27,27,1,2,23,1,2,1,5,0.280972629882071,0.274156994456859
"24",27,37,1,2,24,3,1,0,1,1.35809502266647,1.29623019097945
"25",27,39,1,1,25,1,1,1,5,0.485303820755257,0.463944468777288
"26",27,40,1,1,26,1,1,1,4,0.459761691360924,0.619658370199169
"27",27,22,1,1,27,2,1,1,4,0.781636573056347,0.744987453213019
"28",27,30,1,1,28,2,2,0,2,0.611132548844047,0.642624460329219
"29",27,24,1,2,29,1,2,1,4,0.402709216485408,0.379655847539197
"30",27,22,1,2,30,2,2,1,3,0.51596108715723,0.514190372508476
"31",27,25,1,1,31,1,2,0,4,0.647616124265027,0.716134565607583
"32",27,31,1,2,32,2,2,1,4,0.522784719842341,0.546231102157597
"33",27,27,1,1,33,3,1,1,2,0.647896740199011,0.559931716463764
"34",27,37,1,1,34,3,1,1,2,0.993275263706906,0.973670198686284
"35",27,39,1,1,35,1,1,1,4,0.520956501953335,0.550875563995173
"36",27,40,1,1,36,2,2,0,3,0.830430203424238,0.836265603102003
"37",27,22,1,1,37,1,1,1,5,0.392786783281097,0.400371378843112
"38",27,30,1,2,38,1,2,1,4,0.280449693317788,0.234848407117836
"39",27,24,1,2,39,1,2,1,5,0.579952837091949,0.652736700365645
"40",27,22,1,2,40,2,2,1,4,0.626349691153568,0.627467497862917
"41",27,25,1,2,41,1,2,1,5,0.428465173538803,0.41028757202311
"42",27,31,1,2,42,1,2,1,5,0.436159688906187,0.502062386361276
"43",27,27,1,1,43,1,1,1,5,0.375278396490581,0.393688911046382
"44",27,37,1,1,44,2,1,1,3,0.529906336988746,0.494468803401339
"45",27,39,1,2,45,1,2,1,4,0.449444808451581,0.424920706963833
"46",27,40,1,1,46,3,2,0,1,1.09731691199141,1.18250275866091
"47",27,22,1,1,47,1,1,1,4,0.462559020397235,0.573147547496106
"48",27,30,1,1,48,1,2,0,3,0.523092832613281,0.467245271041607
"49",27,24,1,2,49,3,1,0,1,1.19429480629188,1.22934807282478
"50",27,22,1,2,50,2,1,0,2,1.12751629638622,1.26664503666112
"51",27,25,1,1,51,3,1,1,2,0.973051156721351,0.883607403184878
"52",27,31,1,2,52,3,2,1,2,1.04833124107556,1.04557205878419
"53",27,27,1,1,53,1,1,1,5,0.390653161731765,0.446639040528094
"54",27,37,1,1,54,3,2,0,2,0.818093090357281,0.828917946483481
"55",27,39,1,2,55,3,1,0,1,0.909481417371011,0.856342445783592
"56",27,40,1,1,56,2,1,1,3,0.626863981839195,0.695819625259562
"57",27,22,1,2,57,1,2,1,5,0.404635105964427,0.384660235916072
"58",27,30,1,2,58,1,1,0,3,0.449830331699003,0.401132384193501
"59",27,24,1,2,59,3,2,1,3,0.392647538608452,0.278200382120649
"60",27,22,1,2,60,3,2,1,2,1.16986075411934,1.17124944091231
"61",27,25,1,2,61,3,1,0,2,0.612186057906056,0.716199374337129
"62",27,31,1,2,62,3,1,0,1,0.688087499461323,0.70178108018346
"63",27,27,1,1,63,1,2,0,4,0.508850435150578,0.529312892572655
"64",27,37,1,2,64,1,2,1,4,0.367066239905981,0.368196950908432
"65",27,39,1,1,65,2,1,1,4,0.955057543875756,1.00655577289028
"66",27,40,1,2,66,3,2,1,2,0.896537257208622,0.937804587520531
"67",27,22,1,1,67,2,1,1,4,0.582085080970661,0.611061508192962
"68",27,30,1,2,68,3,2,1,2,1.20391461605008,1.18760148744343
"69",27,24,1,2,69,1,1,0,4,0.642284679518438,0.639204392197825
"70",27,22,1,1,70,2,1,1,4,0.445723569507259,0.355005721073051
"71",27,25,1,2,71,3,1,0,1,0.896670636280763,0.838350469416067
"72",27,31,1,1,72,2,2,0,2,0.459709710230204,0.434369594638812
"73",27,27,1,2,73,3,1,0,2,0.815192150753188,0.89818044790808
"74",27,37,1,1,74,2,1,1,4,0.331115940887558,0.381552314299496
"75",27,39,1,2,75,3,1,0,2,0.890894621066351,0.902663726311005
"76",27,40,1,1,76,3,2,0,2,0.55062871073681,0.421443703159989
"77",27,22,1,1,77,2,2,0,2,0.735466147546535,0.687806761351376
"78",27,30,1,2,78,1,2,1,4,0.590021164425022,0.486058639204125
"79",27,24,1,2,79,3,1,0,1,1.1527952397558,1.08569679715966
"80",27,22,1,2,80,1,2,1,4,0.439066431005885,0.444004697772874
"81",27,25,1,1,81,1,1,1,4,0.463788930685532,0.516925877905363
"82",27,31,1,1,82,3,1,1,2,0.903479985969743,0.890667860142316
"83",27,27,1,2,83,2,2,1,3,0.639510174852603,0.56445495293477
"84",27,37,1,2,84,2,2,1,4,0.678108629892658,0.658306013995917
"85",27,39,1,1,85,2,1,1,4,0.591737664760067,0.614126949022175
"86",27,40,1,1,86,1,1,1,5,0.330642071764409,0.300920416861678
"87",27,22,1,1,87,3,2,0,2,1.10725217087423,1.07592691366409
"88",27,30,1,1,88,3,1,1,3,0.960463666334746,0.943258759446944
"89",27,24,1,1,89,3,1,1,3,0.499989268141344,0.515153530600605
"90",27,22,1,1,90,3,2,0,2,1.6760135791028,1.75997119359914
"91",27,25,1,2,91,2,1,0,2,0.645217457450758,0.617985491430685
"92",27,31,1,1,92,3,1,1,3,0.6006612723351,0.631867508274439
"93",27,27,1,1,93,3,2,0,1,1.02477498480218,0.946362823296938
"94",27,37,1,1,94,1,1,1,4,0.500226817716059,0.442591928765357
"95",27,39,1,1,95,1,1,1,4,0.430334787247629,0.392246851781044
"96",27,40,1,2,96,3,1,0,2,0.604494162761777,0.554763067762947
"97",27,22,1,1,97,1,1,1,5,0.415580582435802,0.419893070034011
"98",27,30,1,2,98,1,2,1,5,0.575909187702438,0.549183110612584
"99",27,24,1,2,99,2,1,0,3,0.673198888369111,0.611588209506111
"100",27,22,1,2,100,2,2,1,3,0.553833130720589,0.541944169213536
"101",27,25,1,1,101,1,1,1,4,0.258199492238338,0.234456498979913
"102",27,31,1,2,102,3,1,0,1,1.1522416200077,1.15658447582461
"103",27,27,1,2,103,2,2,1,4,0.612766553185744,0.644605438801934
"104",27,37,1,1,104,3,2,0,2,1.02118908260329,1.01266294589282
"105",27,39,1,2,105,3,1,0,2,1.44916228227511,1.50877855048913
"106",27,40,1,2,106,1,2,1,4,0.475455056006168,0.594487598764561
"107",27,22,1,2,107,1,2,1,5,0.388077816901157,0.252225058710889
"108",27,30,1,1,108,1,1,1,5,0.504327570501931,0.460286913853592
"109",27,24,1,2,109,2,1,0,3,0.671838783491154,0.694364834987178
"110",27,22,1,1,110,1,1,1,5,0.482461620878904,0.484636957008517
"111",27,25,1,2,111,1,2,1,5,0.385459588880904,0.403190812763089
"112",27,31,1,2,112,2,1,0,3,0.574281750888178,0.552150768884849
"113",27,27,1,1,113,2,1,1,3,0.633580060462285,0.660990069372896
"114",27,37,1,2,114,1,2,1,5,0.431079375366849,0.47734441498711
"115",27,39,1,2,115,1,2,1,5,0.419459087836081,0.403486194598809
"116",27,40,1,2,116,1,2,1,5,0.244513419151503,0.196378803485493
"117",27,22,1,2,117,1,2,1,4,0.431658141395776,0.371307213138973
"118",27,30,1,1,118,1,1,1,5,0.38061747420666,0.327988563042758
"119",27,24,1,2,119,2,1,0,2,0.749442792395405,0.723545025641196
"120",27,22,1,1,120,1,2,0,3,0.512432765420446,0.519664103565701
"121",27,25,1,2,121,3,2,1,3,0.598693363308907,0.614710266446047
"122",27,31,1,1,122,2,1,1,3,0.743265589825818,0.740380055354804
"123",27,27,1,2,123,1,2,1,5,0.361129070032434,0.360782603406991
"124",27,37,1,2,124,3,1,0,1,0.967979053119883,1.02190568116846
"125",27,39,1,1,125,3,1,1,2,1.06084981625038,1.07019189115547
"126",27,40,1,1,126,2,1,1,3,0.770693159555276,0.657642981717682
"127",27,22,1,2,127,1,2,1,5,0.522833489155656,0.46409620655457
"128",27,30,1,2,128,2,2,1,4,0.521501402108969,0.547057602969431
"129",27,24,1,1,129,1,1,1,4,0.381180782694087,0.342013469849319
"130",27,22,1,2,130,2,2,1,4,0.761942709998091,0.783564592817306
"131",27,25,1,2,131,3,1,0,1,0.552310847291883,0.508260617446201
"132",27,31,1,2,132,1,2,1,5,0.492423848186282,0.447329298191629
"133",27,27,1,2,133,1,1,0,3,0.50474683497791,0.591396281812274
"134",27,37,1,1,134,1,1,1,5,0.360243438023714,0.317966544713767
"135",27,39,1,1,135,2,1,1,4,0.826066153871945,0.787462347389237
"136",27,40,1,1,136,2,1,1,4,0.536402565042822,0.579418690952895
"137",27,22,1,1,137,3,1,1,2,0.546070278438515,0.592327134856476
"138",27,30,1,2,138,3,2,1,2,0.946743473485155,0.990614297040778
"139",27,24,1,1,139,3,1,1,2,0.786862845742848,0.81183829118625
"140",27,22,1,2,140,3,1,0,2,1.13877017775179,1.23269114353944
"141",27,25,1,2,141,1,2,1,5,0.565264334537916,0.612813120041625
"142",27,31,1,1,142,2,2,0,3,0.858131576644814,0.793952116432391
"143",27,27,1,1,143,2,1,1,3,0.458182416932003,0.48010198106516
"144",27,37,1,2,144,2,1,0,3,0.97276532460203,0.914557350173243
"145",27,39,1,2,145,3,1,0,2,0.446591710038992,0.402287844101155
"146",27,40,1,1,146,3,1,1,2,0.806015965071433,0.809248835938658
"147",27,22,1,2,147,2,1,0,2,0.847147637705211,0.806791647542993
"148",27,30,1,2,148,2,1,0,2,0.628698955032686,0.597762129564826
"149",27,24,1,1,149,2,1,1,3,0.665789899921712,0.680234805637962
"150",27,22,1,2,150,3,2,1,2,1.03715678344931,0.950522096026783
"151",27,25,1,1,151,3,2,0,1,0.413309940955472,0.480879678101155
"152",27,31,1,2,152,2,1,0,2,0.894732951927057,0.973513146654279
"153",27,27,1,2,153,3,2,1,3,0.847653335027786,0.88895178164897
"154",27,37,1,1,154,1,1,1,4,0.331229628935361,0.325683903545032
"155",27,39,1,1,155,3,2,0,2,1.09344785272546,1.08810714127849
"156",27,40,1,1,156,3,2,0,1,1.69331134571384,1.76575217573734
"157",27,22,1,2,157,3,2,1,3,0.799819951207574,0.789305488523941
"158",27,30,1,2,158,3,2,1,2,0.770576830333463,0.768834588487375
"159",27,24,1,1,159,3,2,0,1,0.540303583777072,0.457624835154412
"160",27,22,1,1,160,3,1,1,3,0.842905097972752,0.928670883480625
"161",27,25,1,2,161,3,1,0,2,0.664424153435828,0.623038562347886
"162",27,31,1,1,162,3,1,1,3,0.691353508353292,0.651107915181906
"163",27,27,1,1,163,2,2,0,2,0.602138023260426,0.684730703282956
"164",27,37,1,1,164,3,1,1,3,0.976630095469429,1.03008900494596
"165",27,39,1,2,165,1,2,1,4,0.333685379749909,0.324174262459507
"166",27,40,1,2,166,2,2,1,3,0.668662146326463,0.712099353313932
"167",27,22,1,1,167,2,1,1,4,0.611488892089516,0.568688438173285
"168",27,30,1,1,168,3,2,0,1,0.814517121986239,0.780496542987178
"169",27,24,1,1,169,2,1,1,4,0.730342726093785,0.727395512380743
"170",27,22,1,1,170,3,2,0,1,0.500284351367357,0.511919016606726
"171",27,25,1,1,171,3,2,0,2,1.5989011189114,1.55509017205455
"172",27,31,1,1,172,2,1,1,3,0.433803355256253,0.524074174368714
"173",27,27,1,1,173,1,1,1,4,0.45293005633816,0.443013552497508
"174",27,37,1,1,174,3,2,0,2,0.995458967196643,0.926519813894466
"175",27,39,1,1,175,2,1,1,3,0.783973222566866,0.782447882847919
"176",27,40,1,1,176,2,1,1,3,0.570350976479151,0.60045831871102
"177",27,22,1,1,177,1,2,0,3,0.527693689042935,0.542806454855896
"178",27,30,1,2,178,2,2,1,4,0.486433566713251,0.481499604196634
"179",27,24,1,2,179,1,1,0,4,0.608981125968059,0.594364145133597
"180",27,22,1,2,180,2,2,1,4,0.636339402870941,0.612538478659689
"181",27,25,1,2,181,2,1,0,3,0.826444894770647,0.849258809155227
"182",27,31,1,1,182,3,1,1,3,0.675261878942597,0.727105558194146
"183",27,27,1,1,183,2,1,1,4,0.529828653607372,0.581214045248527
"184",27,37,1,1,184,1,1,1,5,0.296574236713584,0.250526703027037
"185",27,39,1,1,185,2,2,0,3,0.661247929857893,0.63084998272522
"186",27,40,1,1,186,3,2,0,2,0.47625388150192,0.496741866845711
"187",27,22,1,1,187,1,1,1,5,0.42658200778659,0.448115203345487
"188",27,30,1,2,188,2,1,0,2,0.561954397769776,0.520559242620006
"189",27,24,1,2,189,2,2,1,3,0.536193652833851,0.641316025370902
"190",27,22,1,2,190,3,1,0,2,0.895832581367222,0.943174805268966
"191",27,25,1,2,191,2,2,1,3,0.621219617312617,0.669406147274863
"192",27,31,1,2,192,3,1,0,2,1.21780212769492,1.20186355491931
"193",27,27,1,2,193,1,1,0,4,0.4030901255404,0.377928499774521
"194",27,37,1,2,194,3,1,0,1,0.937802395662771,1.01047122765428
"195",27,39,1,2,195,2,1,0,3,0.953761794374542,0.947671582664993
"196",27,40,1,1,196,3,1,1,2,0.930616741848314,1.01859328667445
"197",27,22,1,2,197,2,2,1,3,0.816786353209263,0.813055742140643
"198",27,30,1,2,198,3,2,1,3,0.927531728240912,0.960668810315998
"199",27,24,1,1,199,3,1,1,2,0.650614662439533,0.720247553417749
"200",27,22,1,1,200,2,1,1,4,0.627239443653718,0.589541478207928
"201",27,25,1,1,201,2,1,1,3,0.353393386825523,0.343237114276738
"202",27,31,1,2,202,3,2,1,3,0.874739109719016,0.850359777529668
"203",27,27,1,1,203,2,2,0,2,0.783043475144916,0.8381623419067
"204",27,37,1,1,204,1,1,1,4,0.406004268422392,0.372956162236216
"205",27,39,1,1,205,2,2,0,3,0.630378640094423,0.595302727115135
"206",27,40,1,1,206,2,1,1,4,0.739707999303672,0.708153146341481
"207",27,22,1,1,207,1,1,1,5,0.345451527494652,0.313763763418944
"208",27,30,1,2,208,3,2,1,2,1.00614976787528,0.973111255971651
"209",27,24,1,1,209,1,1,1,5,0.544310213396776,0.498331312136355
"210",27,22,1,2,210,2,1,0,3,0.628018413529334,0.587817714238393
"211",27,25,1,2,211,2,2,1,3,0.590552006270339,0.599044686923954
"212",27,31,1,1,212,1,1,1,5,0.484976560650272,0.432797688269578
"213",27,27,1,2,213,1,2,1,5,0.232033753629294,0.257484583116415
"214",27,37,1,2,214,1,2,1,5,0.323259761688099,0.385059152369998
"215",27,39,1,2,215,1,2,1,5,0.32031670944964,0.315918844671439
"216",27,40,1,2,216,1,2,1,5,0.602303478240167,0.477142260752299
"217",27,22,1,2,217,1,2,1,4,0.472480407834105,0.55220955753387
"218",27,30,1,1,218,1,1,1,4,0.496412219502093,0.572527933785328
"219",27,24,1,1,219,2,1,1,3,0.399764761758942,0.435669376140965
"220",27,22,1,2,220,2,1,0,3,0.556252556173016,0.596952643577569
"221",27,25,1,1,221,2,1,1,4,0.617230598399788,0.684698452545242
"222",27,31,1,1,222,3,2,0,1,1.33929259686323,1.31858646785814
"223",27,27,1,1,223,1,2,0,4,0.553613565752957,0.550707519701055
"224",27,37,1,1,224,2,2,0,2,0.680980766657953,0.676925472679039
"225",27,39,1,2,225,1,1,0,3,0.462965653136524,0.453668231657245
"226",27,40,1,1,226,2,1,1,3,0.668165092243057,0.718738455816864
"227",27,22,1,2,227,1,2,1,5,0.412665280655361,0.392766800982099
"228",27,30,1,1,228,1,1,1,5,0.495357432596458,0.476309886238832
"229",27,24,1,2,229,2,2,1,3,0.665869456843715,0.642146932193083
"230",27,22,1,2,230,3,1,0,1,0.514725162447855,0.601782247410758
"231",27,25,1,2,231,1,2,1,5,0.455319090603933,0.476378929980005
"232",27,31,1,2,232,3,1,0,2,0.608788627525191,0.651887892446477
"233",27,27,1,1,233,3,2,0,1,1.42488751263933,1.38587467060547
"234",27,37,1,1,234,1,1,1,4,0.459584316481784,0.474038317830083
"235",27,39,1,2,235,3,2,1,2,0.898093748208419,0.953390760203405
"236",27,40,1,2,236,2,1,0,2,0.820093378619214,0.743484505335996
"237",27,22,1,1,237,2,1,1,4,0.578124270487223,0.598595347626295
"238",27,30,1,1,238,2,2,0,2,0.718444179331132,0.741056602278896
"239",27,24,1,1,239,1,1,1,5,0.379926741644086,0.32792917202562
"240",27,22,1,2,240,1,2,1,4,0.192788518889308,0.170759293175359
"241",26,33,2,2,1,3,1,0,2,1.21217282098451,1.20674457200049
"242",26,32,2,1,2,3,1,1,3,1.20174832507335,1.16409347671695
"243",26,35,2,2,3,3,1,0,2,-0.405198607446584,-0.39562868051124
"244",26,27,2,1,4,2,2,0,2,0.50056376952164,0.4628869003573
"245",26,25,2,2,5,3,1,0,2,1.63183394123412,1.63369156431567
"246",26,32,2,2,6,3,2,1,2,1.08296438290549,1.03741090916372
"247",26,30,2,2,7,3,1,0,2,1.38760152745229,1.39770225191405
"248",26,30,2,1,8,1,1,1,5,0.3863431093424,0.350034443876084
"249",26,24,2,2,9,3,2,1,3,0.824290616088376,0.824628582155244
"250",26,32,2,1,10,1,1,1,5,0.325689554996056,0.297629002705427
"251",26,33,2,2,11,1,1,0,4,0.4775569818244,0.559084619022501
"252",26,32,2,1,12,2,2,0,3,0.988519764548895,0.932849414037094
"253",26,35,2,2,13,1,2,1,4,0.328399383732017,0.35121359426466
"254",26,27,2,2,14,2,1,0,2,0.741045386461972,0.717606057774293
"255",26,25,2,2,15,1,1,0,4,0.581108215912744,0.586541968075419
"256",26,32,2,2,16,3,2,1,2,0.976059192738724,0.952431605578556
"257",26,30,2,2,17,1,2,1,4,0.344580239198593,0.293142321026453
"258",26,30,2,1,18,1,2,0,3,0.872185329701073,0.844928058626822
"259",26,24,2,2,19,1,2,1,5,0.371193642795168,0.321948767648325
"260",26,32,2,2,20,1,2,1,4,0.565819892853177,0.611286330345258
"261",26,33,2,2,21,3,2,1,2,1.13841158271477,1.09199216578018
"262",26,32,2,2,22,1,2,1,5,0.390194821950476,0.396619264273871
"263",26,35,2,1,23,2,2,0,2,0.799670132694442,0.835277470972857
"264",26,27,2,2,24,3,2,1,3,0.94475422353555,0.896474291333543
"265",26,25,2,2,25,2,2,1,3,0.759242642857382,0.750689064056515
"266",26,32,2,2,26,1,2,1,4,0.406536693051884,0.522572962919241
"267",26,30,2,1,27,1,1,1,4,0.378556139457291,0.36333224033903
"268",26,30,2,2,28,3,1,0,2,1.33312970487061,1.29305940626041
"269",26,24,2,2,29,3,2,1,3,0.59944965797774,0.534958740665048
"270",26,32,2,2,30,2,1,0,2,0.909675991557323,0.856939397855579
"271",26,33,2,2,31,3,1,0,1,0.764953689113665,0.807449787665516
"272",26,32,2,1,32,3,2,0,2,1.21744104543251,1.27025843578054
"273",26,35,2,2,33,3,1,0,2,0.855453861852686,0.892412171010617
"274",26,27,2,1,34,1,1,1,4,0.367213654209825,0.342695019200888
"275",26,25,2,2,35,1,1,0,3,0.589774467746083,0.575992640772013
"276",26,32,2,1,36,1,1,1,5,0.362612637578332,0.371654617440093
"277",26,30,2,1,37,3,2,0,2,1.09779449794177,1.12609443340076
"278",26,30,2,1,38,2,1,1,4,0.699261364003403,0.728535570049937
"279",26,24,2,2,39,3,1,0,1,0.592296592770313,0.558330339610737
"280",26,32,2,1,40,2,2,0,2,0.7048240275935,0.656196985155287
"281",26,33,2,2,41,3,2,1,3,0.5361775750149,0.459345212532068
"282",26,32,2,2,42,1,1,0,3,0.713687353722507,0.661253265831101
"283",26,35,2,1,43,3,1,1,3,0.7201919198661,0.688485317514152
"284",26,27,2,1,44,3,1,1,3,1.07443888154993,1.10535475453101
"285",26,25,2,1,45,3,2,0,2,0.422910539682404,0.402952747488442
"286",26,32,2,1,46,1,1,1,4,0.385011031611713,0.465161169621579
"287",26,30,2,1,47,1,1,1,5,0.398040574675662,0.415845857074875
"288",26,30,2,1,48,3,1,1,3,0.740715487149139,0.849005927170457
"289",26,24,2,2,49,3,1,0,2,0.589369288363323,0.617707397959611
"290",26,32,2,2,50,2,1,0,3,0.722416358454501,0.78619391062444
"291",26,33,2,1,51,2,1,1,3,0.419520413591171,0.42838607311903
"292",26,32,2,2,52,1,2,1,4,0.301266379587859,0.301643037407295
"293",26,35,2,2,53,3,2,1,3,0.60497566646656,0.555518204140806
"294",26,27,2,2,54,2,2,1,3,0.638074194042579,0.639550728522179
"295",26,25,2,2,55,3,2,1,2,0.715498633480468,0.625541571832194
"296",26,32,2,1,56,2,1,1,3,0.811344930644359,0.723451460153057
"297",26,30,2,2,57,2,2,1,3,0.854568936861912,0.824805871151452
"298",26,30,2,2,58,1,2,1,5,0.458842351730944,0.54999315782443
"299",26,24,2,2,59,3,1,0,1,1.8117778291187,1.79023669046249
"300",26,32,2,2,60,2,1,0,3,0.799195836291296,0.786985449204275
"301",26,33,2,2,61,2,2,1,3,0.610257582276065,0.582379211193304
"302",26,32,2,2,62,1,2,1,4,0.270591980567914,0.218767674670091
"303",26,35,2,2,63,2,1,0,2,0.819407675650553,0.821285340778318
"304",26,27,2,1,64,2,1,1,3,0.366041085855912,0.360375119319682
"305",26,25,2,1,65,1,1,1,5,0.278281233104832,0.285519669754704
"306",26,32,2,2,66,2,2,1,3,0.73089878534016,0.744615389322469
"307",26,30,2,1,67,3,1,1,2,0.787582810614222,0.835183930976915
"308",26,30,2,2,68,1,2,1,5,0.358470379649554,0.41732206065798
"309",26,24,2,2,69,1,1,0,4,0.411236018619288,0.480443436445874
"310",26,32,2,1,70,3,2,0,1,1.33381289584598,1.20896445001299
"311",26,33,2,2,71,1,1,0,4,0.411111319849962,0.391166410780095
"312",26,32,2,2,72,2,2,1,3,0.846650065466159,0.80630504503726
"313",26,35,2,1,73,1,2,0,4,0.794335798647071,0.77537041575489
"314",26,27,2,2,74,2,1,0,3,0.672293368022088,0.652565287567559
"315",26,25,2,1,75,1,1,1,4,0.379929177911479,0.429507219013873
"316",26,32,2,2,76,1,1,0,3,0.613714681329252,0.654957503866783
"317",26,30,2,2,77,3,2,1,2,0.66128182736891,0.730012186927966
"318",26,30,2,2,78,3,1,0,2,0.637061191602452,0.627907771301314
"319",26,24,2,2,79,3,1,0,1,1.01448141581008,1.02490378860256
"320",26,32,2,1,80,3,1,1,2,0.829008584315869,0.829232037915885
"321",26,33,2,1,81,2,2,0,2,0.770311323832344,0.752845248153318
"322",26,32,2,1,82,1,1,1,4,0.434637907757728,0.492773112469269
"323",26,35,2,2,83,1,2,1,5,0.445911407750725,0.464926813564615
"324",26,27,2,2,84,2,1,0,2,0.764403439994887,0.835173201920491
"325",26,25,2,2,85,1,2,1,5,0.424469669486966,0.452224265933006
"326",26,32,2,2,86,3,1,0,1,1.54843959046099,1.49661764595312
"327",26,30,2,2,87,2,2,1,4,0.62732271339504,0.67633276517239
"328",26,30,2,1,88,3,2,0,1,0.696524079222421,0.726599241330326
"329",26,24,2,1,89,2,2,0,2,0.629881221364629,0.631950874764611
"330",26,32,2,2,90,2,1,0,2,0.659407160176442,0.62055865413278
"331",26,33,2,2,91,3,2,1,3,0.993365233368713,1.02719628014773
"332",26,32,2,2,92,2,1,0,3,0.765004726999585,0.804316128451617
"333",26,35,2,2,93,3,1,0,2,0.848402431301686,0.798568394048455
"334",26,27,2,2,94,2,2,1,3,0.520536799066677,0.515076693087658
"335",26,25,2,2,95,2,2,1,4,0.659606100358289,0.68573157659625
"336",26,32,2,2,96,3,2,1,2,0.835161434402791,0.901230733807622
"337",26,30,2,2,97,3,1,0,2,1.38626131743163,1.41731429707648
"338",26,30,2,1,98,2,2,0,3,0.620583744355614,0.598196559562218
"339",26,24,2,1,99,3,2,0,1,1.21566745010652,1.19946332378376
"340",26,32,2,2,100,1,2,1,4,0.353460030316926,0.359728838449027
"341",26,33,2,1,101,1,1,1,5,0.570210288342335,0.579043650666485
"342",26,32,2,1,102,2,1,1,4,0.48128017594036,0.480723340297133
"343",26,35,2,1,103,1,1,1,5,0.338522172322134,0.368255005481282
"344",26,27,2,1,104,3,1,1,2,0.457394458798711,0.482111388427146
"345",26,25,2,2,105,2,1,0,3,0.849169484332965,0.872130710296986
"346",26,32,2,2,106,3,1,0,2,0.881244594158158,0.862821997299263
"347",26,30,2,2,107,1,2,1,4,0.430976585943556,0.533412696732087
"348",26,30,2,1,108,1,1,1,4,0.507543221776898,0.569679089810958
"349",26,24,2,2,109,3,1,0,2,0.832865276498824,0.772856280825267
"350",26,32,2,2,110,2,2,1,3,0.540342869483765,0.575801114554023
"351",26,33,2,2,111,2,2,1,3,0.726724063726242,0.788066391947956
"352",26,32,2,1,112,1,1,1,4,0.45013221160554,0.520850356116105
"353",26,35,2,1,113,1,1,1,5,0.345614733008588,0.322660314066077
"354",26,27,2,2,114,2,2,1,3,0.677425560610789,0.635402032050874
"355",26,25,2,1,115,3,1,1,2,0.898897304559215,0.893191145860013
"356",26,32,2,1,116,1,1,1,4,0.422897203028571,0.341000579989281
"357",26,30,2,1,117,1,1,1,5,0.44747610666775,0.443229519934965
"358",26,30,2,2,118,2,2,1,3,0.726878719453325,0.708232775405563
"359",26,24,2,1,119,3,2,0,1,0.826979501840851,0.950394917679591
"360",26,32,2,2,120,1,2,1,5,0.421303863684618,0.430014217559368
"361",26,33,2,2,121,1,1,0,3,0.491436590033491,0.534507345701004
"362",26,32,2,1,122,1,1,1,4,0.374338442117467,0.442371686545746
"363",26,35,2,1,123,3,2,0,2,0.735192722592426,0.750383072697302
"364",26,27,2,2,124,2,1,0,2,0.659431468247558,0.588462978548453
"365",26,25,2,1,125,3,1,1,3,0.748132958725783,0.765718896485217
"366",26,32,2,2,126,1,1,0,3,0.499439579012873,0.538274476760142
"367",26,30,2,1,127,1,1,1,5,0.473185616756473,0.445866714725168
"368",26,30,2,1,128,3,2,0,1,0.612834327136041,0.583386954634079
"369",26,24,2,2,129,2,1,0,2,0.64425414453686,0.702870137313986
"370",26,32,2,2,130,1,2,1,5,0.271566839103838,0.239592093669797
"371",26,33,2,1,131,3,1,1,2,0.632765907418039,0.603620449870059
"372",26,32,2,1,132,2,2,0,2,0.879679001069143,0.855394413440484
"373",26,35,2,1,133,2,1,1,4,0.277349919501331,0.246121987794024
"374",26,27,2,1,134,3,1,1,3,0.78100501324435,0.758464901167339
"375",26,25,2,1,135,1,1,1,5,0.511883989895339,0.427048853355443
"376",26,32,2,1,136,1,2,0,3,0.597694659885061,0.591948434621971
"377",26,30,2,1,137,3,2,0,2,0.383732664414817,0.366968295495604
"378",26,30,2,2,138,3,1,0,1,0.62795930620425,0.548012298766619
"379",26,24,2,1,139,1,1,1,4,0.331218801643615,0.22112772998623
"380",26,32,2,2,140,2,2,1,3,0.570601427574974,0.477551642753595
"381",26,33,2,1,141,3,2,0,1,1.04857322057303,1.03970014332688
"382",26,32,2,1,142,1,1,1,4,0.259091730936312,0.224130284897372
"383",26,35,2,2,143,1,1,0,4,0.832250925748586,0.812933318030565
"384",26,27,2,2,144,3,1,0,1,2.12928228618921,2.12283912511795
"385",26,25,2,1,145,1,1,1,4,0.310482921437228,0.226495806214897
"386",26,32,2,1,146,3,2,0,1,1.33821536122596,1.23616549945568
"387",26,30,2,1,147,3,1,1,2,0.955716378099989,0.873165598919149
"388",26,30,2,2,148,2,2,1,3,0.405465839167374,0.488797637161589
"389",26,24,2,1,149,1,1,1,5,0.353285011122378,0.326996689247854
"390",26,32,2,2,150,2,1,0,3,0.641074601733519,0.62390521697524
"391",26,33,2,1,151,1,1,1,5,0.529034290862783,0.494379269297981
"392",26,32,2,1,152,2,2,0,3,0.609636015687143,0.656247003279045
"393",26,35,2,2,153,2,2,1,4,0.441218835475654,0.439594468083649
"394",26,27,2,1,154,3,1,1,2,0.876308351473316,0.777185439367704
"395",26,25,2,2,155,2,2,1,4,0.666527989779204,0.745104727412481
"396",26,32,2,1,156,2,2,0,2,0.946852380500072,0.869154808744638
"397",26,30,2,2,157,3,1,0,2,1.44082002806992,1.47767256942854
"398",26,30,2,1,158,3,1,1,3,0.616446863547327,0.564897460106505
"399",26,24,2,2,159,2,2,1,3,0.591313888827171,0.615347333435162
"400",26,32,2,1,160,1,1,1,4,0.364374136668289,0.356584038783603
"401",26,33,2,1,161,2,2,0,3,0.761391296554414,0.721347478643233
"402",26,32,2,1,162,2,1,1,4,0.687364814586905,0.749302045274563
"403",26,35,2,2,163,1,1,0,3,0.539128157118717,0.563744279378694
"404",26,27,2,1,164,2,1,1,3,0.360748628701005,0.290015306307419
"405",26,25,2,2,165,2,1,0,2,0.849124594813021,0.789592803833085
"406",26,32,2,1,166,2,2,0,2,0.73910381653335,0.758470473810221
"407",26,30,2,1,167,2,2,0,2,0.707447040270108,0.689440629676891
"408",26,30,2,2,168,1,2,1,5,0.396126443798874,0.421941743565771
"409",26,24,2,1,169,3,2,0,2,0.390403541359127,0.439505806050496
"410",26,32,2,1,170,1,1,1,5,0.383790821807405,0.296396067780033
"411",26,33,2,2,171,2,2,1,3,0.804455857154693,0.790794754065747
"412",26,32,2,2,172,3,1,0,1,1.08271572385399,1.02985365493548
"413",26,35,2,1,173,3,2,0,1,1.34417528821923,1.36718576295008
"414",26,27,2,1,174,2,1,1,3,0.686159369828264,0.695858518564221
"415",26,25,2,1,175,3,2,0,1,1.81644386844222,1.82625392669747
"416",26,32,2,2,176,3,1,0,2,1.43299599412478,1.35383395548522
"417",26,30,2,1,177,2,2,0,2,1.01197424558756,0.97217683889836
"418",26,30,2,1,178,2,1,1,4,0.475964297319286,0.496567860957695
"419",26,24,2,1,179,2,2,0,3,0.930357390291468,0.915473822012579
"420",26,32,2,2,180,1,2,1,5,0.243074441205917,0.16917748588273
"421",26,33,2,1,181,2,1,1,3,0.360702837282451,0.324860843257956
"422",26,32,2,1,182,3,1,1,3,0.913825378747698,0.925910319346296
"423",26,35,2,1,183,1,1,1,5,0.47170097918873,0.445066640160224
"424",26,27,2,1,184,1,2,0,3,0.499207441951101,0.509677983978116
"425",26,25,2,1,185,1,1,1,5,0.450409116477519,0.417621399335838
"426",26,32,2,1,186,2,2,0,3,0.708229842523607,0.703268815383411
"427",26,30,2,2,187,2,2,1,4,0.585782011280075,0.603499618462647
"428",26,30,2,2,188,3,2,1,2,0.781274111197533,0.803861613806282
"429",26,24,2,2,189,1,2,1,5,0.572056495343,0.575234220626343
"430",26,32,2,1,190,3,2,0,2,1.01136796250682,1.07949484486506
"431",26,33,2,2,191,1,2,1,5,0.338608701874922,0.313343008090477
"432",26,32,2,1,192,3,1,1,3,0.829811947781825,0.889764357275257
"433",26,35,2,2,193,1,2,1,5,0.481010553232838,0.526485492100181
"434",26,27,2,1,194,3,2,0,2,0.625809614841143,0.590074212855315
"435",26,25,2,1,195,2,1,1,3,0.567937176210503,0.601416284099535
"436",26,32,2,1,196,2,1,1,3,0.715340157235963,0.660551337720164
"437",26,30,2,1,197,3,1,1,3,0.587797457054324,0.58395696221073
"438",26,30,2,1,198,2,2,0,2,0.654571203559904,0.658531741271089
"439",26,24,2,1,199,2,1,1,3,0.595738519694128,0.586270099791101
"440",26,32,2,1,200,1,1,1,4,0.501349780307618,0.557526978650121
"441",26,33,2,1,201,1,1,1,4,0.363209207189183,0.376581858779398
"442",26,32,2,1,202,1,1,1,4,0.521016271071501,0.538903083277035
"443",26,35,2,1,203,3,2,0,1,1.05053252641171,0.985295832437443
"444",26,27,2,1,204,1,1,1,5,0.379443941444031,0.351871774698564
"445",26,25,2,2,205,1,1,0,4,0.69100513290611,0.683531093845949
"446",26,32,2,2,206,1,2,1,5,0.51341433309346,0.474804178741428
"447",26,30,2,1,207,2,2,0,3,0.412092543237604,0.465550109839698
"448",26,30,2,2,208,3,2,1,2,0.580256523616308,0.548379243381642
"449",26,24,2,2,209,2,1,0,3,0.8955214084375,0.886982106996377
"450",26,32,2,2,210,1,2,1,5,0.46866946513782,0.485450554535961
"451",26,33,2,1,211,1,1,1,5,0.435822230718181,0.384558380637166
"452",26,32,2,1,212,3,1,1,2,1.26709597046261,1.37856663769703
"453",26,35,2,2,213,2,2,1,3,0.652066982997073,0.61769289991907
"454",26,27,2,1,214,1,1,1,4,0.501677706112997,0.471837991283159
"455",26,25,2,1,215,1,1,1,4,0.277899143517743,0.351787165626043
"456",26,32,2,2,216,2,2,1,4,0.949353133812621,0.939107215461771
"457",26,30,2,1,217,1,1,1,5,0.465550573894732,0.430007671055657
"458",26,30,2,2,218,2,2,1,3,0.447570463128256,0.412088873465212
"459",26,24,2,2,219,1,2,1,5,0.220775559798465,0.169269926914601
"460",26,32,2,1,220,3,2,0,1,0.913655153905544,1.01533531150442
"461",26,33,2,1,221,2,1,1,3,0.461239461738317,0.483053950709167
"462",26,32,2,1,222,2,1,1,3,0.647001795499687,0.677331509641907
"463",26,35,2,1,223,2,2,0,2,0.705736574355906,0.768958190130309
"464",26,27,2,2,224,1,2,1,4,0.394265382250213,0.347711271112958
"465",26,25,2,1,225,3,1,1,2,0.85059224107062,0.829617961157777
"466",26,32,2,2,226,2,2,1,3,0.822626116026468,0.792460747464237
"467",26,30,2,2,227,2,2,1,4,0.666463681614854,0.663970976816243
"468",26,30,2,1,228,1,1,1,4,0.391976061810795,0.445311240955567
"469",26,24,2,2,229,3,2,1,2,0.966067391414825,1.0938047941796
"470",26,32,2,1,230,2,1,1,3,0.44720268176894,0.366135366099
"471",26,33,2,1,231,3,1,1,3,0.823602265242048,0.765492605133571
"472",26,32,2,2,232,3,2,1,2,0.818815844829024,0.772818801580526
"473",26,35,2,2,233,3,2,1,2,0.965583172994755,0.954231482692022
"474",26,27,2,1,234,2,1,1,4,0.488399131497278,0.49965746635131
"475",26,25,2,2,235,2,2,1,3,0.731511579002178,0.775830864339115
"476",26,32,2,2,236,3,1,0,2,0.659070741670665,0.567893113387305
"477",26,30,2,1,237,2,1,1,3,0.655139918604189,0.678857015181346
"478",26,30,2,2,238,2,2,1,3,0.447862494940819,0.510134590247884
"479",26,24,2,2,239,1,2,1,5,0.336486244768259,0.416338970835268
"480",26,32,2,1,240,3,2,0,2,0.99275614509125,0.959103004426489
"481",25,31,1,2,1,2,2,1,3,0.67805154528474,0.711624653794656
"482",25,26,1,1,2,2,1,1,3,0.383679322290283,0.315455508475476
"483",25,28,1,2,3,1,2,1,5,0.514014256695182,0.442554786039049
"484",25,21,1,1,4,2,1,1,3,0.711955088643423,0.796769443006193
"485",25,26,1,2,5,3,1,0,1,1.15844276984974,1.07667952568262
"486",25,27,1,1,6,1,1,1,5,0.380229223788286,0.394711179331731
"487",25,35,1,1,7,1,1,1,5,0.275163883338054,0.252478951648638
"488",25,29,1,1,8,1,1,1,4,0.492166232629775,0.519439131515032
"489",25,27,1,1,9,2,2,0,2,0.820884492952669,0.799510863468827
"490",25,30,1,1,10,1,1,1,5,0.421557866378046,0.425698154798183
"491",25,31,1,2,11,2,2,1,4,0.430862054716731,0.442907372257997
"492",25,26,1,2,12,2,1,0,3,0.554567169400177,0.537254909803747
"493",25,28,1,1,13,2,2,0,3,0.730742784484471,0.654061852827709
"494",25,21,1,1,14,1,1,1,4,0.406726394894324,0.4528301363779
"495",25,26,1,1,15,3,2,0,1,1.92124978792158,1.95092791212625
"496",25,27,1,2,16,1,1,0,3,0.487349863211348,0.552416512772826
"497",25,35,1,1,17,2,1,1,4,0.701097149428262,0.696538997354488
"498",25,29,1,1,18,2,1,1,4,0.605004680555311,0.556013078342424
"499",25,27,1,2,19,1,2,1,4,0.474018464033637,0.467818746168913
"500",25,30,1,1,20,2,1,1,3,0.562308227922782,0.546448877565318
"501",25,31,1,2,21,1,2,1,4,0.210444414535001,0.236386827878457
"502",25,26,1,2,22,1,2,1,5,0.448676627456429,0.380900829013447
"503",25,28,1,2,23,1,2,1,5,0.476128136854205,0.395773581275444
"504",25,21,1,1,24,2,1,1,3,0.524826654902373,0.507355551861197
"505",25,26,1,1,25,3,2,0,1,1.61221913416179,1.6391298663242
"506",25,27,1,2,26,2,1,0,3,0.828045612467319,0.855245812139426
"507",25,35,1,1,27,3,1,1,3,0.986633065212446,0.989991342978852
"508",25,29,1,2,28,3,2,1,3,0.892466162081646,0.935086969237812
"509",25,27,1,2,29,3,1,0,1,0.690904212754827,0.724228338744472
"510",25,30,1,1,30,2,1,1,4,0.493495063358907,0.383487040305466
"511",25,31,1,2,31,3,2,1,3,1.02590465067875,0.978128814333739
"512",25,26,1,2,32,1,2,1,4,0.297556839624658,0.262213053863107
"513",25,28,1,1,33,3,1,1,2,0.751924308446656,0.80349700022085
"514",25,21,1,2,34,3,1,0,2,1.48467542946604,1.57394871697952
"515",25,26,1,1,35,2,1,1,3,0.662467864976735,0.771582391989772
"516",25,27,1,2,36,3,2,1,2,1.04914249150769,1.05312439324032
"517",25,35,1,2,37,1,2,1,5,0.484809543841334,0.544981389986427
"518",25,29,1,1,38,3,1,1,2,0.72987690242809,0.785620925166249
"519",25,27,1,1,39,3,2,0,1,0.820236612103195,0.824732972887241
"520",25,30,1,1,40,1,1,1,4,0.427273116815416,0.499709064356774
"521",25,31,1,2,41,2,1,0,2,0.84901827957421,0.827548616443934
"522",25,26,1,1,42,2,1,1,4,0.815769810286225,0.798446449773762
"523",25,28,1,2,43,1,2,1,4,0.268660186669823,0.216854673452907
"524",25,21,1,2,44,3,1,0,1,1.0373957952377,1.05891766501619
"525",25,26,1,2,45,1,2,1,5,0.362650272693509,0.406129627266942
"526",25,27,1,1,46,3,2,0,2,0.652645359730803,0.648353554473123
"527",25,35,1,2,47,3,1,0,1,0.789429919129715,0.819747521020572
"528",25,29,1,1,48,2,2,0,2,0.531931011205576,0.53584610032803
"529",25,27,1,1,49,2,1,1,4,0.620935822571754,0.582307460488641
"530",25,30,1,2,50,2,2,1,4,0.494167412415488,0.593785058353029
"531",25,31,1,2,51,3,1,0,1,1.25422848145847,1.26366184602268
"532",25,26,1,1,52,1,1,1,4,0.467105861828716,0.528534792908783
"533",25,28,1,1,53,3,1,1,2,0.892697666689584,0.85247107656544
"534",25,21,1,1,54,1,1,1,5,0.464740210657972,0.451190308043001
"535",25,26,1,1,55,3,2,0,2,1.26300473317268,1.2229005737235
"536",25,27,1,1,56,3,2,0,1,0.927952741342898,0.92333233838959
"537",25,35,1,2,57,2,2,1,3,0.541474688946605,0.566605502309343
"538",25,29,1,1,58,1,1,1,4,0.418134513083979,0.46196675180341
"539",25,27,1,1,59,3,2,0,2,1.23713606331609,1.22423224300759
"540",25,30,1,2,60,3,2,1,3,0.737448524018961,0.744830345723805
"541",25,31,1,1,61,3,1,1,2,0.710309212829576,0.672971886364206
"542",25,26,1,2,62,2,2,1,4,0.547189894003891,0.550295559490292
"543",25,28,1,1,63,2,2,0,3,0.507626348986023,0.588363859312615
"544",25,21,1,1,64,1,1,1,4,0.538790073400698,0.483934615389866
"545",25,26,1,1,65,2,1,1,3,0.398042346155647,0.409640737417104
"546",25,27,1,1,66,1,1,1,4,0.501423238171359,0.497766985222277
"547",25,35,1,1,67,3,2,0,2,0.926977798030949,0.972415901984672
"548",25,29,1,2,68,2,2,1,4,0.522550222516415,0.452906580138855
"549",25,27,1,2,69,3,2,1,2,0.808165056766505,0.782314395789522
"550",25,30,1,1,70,1,1,1,4,0.39446681574444,0.3805761751357
"551",25,31,1,1,71,2,1,1,4,0.77610770380651,0.751842607179982
"552",25,26,1,2,72,1,2,1,4,0.323889641309548,0.325945387002456
"553",25,28,1,1,73,1,2,0,4,0.576104896501543,0.552741756905069
"554",25,21,1,1,74,3,1,1,2,1.24244693837559,1.25838960039052
"555",25,26,1,1,75,3,1,1,2,0.996739634239172,1.09229920648602
"556",25,27,1,2,76,3,1,0,1,1.18091914050442,1.0963348385337
"557",25,35,1,1,77,1,1,1,5,0.369492725596444,0.409943263360509
"558",25,29,1,2,78,2,2,1,4,0.644174790214127,0.601476406235456
"559",25,27,1,1,79,1,1,1,4,0.372159701780923,0.352177446289422
"560",25,30,1,2,80,3,1,0,2,0.717997045576531,0.797270488228965
"561",25,31,1,1,81,3,1,1,3,0.897535809145022,0.757496036501642
"562",25,26,1,2,82,3,1,0,2,1.06148810714347,1.07366177791777
"563",25,28,1,1,83,2,1,1,3,0.578684449510251,0.637027119027773
"564",25,21,1,1,84,1,1,1,5,0.40912617500333,0.459441615245639
"565",25,26,1,2,85,1,2,1,5,0.435406547100882,0.314651347213669
"566",25,27,1,2,86,2,2,1,3,0.527329007871557,0.550179981352295
"567",25,35,1,2,87,2,2,1,4,0.475401571055409,0.408902462743332
"568",25,29,1,1,88,3,2,0,1,0.897032719707736,0.884090876906257
"569",25,27,1,1,89,1,1,1,4,0.486942701225585,0.446694115402076
"570",25,30,1,2,90,1,2,1,4,0.275808017697868,0.323899436545326
"571",25,31,1,2,91,2,2,1,3,0.700922550250969,0.673282436295107
"572",25,26,1,2,92,1,2,1,4,0.509672446123704,0.503206310343626
"573",25,28,1,1,93,1,1,1,4,0.40356992010374,0.355785847803635
"574",25,21,1,2,94,2,2,1,3,0.822820577363644,0.816935301771237
"575",25,26,1,2,95,2,2,1,3,0.559695774293056,0.529774772072448
"576",25,27,1,2,96,2,2,1,3,0.408208371532483,0.390372643417489
"577",25,35,1,1,97,3,1,1,3,0.592514685542784,0.576725923817412
"578",25,29,1,1,98,2,2,0,3,0.922700675581131,0.938718004820606
"579",25,27,1,2,99,1,2,1,5,0.254588299072052,0.27940328936516
"580",25,30,1,2,100,2,2,1,4,0.518745579043453,0.580034967916479
"581",25,31,1,2,101,3,2,1,3,0.494475766742269,0.56590759935202
"582",25,26,1,2,102,2,2,1,3,0.70163052679514,0.745416494356352
"583",25,28,1,2,103,3,1,0,2,0.949901495971569,0.99037856850522
"584",25,21,1,2,104,2,2,1,3,0.348930677196049,0.35453996345337
"585",25,26,1,2,105,1,1,0,3,0.557411634630831,0.473639670178577
"586",25,27,1,2,106,2,1,0,2,0.79589542815878,0.83792027997852
"587",25,35,1,2,107,3,1,0,1,1.18159932042202,1.20480569637446
"588",25,29,1,2,108,3,2,1,2,1.07096529141466,1.06306853526817
"589",25,27,1,2,109,1,1,0,4,0.593491050957185,0.503761026835584
"590",25,30,1,2,110,1,1,0,3,0.489452515649142,0.448982476583485
"591",25,31,1,1,111,3,1,1,2,1.11616686305667,1.19803143184467
"592",25,26,1,2,112,2,2,1,4,0.657016486178227,0.680802126894566
"593",25,28,1,1,113,1,1,1,4,0.441092332817738,0.369711653125778
"594",25,21,1,1,114,1,2,0,3,0.515667675202262,0.415196529698772
"595",25,26,1,1,115,2,2,0,2,0.77185843356328,0.850162519425746
"596",25,27,1,1,116,3,1,1,3,0.716449663193091,0.661297729644024
"597",25,35,1,1,117,3,1,1,3,0.701254016494804,0.622631745264687
"598",25,29,1,1,118,1,1,1,5,0.480157108730148,0.536414044177745
"599",25,27,1,2,119,3,2,1,2,0.931401324033934,0.89869666883693
"600",25,30,1,2,120,1,2,1,4,0.525506479020399,0.459120726957295
"601",25,31,1,2,121,2,2,1,4,0.535972567714917,0.530658717945714
"602",25,26,1,2,122,2,1,0,3,0.684666014408054,0.723175178355696
"603",25,28,1,2,123,2,2,1,4,0.640941571976295,0.609850063233773
"604",25,21,1,1,124,2,2,0,3,0.697043628135338,0.729986700635883
"605",25,26,1,2,125,1,2,1,4,0.300265389407376,0.225915035246468
"606",25,27,1,2,126,3,2,1,2,0.990796382751742,0.990997433136409
"607",25,35,1,2,127,3,1,0,1,1.17277912951791,1.1565343874458
"608",25,29,1,1,128,1,1,1,5,0.464526973476712,0.414312229305207
"609",25,27,1,1,129,3,1,1,3,1.14392384712861,1.15983834715458
"610",25,30,1,2,130,1,2,1,4,0.365284183763973,0.343550493085779
"611",25,31,1,2,131,2,1,0,3,0.780892896617206,0.743914044580374
"612",25,26,1,1,132,3,1,1,2,1.09128210232493,1.08648184880399
"613",25,28,1,2,133,1,2,1,4,0.312661587495194,0.252122594016607
"614",25,21,1,1,134,3,1,1,2,1.00618432432695,1.00242240913908
"615",25,26,1,1,135,2,1,1,4,0.848233724147461,0.852813054659
"616",25,27,1,1,136,2,1,1,4,0.616485338119067,0.546813489313067
"617",25,35,1,1,137,3,1,1,3,1.12395441999558,1.1213734035022
"618",25,29,1,1,138,3,1,1,3,0.268913938338068,0.371977849085656
"619",25,27,1,1,139,1,1,1,5,0.458589156441307,0.463154933319849
"620",25,30,1,2,140,1,2,1,5,0.37778209295879,0.349109579649879
"621",25,31,1,1,141,1,1,1,5,0.462627429575352,0.423355572582621
"622",25,26,1,2,142,3,2,1,2,0.721340852726712,0.698689220093045
"623",25,28,1,2,143,1,2,1,4,0.549024948888398,0.536434072407439
"624",25,21,1,2,144,1,2,1,4,0.426901594431658,0.472952758200028
"625",25,26,1,2,145,3,2,1,2,1.02466211856069,0.985890729259215
"626",25,27,1,2,146,3,2,1,2,0.842510593264342,0.800879373197739
"627",25,35,1,2,147,1,2,1,5,0.366799207877264,0.450793877795188
"628",25,29,1,2,148,1,1,0,4,0.610854283851738,0.598632042538835
"629",25,27,1,2,149,3,1,0,2,1.27051463544969,1.28758382705392
"630",25,30,1,2,150,2,1,0,2,0.928998668249975,1.00029130890997
"631",25,31,1,1,151,1,1,1,5,0.348903048174305,0.473046844966447
"632",25,26,1,2,152,2,2,1,3,0.605789460235423,0.575112448016502
"633",25,28,1,1,153,2,1,1,4,0.605306362727094,0.585804926307637
"634",25,21,1,1,154,2,1,1,4,0.634578853436371,0.683323511789957
"635",25,26,1,2,155,2,2,1,4,0.579526141494763,0.603987369210909
"636",25,27,1,1,156,1,1,1,4,0.326409063872899,0.401103228714394
"637",25,35,1,2,157,1,2,1,5,0.381024555783372,0.378834669056974
"638",25,29,1,2,158,2,1,0,2,0.861864894923682,0.830505890745461
"639",25,27,1,1,159,1,1,1,5,0.359160287005183,0.514084576347291
"640",25,30,1,1,160,2,1,1,3,0.691149864979052,0.700645313052981
"641",25,31,1,2,161,3,1,0,2,1.48177384251248,1.57825830690946
"642",25,26,1,1,162,2,1,1,3,0.466499814912217,0.39717817376238
"643",25,28,1,1,163,1,2,0,3,0.527743122296506,0.551968981293797
"644",25,21,1,1,164,3,2,0,1,1.11105718425735,1.16453310894064
"645",25,26,1,1,165,3,2,0,2,1.002123055807,1.05061773986009
"646",25,27,1,2,166,3,2,1,2,0.756537403911586,0.712119639164534
"647",25,35,1,1,167,2,2,0,2,0.640971056590693,0.607165287520296
"648",25,29,1,2,168,3,2,1,2,0.587950291314487,0.609196056224349
"649",25,27,1,2,169,2,1,0,2,0.853926303971535,0.858186749430789
"650",25,30,1,2,170,1,1,0,3,0.478658246372911,0.442421919274801
"651",25,31,1,2,171,2,2,1,4,0.689283349943206,0.740066456479578
"652",25,26,1,1,172,3,1,1,3,1.01056249380987,0.973002985451708
"653",25,28,1,1,173,1,1,1,5,0.303535535686358,0.308272177682859
"654",25,21,1,2,174,3,2,1,2,0.929957856058007,0.886234121308986
"655",25,26,1,1,175,1,1,1,4,0.397182128443358,0.439022095039593
"656",25,27,1,1,176,3,1,1,2,0.651356379920326,0.659907784754106
"657",25,35,1,2,177,3,2,1,3,0.582962082200979,0.522294314851772
"658",25,29,1,2,178,2,1,0,2,0.57835635412662,0.551578778496862
"659",25,27,1,2,179,1,2,1,5,0.429507842165664,0.475592941649888
"660",25,30,1,1,180,2,2,0,3,0.744037300543219,0.697921587620625
"661",25,31,1,2,181,3,1,0,2,1.48070887892728,1.43013277725634
"662",25,26,1,1,182,3,1,1,2,0.775010815858805,0.818995037161316
"663",25,28,1,2,183,1,2,1,4,0.455460544094849,0.514533806054635
"664",25,21,1,1,184,3,1,1,3,0.707980257926956,0.730463709651737
"665",25,26,1,2,185,2,2,1,4,0.436482469566404,0.464040531867371
"666",25,27,1,2,186,2,2,1,4,0.482481906536181,0.477494826757255
"667",25,35,1,1,187,3,1,1,2,0.919337227547558,0.936912589613175
"668",25,29,1,1,188,3,2,0,1,0.587253057298664,0.610214130649293
"669",25,27,1,2,189,1,1,0,3,0.645426176872471,0.67664759058749
"670",25,30,1,2,190,3,2,1,2,1.18635450563946,1.27622489066033
"671",25,31,1,1,191,1,1,1,5,0.438193258179979,0.416001282022276
"672",25,26,1,2,192,2,1,0,3,0.650250260587904,0.680718131982942
"673",25,28,1,1,193,3,1,1,2,0.491546764134334,0.529032354006948
"674",25,21,1,1,194,1,1,1,5,0.29519571619716,0.220196746604917
"675",25,26,1,2,195,1,2,1,5,0.458318715317918,0.475649451747432
"676",25,27,1,1,196,3,2,0,2,0.64083470713556,0.642363149985715
"677",25,35,1,1,197,2,1,1,3,0.485240579420292,0.50863565923302
"678",25,29,1,2,198,2,2,1,3,0.699156902873091,0.727362856865952
"679",25,27,1,1,199,1,1,1,5,0.479534742021014,0.470399159030734
"680",25,30,1,2,200,3,1,0,1,0.824836959962666,0.880994335275832
"681",25,31,1,1,201,3,1,1,2,0.859438130169703,0.968073839496994
"682",25,26,1,2,202,3,2,1,3,0.720445144717864,0.750971548713215
"683",25,28,1,1,203,1,1,1,5,0.357486424295334,0.409494202800494
"684",25,21,1,1,204,1,1,1,4,0.470947086036055,0.531818919445837
"685",25,26,1,2,205,3,2,1,3,0.824765905747808,0.83385459681089
"686",25,27,1,2,206,2,1,0,2,0.92648650517807,0.901977769405176
"687",25,35,1,1,207,3,1,1,3,1.10359831176444,1.09294013121066
"688",25,29,1,2,208,2,2,1,4,0.60308798217008,0.573145978632312
"689",25,27,1,2,209,3,2,1,2,0.852454970235792,0.883172961604275
"690",25,30,1,1,210,1,1,1,5,0.566837871390213,0.620988529153858
"691",25,31,1,2,211,1,2,1,5,0.489869551327989,0.461288001763297
"692",25,26,1,2,212,2,1,0,3,0.822967699216446,0.840063571842649
"693",25,28,1,2,213,3,2,1,2,0.56949123880513,0.55562033375237
"694",25,21,1,1,214,2,2,0,2,0.714084004632914,0.703257623048332
"695",25,26,1,1,215,1,1,1,4,0.430081840420867,0.404199213888234
"696",25,27,1,1,216,2,1,1,4,0.501979560305004,0.423769654019978
"697",25,35,1,1,217,1,1,1,5,0.465565097554482,0.497386250082524
"698",25,29,1,1,218,2,1,1,3,0.452660664429632,0.409148636160041
"699",25,27,1,1,219,2,2,0,2,0.886735200285116,0.963268028684339
"700",25,30,1,1,220,1,2,0,4,0.689280666847143,0.603782329063674
"701",25,31,1,1,221,3,2,0,1,0.287271964787634,0.251393028062598
"702",25,26,1,1,222,2,1,1,3,0.620239574374462,0.502655263695875
"703",25,28,1,1,223,1,2,0,4,0.620304370096945,0.646847108069333
"704",25,21,1,1,224,3,2,0,2,1.18882134641984,1.11763701699003
"705",25,26,1,1,225,2,2,0,3,0.706439077719364,0.711228227659549
"706",25,27,1,1,226,2,1,1,4,0.831882257270084,0.896908179893136
"707",25,35,1,2,227,1,2,1,4,0.32020899685152,0.243104617030345
"708",25,29,1,1,228,2,2,0,2,0.629965051236546,0.60779558965649
"709",25,27,1,1,229,2,2,0,3,0.555513808026035,0.639615859334103
"710",25,30,1,2,230,2,2,1,4,0.475829911094988,0.473158198112825
"711",25,31,1,2,231,1,2,1,4,0.380964820090329,0.381185716506439
"712",25,26,1,1,232,3,2,0,1,1.46026516413424,1.39585796142498
"713",25,28,1,2,233,3,1,0,2,1.55581659865787,1.54838886510167
"714",25,21,1,1,234,1,1,1,4,0.447701247981902,0.481127446214778
"715",25,26,1,2,235,1,2,1,5,0.402050438910493,0.439355232869367
"716",25,27,1,2,236,2,2,1,4,0.573114499498493,0.577140884419123
"717",25,35,1,2,237,2,2,1,3,0.530334791109074,0.48888745349702
"718",25,29,1,2,238,1,2,1,4,0.34302279178365,0.323762662844703
"719",25,27,1,2,239,1,2,1,5,0.467808294010816,0.413866498824538
"720",25,30,1,2,240,3,2,1,3,0.872528161075346,0.841275847666084
"721",24,35,2,2,1,3,2,1,3,0.958276133201179,1.02691340268305
"722",24,19,2,1,2,1,2,0,3,0.488198710740249,0.464633136168439
"723",24,31,2,1,3,3,1,1,2,0.514728305360232,0.504621834995294
"724",24,37,2,2,4,1,2,1,5,0.407667181405587,0.403241608973869
"725",24,26,2,1,5,1,1,1,4,0.414818899957519,0.386016230301218
"726",24,29,2,1,6,2,1,1,3,0.729353572439048,0.807430976495917
"727",24,29,2,2,7,2,2,1,3,0.553767316439423,0.509370940991831
"728",24,21,2,2,8,1,2,1,4,0.336144863794399,0.392082163066872
"729",24,27,2,1,9,3,1,1,3,0.791080119508274,0.788765914356179
"730",24,18,2,1,10,3,2,0,2,1.06748300919567,1.16779526516878
"731",24,35,2,1,11,3,2,0,1,1.5901727965242,1.6777932464556
"732",24,19,2,2,12,2,2,1,3,0.759178515992319,0.750145991652302
"733",24,31,2,2,13,1,2,1,4,0.363812771495956,0.274110547158077
"734",24,37,2,2,14,1,1,0,3,0.560436733338382,0.483283727757429
"735",24,26,2,2,15,2,1,0,2,0.711210949487094,0.642048421427802
"736",24,29,2,2,16,3,2,1,2,0.713601366089005,0.665208282752241
"737",24,29,2,2,17,3,1,0,2,1.34000944472361,1.28056193294601
"738",24,21,2,1,18,3,2,0,2,0.588598414882229,0.580350463111105
"739",24,27,2,2,19,1,2,1,5,0.448591924872706,0.43735964639237
"740",24,18,2,1,20,2,2,0,3,0.672851410294554,0.719662395521044
"741",24,35,2,1,21,2,2,0,2,0.829508760452288,0.818391326437367
"742",24,19,2,1,22,3,2,0,1,0.98236962442517,1.00170728435939
"743",24,31,2,1,23,3,1,1,2,0.545428466406285,0.522966106374845
"744",24,37,2,2,24,1,2,1,5,0.348335291767228,0.43874398809096
"745",24,26,2,2,25,1,2,1,5,0.446865492579081,0.432397899088711
"746",24,29,2,1,26,2,1,1,3,0.642446802313359,0.61425333661475
"747",24,29,2,1,27,3,2,0,2,1.64132860933973,1.58536997856126
"748",24,21,2,2,28,2,1,0,2,0.855803671662049,0.842168948825265
"749",24,27,2,2,29,2,2,1,3,0.803517142593732,0.896797259508732
"750",24,18,2,1,30,1,1,1,5,0.44917804327806,0.415249293472097
"751",24,35,2,1,31,3,1,1,3,0.365980692213544,0.425337234575143
"752",24,19,2,1,32,3,1,1,2,0.926945552096229,0.940782789742779
"753",24,31,2,2,33,1,2,1,4,0.408683976311549,0.449244870157429
"754",24,37,2,1,34,3,2,0,1,0.712756093293213,0.700081988221183
"755",24,26,2,2,35,1,2,1,4,0.321537328324045,0.2921231672653
"756",24,29,2,1,36,2,1,1,4,0.512751234379294,0.484728667701809
"757",24,29,2,1,37,1,1,1,5,0.403649160565428,0.518721499515712
"758",24,21,2,2,38,2,2,1,4,0.420257080102043,0.435907698175539
"759",24,27,2,2,39,1,2,1,5,0.435681140462703,0.485513157312485
"760",24,18,2,2,40,2,2,1,4,0.526783932633223,0.508101089773302
"761",24,35,2,1,41,1,1,1,5,0.450505024697492,0.410327415337564
"762",24,19,2,2,42,1,2,1,4,0.261064413958543,0.319304793425084
"763",24,31,2,2,43,2,1,0,3,0.733279146007851,0.69035031543003
"764",24,37,2,1,44,1,2,0,4,0.499241390835475,0.473160249235062
"765",24,26,2,2,45,3,2,1,2,0.921380939824698,0.926919207413539
"766",24,29,2,1,46,3,1,1,3,0.531758958681774,0.501887368920283
"767",24,29,2,1,47,3,2,0,2,0.382737621584257,0.321984101295418
"768",24,21,2,1,48,1,1,1,4,0.260635057358052,0.188086459670204
"769",24,27,2,1,49,3,2,0,1,0.82788419347674,0.866140462545207
"770",24,18,2,2,50,2,1,0,2,0.504672295391817,0.464027282224314
"771",24,35,2,1,51,3,1,1,2,1.04768076036531,1.10793137352747
"772",24,19,2,2,52,1,2,1,5,0.425264651108038,0.369290658538313
"773",24,31,2,2,53,2,1,0,2,0.638291683431518,0.590154208742894
"774",24,37,2,2,54,1,2,1,4,0.40821697025612,0.378307831432649
"775",24,26,2,2,55,2,1,0,2,0.791352846356739,0.799949523230971
"776",24,29,2,1,56,3,1,1,3,0.954442367099691,0.969825831895375
"777",24,29,2,1,57,1,2,0,3,0.425181337978963,0.408161707357439
"778",24,21,2,1,58,1,1,1,4,0.409552995189006,0.396942340951723
"779",24,27,2,1,59,2,1,1,3,0.441725526330564,0.417566080480167
"780",24,18,2,1,60,3,2,0,2,0.384229925880944,0.340796250873589
"781",24,35,2,2,61,3,1,0,1,1.22747123794057,1.28751039610895
"782",24,19,2,1,62,3,1,1,3,1.27451226592245,1.23005911741911
"783",24,31,2,1,63,2,1,1,4,0.66114812111072,0.732432032980098
"784",24,37,2,2,64,1,2,1,4,0.388803333847535,0.374291327054586
"785",24,26,2,2,65,1,2,1,4,0.360669152550665,0.35519958306544
"786",24,29,2,2,66,1,2,1,5,0.373192995370357,0.379692716313989
"787",24,29,2,2,67,1,1,0,3,0.572943700675576,0.637090731608046
"788",24,21,2,1,68,1,1,1,4,0.449410508345964,0.398944942630101
"789",24,27,2,1,69,3,1,1,3,0.730849231810496,0.766867799025006
"790",24,18,2,2,70,3,2,1,2,0.693686000979097,0.830008729096181
"791",24,35,2,1,71,2,2,0,3,0.724150503746356,0.735695676048301
"792",24,19,2,1,72,2,1,1,4,0.654451196782753,0.680668504912697
"793",24,31,2,2,73,1,2,1,5,0.430689534185605,0.359945507009979
"794",24,37,2,2,74,3,2,1,2,0.95964505695222,0.927575429283402
"795",24,26,2,1,75,3,1,1,2,0.94662926581329,0.951217848550524
"796",24,29,2,1,76,2,2,0,2,0.388828418025859,0.384574002440081
"797",24,29,2,2,77,2,2,1,3,0.87023604499299,0.894349405804496
"798",24,21,2,1,78,1,1,1,5,0.413027535418333,0.418934905259357
"799",24,27,2,1,79,1,1,1,4,0.427542020354029,0.429066986297092
"800",24,18,2,1,80,3,1,1,3,0.758753743982896,0.701313884026957
"801",24,35,2,2,81,2,2,1,3,0.829019353104957,0.790161969500426
"802",24,19,2,1,82,3,1,1,3,1.0501615922033,1.05318220504229
"803",24,31,2,2,83,3,2,1,3,1.183504600583,1.1288862443378
"804",24,37,2,1,84,2,2,0,2,0.457218759610208,0.428190218510265
"805",24,26,2,1,85,3,1,1,2,0.701952018880335,0.774188355806463
"806",24,29,2,1,86,1,1,1,4,0.466706442543658,0.515518957875322
"807",24,29,2,2,87,2,2,1,3,0.700972831234425,0.698464211052192
"808",24,21,2,2,88,2,2,1,3,0.552908005151073,0.529535670253619
"809",24,27,2,2,89,1,2,1,4,0.393057531070867,0.432827388957617
"810",24,18,2,1,90,2,2,0,2,0.535531508603414,0.501159423796862
"811",24,35,2,2,91,1,2,1,4,0.358910688879797,0.38609061939764
"812",24,19,2,2,92,1,2,1,4,0.528563064447155,0.553395782353556
"813",24,31,2,2,93,3,1,0,1,1.20830982699058,1.23419499864414
"814",24,37,2,2,94,1,2,1,4,0.440653908142,0.360974786939437
"815",24,26,2,1,95,1,1,1,4,0.397321303641628,0.284299332347195
"816",24,29,2,2,96,3,1,0,2,1.19534114792412,1.24832911961436
"817",24,29,2,1,97,3,1,1,2,0.979821237756924,0.853608521937101
"818",24,21,2,1,98,1,1,1,4,0.364212730087787,0.42607801823564
"819",24,27,2,2,99,1,1,0,3,0.554184734214856,0.574062260474255
"820",24,18,2,2,100,2,2,1,3,0.387067254196896,0.376760557507729
"821",24,35,2,2,101,3,2,1,2,0.576256037490362,0.516668757928393
"822",24,19,2,2,102,2,1,0,3,0.91198228883753,0.94194750977516
"823",24,31,2,2,103,3,2,1,2,0.637673853637645,0.58690040341136
"824",24,37,2,2,104,2,1,0,2,0.714146509136133,0.713196780250332
"825",24,26,2,2,105,1,2,1,4,0.352023514855545,0.330745863929336
"826",24,29,2,2,106,3,1,0,2,0.804171725698226,0.885602449408507
"827",24,29,2,2,107,2,2,1,3,0.493445451149265,0.571467245892008
"828",24,21,2,2,108,3,1,0,2,0.597390904577822,0.5270138661633
"829",24,27,2,1,109,2,2,0,2,0.806573735652791,0.807101111613729
"830",24,18,2,2,110,1,2,1,4,0.314384492257463,0.258947947615237
"831",24,35,2,2,111,3,2,1,2,0.936609109830183,0.99568754161035
"832",24,19,2,1,112,1,1,1,4,0.599345955383635,0.656026044117922
"833",24,31,2,2,113,1,2,1,4,0.501226662878477,0.570168529386527
"834",24,37,2,2,114,3,1,0,2,0.811846120706649,0.902490276670278
"835",24,26,2,2,115,2,1,0,2,0.645292523764508,0.714373713990583
"836",24,29,2,1,116,1,2,0,3,0.561541115247963,0.633356964924255
"837",24,29,2,1,117,2,2,0,2,0.624731732382831,0.618076514383909
"838",24,21,2,1,118,2,1,1,4,0.401187641885226,0.323342215122747
"839",24,27,2,1,119,3,2,0,1,1.08508911057105,1.01809806016455
"840",24,18,2,2,120,3,1,0,1,0.58923875013878,0.600341530191149
"841",24,35,2,2,121,3,1,0,1,0.873999396853663,0.844533526158715
"842",24,19,2,1,122,2,2,0,3,0.894198950138154,0.814910093846801
"843",24,31,2,1,123,1,1,1,4,0.344307093984743,0.293022789468366
"844",24,37,2,1,124,1,1,1,5,0.28595149141892,0.296457252876646
"845",24,26,2,2,125,3,1,0,1,1.0426692563468,1.03166691765843
"846",24,29,2,2,126,2,2,1,4,0.418864255934788,0.451653869057942
"847",24,29,2,2,127,3,2,1,2,1.16014936996638,1.24185919669005
"848",24,21,2,1,128,3,2,0,1,1.29994707472654,1.32540400436053
"849",24,27,2,2,129,3,2,1,2,0.779171729255797,0.723150498118199
"850",24,18,2,1,130,2,1,1,3,0.557785924280651,0.540969071090108
"851",24,35,2,2,131,3,2,1,3,0.947984041355437,0.895905424906249
"852",24,19,2,1,132,2,1,1,4,0.635690020867472,0.64219513798103
"853",24,31,2,2,133,3,2,1,3,0.665305501342542,0.715358211928987
"854",24,37,2,1,134,1,1,1,5,0.395201370648371,0.41859119953846
"855",24,26,2,1,135,2,1,1,4,0.624769140398397,0.560657808144925
"856",24,29,2,1,136,2,2,0,3,0.695223357319822,0.732812032169569
"857",24,29,2,2,137,1,2,1,4,0.509730677951313,0.51859862419963
"858",24,21,2,1,138,3,1,1,2,0.941295073577213,0.883787206042554
"859",24,27,2,1,139,1,1,1,5,0.349907825125265,0.354387028701081
"860",24,18,2,1,140,2,2,0,2,0.604411449690747,0.59994518148666
"861",24,35,2,1,141,1,1,1,5,0.375799881612456,0.342809756760789
"862",24,19,2,2,142,3,2,1,2,0.649433077025951,0.713753558824106
"863",24,31,2,2,143,1,2,1,5,0.330994051639018,0.387414091819921
"864",24,37,2,2,144,1,2,1,5,0.343788145211712,0.329123023276811
"865",24,26,2,2,145,2,1,0,2,0.704685857245631,0.722037081769266
"866",24,29,2,2,146,2,1,0,2,0.940401535885493,0.911082900933366
"867",24,29,2,1,147,1,2,0,4,0.529642489255351,0.585058254691906
"868",24,21,2,1,148,1,1,1,4,0.384094183549743,0.363041980430331
"869",24,27,2,1,149,3,2,0,1,1.60910779628698,1.49874131816
"870",24,18,2,2,150,2,2,1,3,0.651122607486751,0.591971749820481
"871",24,35,2,1,151,2,1,1,3,0.644090246406888,0.626197442986563
"872",24,19,2,1,152,2,1,1,3,0.531455596035966,0.618902144936638
"873",24,31,2,1,153,2,1,1,3,0.575695932976462,0.616412713770304
"874",24,37,2,1,154,3,1,1,3,0.635785152753296,0.625462561865619
"875",24,26,2,1,155,3,2,0,1,0.647538204112147,0.711632160022655
"876",24,29,2,1,156,1,1,1,4,0.379126399379507,0.39625443293799
"877",24,29,2,1,157,3,1,1,2,0.875110565615532,0.94060710602381
"878",24,21,2,1,158,2,2,0,3,1.08917230363809,1.10184765047207
"879",24,27,2,2,159,2,1,0,3,0.906193565935412,0.908250622907726
"880",24,18,2,1,160,2,1,1,4,0.504832575492227,0.529067985883227
"881",24,35,2,2,161,1,2,1,4,0.405353377044687,0.45669535871901
"882",24,19,2,2,162,2,1,0,3,0.654977714222119,0.612589025097994
"883",24,31,2,1,163,2,2,0,2,0.738206827017693,0.758730739355281
"884",24,37,2,1,164,2,2,0,3,0.561583287710309,0.583310657912779
"885",24,26,2,2,165,3,1,0,1,1.17942400041781,1.28287886115199
"886",24,29,2,1,166,2,1,1,3,0.620507962748351,0.586611799065826
"887",24,29,2,1,167,1,2,0,4,0.825997044052188,0.866427813553141
"888",24,21,2,1,168,3,1,1,3,0.812757301007913,0.748678220607723
"889",24,27,2,2,169,2,2,1,4,0.449941553496156,0.443295675587379
"890",24,18,2,2,170,2,2,1,3,0.575052094771547,0.488628210155724
"891",24,35,2,1,171,1,2,0,4,0.469728265167588,0.511693680276103
"892",24,19,2,1,172,3,1,1,2,0.977000459853064,1.00195724230471
"893",24,31,2,1,173,2,1,1,4,0.52596376402281,0.496054255685057
"894",24,37,2,2,174,1,2,1,5,0.418314995803489,0.415471893667548
"895",24,26,2,1,175,1,2,0,3,0.480945199681669,0.395549314839083
"896",24,29,2,2,176,1,2,1,4,0.458966246733166,0.391484973770145
"897",24,29,2,2,177,1,2,1,4,0.352753251236594,0.360771707671339
"898",24,21,2,2,178,3,1,0,2,0.490195478286639,0.470853458744851
"899",24,27,2,2,179,1,2,1,5,0.429396182832813,0.480817600638659
"900",24,18,2,2,180,1,2,1,5,0.365625046646851,0.291701541419117
"901",24,35,2,2,181,3,1,0,1,0.606660195783547,0.650310030173792
"902",24,19,2,1,182,3,2,0,1,1.02219756379808,1.00156418945474
"903",24,31,2,2,183,1,2,1,5,0.444289637306622,0.481288216109519
"904",24,37,2,1,184,3,2,0,2,1.11806977727774,1.23628487224304
"905",24,26,2,2,185,2,2,1,4,0.612445521891924,0.714535109556654
"906",24,29,2,1,186,1,1,1,4,0.422857591080747,0.322562301266489
"907",24,29,2,1,187,3,2,0,1,1.27457271027532,1.30039477351285
"908",24,21,2,2,188,2,1,0,2,0.541853971893687,0.571380933850727
"909",24,27,2,1,189,2,2,0,2,0.634716607204967,0.619930615936833
"910",24,18,2,2,190,2,2,1,3,0.609018765607019,0.507139457269414
"911",24,35,2,2,191,2,2,1,3,0.727384329498161,0.76451847464507
"912",24,19,2,1,192,1,1,1,4,0.401645613493381,0.453354987129307
"913",24,31,2,2,193,2,2,1,3,0.582264486126301,0.52868094590606
"914",24,37,2,2,194,1,1,0,4,0.526934890951227,0.577008944290282
"915",24,26,2,1,195,3,1,1,2,0.356532202625648,0.402456288558885
"916",24,29,2,1,196,1,1,1,5,0.457202996169877,0.467849559937904
"917",24,29,2,1,197,1,2,0,3,0.564440576400317,0.61526089529605
"918",24,21,2,1,198,2,1,1,3,0.587390867229343,0.550794389860683
"919",24,27,2,2,199,3,2,1,2,0.949289914164812,0.971555408795831
"920",24,18,2,2,200,3,1,0,2,0.906475636464138,0.855829572342483
"921",24,35,2,2,201,2,1,0,2,0.679192609454889,0.767293260739653
"922",24,19,2,2,202,3,1,0,2,1.41850044048814,1.40814015993467
"923",24,31,2,2,203,3,1,0,2,1.02297561997402,1.00653133577431
"924",24,37,2,2,204,3,1,0,1,0.512784103142503,0.511418492871793
"925",24,26,2,1,205,3,1,1,2,1.14822827217921,1.09814546765199
"926",24,29,2,1,206,1,1,1,5,0.308906483094699,0.405297383180972
"927",24,29,2,1,207,2,1,1,4,0.657556997279488,0.639389558743546
"928",24,21,2,2,208,1,2,1,4,0.353799048890216,0.355686821261578
"929",24,27,2,1,209,1,1,1,4,0.388909128522771,0.368386421978434
"930",24,18,2,1,210,1,2,0,4,0.470620912530338,0.518929220595483
"931",24,35,2,2,211,3,1,0,1,0.824282645113854,0.930350310228144
"932",24,19,2,2,212,2,1,0,3,0.397595277143439,0.379214842207597
"933",24,31,2,1,213,1,2,0,3,0.455263373521754,0.477684705868893
"934",24,37,2,2,214,2,1,0,2,1.01314877195441,0.991015354623666
"935",24,26,2,2,215,2,2,1,4,0.680894638242921,0.682980059692798
"936",24,29,2,1,216,2,2,0,3,0.621102553135012,0.588478956764953
"937",24,29,2,1,217,3,2,0,2,1.07282778682224,1.17790147983501
"938",24,21,2,1,218,2,1,1,4,0.5583472838111,0.540915404983596
"939",24,27,2,2,219,3,2,1,3,0.940161099735192,0.929316589102142
"940",24,18,2,2,220,3,1,0,1,0.630668517097199,0.592760778654298
"941",24,35,2,2,221,1,1,0,3,0.555243497355975,0.567940764354637
"942",24,19,2,1,222,1,2,0,3,0.475124729326247,0.44440847606395
"943",24,31,2,2,223,1,2,1,4,0.33119468599517,0.367400957200661
"944",24,37,2,2,224,2,1,0,3,0.531681129903853,0.616857060875396
"945",24,26,2,2,225,2,1,0,2,0.764206106047849,0.764895205601444
"946",24,29,2,1,226,3,2,0,1,1.40382154079159,1.41974398446994
"947",24,29,2,2,227,1,2,1,4,0.354291308773893,0.353955894713981
"948",24,21,2,1,228,2,1,1,4,0.881403851234532,0.831057336743556
"949",24,27,2,2,229,2,2,1,3,0.598706118508051,0.582947207475245
"950",24,18,2,1,230,2,1,1,3,0.628459183104399,0.650594637298496
"951",24,35,2,2,231,3,2,1,2,0.80545595089089,0.846775987747508
"952",24,19,2,1,232,2,2,0,3,0.371379676864896,0.434115090257761
"953",24,31,2,1,233,3,1,1,3,0.600481462660886,0.636458337950914
"954",24,37,2,2,234,2,2,1,3,0.768523016413156,0.775997057108797
"955",24,26,2,2,235,3,2,1,2,0.915288583379386,0.796313349106283
"956",24,29,2,2,236,1,2,1,4,0.440788067758968,0.376498401455876
"957",24,29,2,1,237,1,1,1,5,0.408438261435643,0.392994212299736
"958",24,21,2,1,238,3,2,0,2,0.712586432507679,0.671055736549032
"959",24,27,2,1,239,3,1,1,2,0.74365329648909,0.805965478212654
"960",24,18,2,1,240,2,2,0,2,0.49922633126452,0.43849952412528
"961",23,32,1,2,1,1,1,0,3,0.609397121867317,0.711024182387038
"962",23,18,1,1,2,1,1,1,5,0.403307123412471,0.386952724407756
"963",23,39,1,2,3,3,1,0,2,1.13493109315224,1.1065761447016
"964",23,25,1,2,4,3,1,0,1,0.832538134338265,0.859734885806064
"965",23,25,1,1,5,2,1,1,4,0.560808193405609,0.602870744942694
"966",23,37,1,1,6,3,1,1,3,0.668914714106144,0.591239675402403
"967",23,33,1,2,7,1,2,1,4,0.381894213428192,0.443577079201171
"968",23,19,1,1,8,2,1,1,4,0.674818548053177,0.563532298975041
"969",23,19,1,2,9,2,2,1,3,0.623478508797501,0.624421759260106
"970",23,25,1,2,10,3,1,0,1,0.950175695193688,0.960405462383419
"971",23,32,1,1,11,3,2,0,1,1.42681322903816,1.49523937000082
"972",23,18,1,2,12,2,1,0,3,0.833977494872017,0.877182461064239
"973",23,39,1,2,13,3,1,0,2,0.696557676891385,0.731212620145866
"974",23,25,1,2,14,3,1,0,1,0.741526982733391,0.72460176102999
"975",23,25,1,2,15,1,1,0,4,0.380895395354307,0.342610799782295
"976",23,37,1,1,16,1,1,1,4,0.325755141578916,0.364680406945987
"977",23,33,1,1,17,3,1,1,3,0.876042771242136,0.840001847907317
"978",23,19,1,1,18,3,2,0,1,1.64550532451718,1.65180185787715
"979",23,19,1,1,19,1,2,0,3,0.558898219111513,0.608928807629401
"980",23,25,1,1,20,1,1,1,4,0.495577471812511,0.503650441316138
"981",23,32,1,1,21,2,2,0,2,0.69247877726721,0.695172719083165
"982",23,18,1,2,22,1,2,1,4,0.460164994174161,0.462086472629172
"983",23,39,1,2,23,2,1,0,2,1.13148108108242,1.13535284465244
"984",23,25,1,1,24,1,2,0,4,0.446451299659337,0.403325495720507
"985",23,25,1,2,25,2,2,1,4,0.512171051534236,0.581530287895906
"986",23,37,1,2,26,2,1,0,2,0.762372107059159,0.788291508513283
"987",23,33,1,1,27,1,1,1,4,0.423909052655664,0.45092489903843
"988",23,19,1,1,28,2,1,1,3,0.438690835543373,0.451473407305732
"989",23,19,1,2,29,3,2,1,3,0.800510966781081,0.888673233686278
"990",23,25,1,2,30,3,2,1,2,0.988616939100536,1.10561518645222
"991",23,32,1,1,31,1,1,1,5,0.417935861919077,0.528751552819217
"992",23,18,1,2,32,2,1,0,3,0.833135087622838,0.800633656832447
"993",23,39,1,1,33,3,1,1,3,0.575705959942523,0.561175572246485
"994",23,25,1,1,34,1,2,0,4,0.56092614069463,0.628115277967924
"995",23,25,1,2,35,1,2,1,4,0.462326692675412,0.510695643662814
"996",23,37,1,1,36,3,2,0,1,1.5033994096089,1.52545698184999
"997",23,33,1,1,37,2,2,0,2,0.662220487018445,0.594414020620419
"998",23,19,1,1,38,3,2,0,1,1.227622038899,1.18083559645226
"999",23,19,1,1,39,3,2,0,1,1.26353206584409,1.28040134691354
"1000",23,25,1,2,40,2,2,1,4,0.633489704232084,0.637128291205614
"1001",23,32,1,1,41,2,1,1,3,0.609238552661468,0.63779914801682
"1002",23,18,1,2,42,1,2,1,4,0.318223414808699,0.295659866542338
"1003",23,39,1,2,43,1,1,0,4,0.589164095918976,0.619628745276944
"1004",23,25,1,1,44,2,1,1,4,0.450886640312356,0.428433000836975
"1005",23,25,1,2,45,2,1,0,2,0.853999628499832,0.909442918148277
"1006",23,37,1,1,46,3,2,0,2,1.03114688359372,0.915060637228659
"1007",23,33,1,2,47,2,2,1,4,0.342337617223124,0.330403131274435
"1008",23,19,1,1,48,3,1,1,2,0.604595764320879,0.685130505098157
"1009",23,19,1,2,49,2,2,1,3,0.413068370509455,0.469241476242431
"1010",23,25,1,2,50,3,2,1,3,0.726309936093666,0.759796592355633
"1011",23,32,1,2,51,3,2,1,2,0.756696711308754,0.763658265756245
"1012",23,18,1,1,52,3,1,1,3,0.888333993192393,0.906688561305959
"1013",23,39,1,1,53,1,1,1,5,0.33538053558341,0.310724845431696
"1014",23,25,1,2,54,2,1,0,2,0.664221228912931,0.689669098086241
"1015",23,25,1,2,55,2,2,1,3,0.64624690504463,0.671199661714295
"1016",23,37,1,1,56,3,1,1,3,0.854991543619029,0.932333531873629
"1017",23,33,1,2,57,3,1,0,1,0.957822209750376,1.01393597630571
"1018",23,19,1,2,58,1,2,1,4,0.3503618531935,0.397816194562064
"1019",23,19,1,1,59,2,2,0,3,1.00161553560911,0.921005853071317
"1020",23,25,1,2,60,1,1,0,3,0.419033787241166,0.342034640767369
"1021",23,32,1,2,61,1,2,1,5,0.379345172727812,0.391527417100501
"1022",23,18,1,2,62,1,2,1,4,0.502153864508609,0.541687653014111
"1023",23,39,1,1,63,1,1,1,5,0.416226906851874,0.396234701675247
"1024",23,25,1,2,64,3,1,0,2,1.05957582492542,1.03076447874214
"1025",23,25,1,2,65,3,1,0,1,1.27029030517212,1.24731742020713
"1026",23,37,1,1,66,1,1,1,5,0.467792409448054,0.465504173407563
"1027",23,33,1,1,67,3,1,1,2,0.728135828266192,0.758231495385108
"1028",23,19,1,2,68,2,2,1,3,0.506480641213443,0.505836716661982
"1029",23,19,1,1,69,2,2,0,2,0.541291694438261,0.47715379898086
"1030",23,25,1,1,70,3,1,1,3,0.681868310237943,0.718897774662049
"1031",23,32,1,1,71,2,1,1,4,0.671291699851579,0.696183216451773
"1032",23,18,1,2,72,1,2,1,4,0.437247260271609,0.416392251317175
"1033",23,39,1,2,73,3,2,1,3,0.708166117602741,0.678979444920247
"1034",23,25,1,2,74,3,1,0,1,0.611008717458646,0.57813717876446
"1035",23,25,1,1,75,1,1,1,5,0.342434670276906,0.309477828430458
"1036",23,37,1,1,76,1,1,1,4,0.330060279459421,0.365831999546885
"1037",23,33,1,2,77,3,1,0,1,0.955773074703878,0.97491587262621
"1038",23,19,1,1,78,3,1,1,2,0.779184356257622,0.757849765119555
"1039",23,19,1,2,79,1,2,1,5,0.548957256653867,0.470472216146093
"1040",23,25,1,1,80,1,1,1,5,0.408297953830863,0.324047988117467
"1041",23,32,1,2,81,1,2,1,4,0.177852189771687,0.183659517415451
"1042",23,18,1,1,82,1,2,0,4,0.539766681254658,0.661637684869641
"1043",23,39,1,1,83,3,2,0,2,0.972976663689688,0.947386955367569
"1044",23,25,1,1,84,1,1,1,5,0.442833295671066,0.447717590341347
"1045",23,25,1,2,85,3,2,1,3,0.900156604694302,0.988576591436449
"1046",23,37,1,2,86,1,2,1,5,0.373977881455736,0.353255368439206
"1047",23,33,1,2,87,3,1,0,2,0.459966468996961,0.443216349201732
"1048",23,19,1,2,88,2,1,0,2,0.729230705443854,0.736797581341992
"1049",23,19,1,1,89,2,1,1,4,0.5425955618072,0.540503443842197
"1050",23,25,1,1,90,1,2,0,3,0.504832520440681,0.464021324569842
"1051",23,32,1,2,91,1,2,1,5,0.365139770412184,0.39781225418044
"1052",23,18,1,2,92,1,1,0,4,0.532256665724886,0.558923472340326
"1053",23,39,1,2,93,2,2,1,4,0.589500283930681,0.627217518042401
"1054",23,25,1,2,94,1,2,1,4,0.404326190367509,0.351779834254309
"1055",23,25,1,1,95,2,1,1,4,0.73419045983362,0.697058711619064
"1056",23,37,1,1,96,3,2,0,2,0.624024129175199,0.585619486515762
"1057",23,33,1,2,97,1,2,1,4,0.272682939174276,0.326495829840955
"1058",23,19,1,2,98,2,2,1,3,0.627845407321657,0.568304197293583
"1059",23,19,1,2,99,3,2,1,2,0.818148941863996,0.908106689943592
"1060",23,25,1,1,100,2,1,1,3,0.49383460407,0.613004179210809
"1061",23,32,1,2,101,1,2,1,4,0.234952047974174,0.269835368020633
"1062",23,18,1,1,102,2,2,0,3,0.455931769961067,0.407652516186436
"1063",23,39,1,2,103,2,2,1,3,0.537949766285664,0.489970458357872
"1064",23,25,1,1,104,2,1,1,3,0.424659862906374,0.381248612326473
"1065",23,25,1,1,105,1,1,1,5,0.37280180738439,0.375842876228728
"1066",23,37,1,1,106,1,1,1,4,0.322317429418706,0.2907598965242
"1067",23,33,1,1,107,1,1,1,4,0.383510485404639,0.378296689217792
"1068",23,19,1,1,108,2,1,1,4,0.486743531629113,0.583695900827344
"1069",23,19,1,1,109,3,1,1,2,1.06563901220798,1.03500873807059
"1070",23,25,1,1,110,1,1,1,5,0.195436304252713,0.15446065254114
"1071",23,32,1,1,111,3,2,0,1,0.881998253754879,0.906202946159135
"1072",23,18,1,2,112,2,2,1,4,0.611468405484209,0.569000689042026
"1073",23,39,1,1,113,1,1,1,4,0.488152189609693,0.40580879483694
"1074",23,25,1,2,114,1,2,1,4,0.354123575390989,0.368903074521764
"1075",23,25,1,1,115,3,2,0,1,0.769174046635183,0.706800178318512
"1076",23,37,1,2,116,3,1,0,1,0.869724164402907,0.935263184288096
"1077",23,33,1,2,117,2,2,1,4,0.62649969054092,0.632414619800101
"1078",23,19,1,2,118,1,1,0,4,0.579305585430633,0.635323573932832
"1079",23,19,1,1,119,2,2,0,2,0.85844764032836,0.868102746398501
"1080",23,25,1,1,120,2,2,0,3,0.810016796873799,0.883958899992353
"1081",23,32,1,1,121,2,2,0,3,0.73962540730968,0.780775651869615
"1082",23,18,1,1,122,2,1,1,3,0.46839279633614,0.446265180006681
"1083",23,39,1,2,123,3,1,0,1,0.793992321366047,0.804793623406694
"1084",23,25,1,1,124,1,1,1,4,0.412999113821066,0.467368501327553
"1085",23,25,1,1,125,2,2,0,3,0.69274816704257,0.709385333943648
"1086",23,37,1,2,126,1,2,1,5,0.468607925407077,0.56738722640312
"1087",23,33,1,1,127,2,1,1,3,0.691515029090618,0.632770422257315
"1088",23,19,1,1,128,1,1,1,5,0.41268896320546,0.464625896405091
"1089",23,19,1,1,129,2,1,1,3,0.652877934607324,0.717770270090927
"1090",23,25,1,1,130,2,1,1,4,0.481101352172122,0.433592442890255
"1091",23,32,1,1,131,3,1,1,2,0.988913010388627,0.961478780401059
"1092",23,18,1,2,132,2,2,1,3,0.636036368443023,0.629037790620971
"1093",23,39,1,1,133,3,2,0,1,0.853829489269057,0.811031455529116
"1094",23,25,1,2,134,1,2,1,4,0.326026279889203,0.388084111387672
"1095",23,25,1,2,135,3,2,1,2,0.831119747915932,0.845369670956801
"1096",23,37,1,2,136,2,1,0,2,0.530781084271862,0.540208217885032
"1097",23,33,1,1,137,2,2,0,2,0.750993650079544,0.68536527095223
"1098",23,19,1,1,138,1,1,1,5,0.229333927931147,0.222574061774717
"1099",23,19,1,2,139,2,2,1,3,0.730799957928721,0.79010242226375
"1100",23,25,1,2,140,2,1,0,3,0.836978372638608,0.810380921599151
"1101",23,32,1,1,141,2,1,1,4,0.595397907404333,0.635939950845696
"1102",23,18,1,2,142,3,2,1,3,0.534552611903353,0.48311654678987
"1103",23,39,1,2,143,2,2,1,3,0.612190912792186,0.64100148532629
"1104",23,25,1,2,144,3,2,1,3,0.626688731219722,0.624866365967483
"1105",23,25,1,1,145,2,1,1,4,0.785259553978188,0.712885503261773
"1106",23,37,1,2,146,1,2,1,5,0.40204635601085,0.476693441261191
"1107",23,33,1,1,147,1,1,1,4,0.384867652147139,0.43933010400025
"1108",23,19,1,2,148,2,1,0,3,0.6775879122639,0.718549752334784
"1109",23,19,1,1,149,1,1,1,5,0.433550905494543,0.435387290685293
"1110",23,25,1,1,150,3,2,0,2,0.902644469462938,0.924712059777022
"1111",23,32,1,2,151,2,2,1,4,0.668662873835587,0.736988555786132
"1112",23,18,1,2,152,3,1,0,2,1.03054353406835,1.07429845814718
"1113",23,39,1,2,153,3,2,1,3,1.06248238249136,1.02726873515263
"1114",23,25,1,2,154,1,2,1,4,0.439061899279936,0.498784376210757
"1115",23,25,1,1,155,2,1,1,3,0.60362283901607,0.616687729190034
"1116",23,37,1,2,156,2,2,1,3,0.811733987735249,0.722883441175925
"1117",23,33,1,2,157,3,1,0,2,0.704972367383318,0.732538067919215
"1118",23,19,1,1,158,3,1,1,3,0.619439911141988,0.549278090225621
"1119",23,19,1,2,159,1,1,0,4,0.644758213503057,0.685169190960129
"1120",23,25,1,2,160,2,2,1,3,0.731787008268244,0.614330011235575
"1121",23,32,1,1,161,1,1,1,4,0.452852382659842,0.449303512735019
"1122",23,18,1,2,162,2,2,1,3,0.628556630517942,0.640195427696253
"1123",23,39,1,1,163,2,1,1,3,0.564446927326756,0.510736533632071
"1124",23,25,1,2,164,2,2,1,4,0.754819842849873,0.763505331446313
"1125",23,25,1,1,165,2,2,0,3,0.53776207368073,0.552099326218172
"1126",23,37,1,2,166,1,2,1,5,0.373146930979661,0.327523129227402
"1127",23,33,1,1,167,2,2,0,2,0.606131767737809,0.57987915434229
"1128",23,19,1,2,168,2,2,1,4,0.623891379221191,0.539799038092609
"1129",23,19,1,1,169,2,2,0,2,0.442951949077161,0.459262003936858
"1130",23,25,1,2,170,3,1,0,2,1.33863122669843,1.37417393099286
"1131",23,32,1,1,171,1,1,1,4,0.530046359449772,0.558961734667799
"1132",23,18,1,1,172,1,1,1,4,0.42537303924252,0.475868354754426
"1133",23,39,1,2,173,2,2,1,3,0.496445109081275,0.543291406132636
"1134",23,25,1,1,174,3,2,0,2,0.581899606694592,0.475852771009918
"1135",23,25,1,1,175,3,1,1,2,0.983696849418574,0.972295917508543
"1136",23,37,1,2,176,3,1,0,1,1.46344171003065,1.49309329920945
"1137",23,33,1,1,177,3,2,0,1,0.56215397709643,0.595231533706494
"1138",23,19,1,2,178,3,2,1,2,0.776811854932468,0.752024997580337
"1139",23,19,1,2,179,3,2,1,3,1.06201701118117,1.03349984686601
"1140",23,25,1,2,180,1,1,0,3,0.476928096323059,0.399856758503397
"1141",23,32,1,2,181,1,2,1,4,0.360797675523802,0.285384278933639
"1142",23,18,1,1,182,2,2,0,3,0.729503360001893,0.79624899350875
"1143",23,39,1,2,183,1,2,1,4,0.286233279233818,0.325981425680037
"1144",23,25,1,1,184,1,1,1,4,0.458933643802227,0.452828306595885
"1145",23,25,1,2,185,1,1,0,3,0.491381514616862,0.530229277954354
"1146",23,37,1,1,186,3,1,1,2,1.16729155766566,1.13596172098893
"1147",23,33,1,2,187,1,2,1,4,0.50302901171341,0.522996738086934
"1148",23,19,1,1,188,3,1,1,2,1.06497443391071,1.0975423236536
"1149",23,19,1,2,189,2,1,0,2,0.883611017150374,0.843687168530277
"1150",23,25,1,1,190,3,1,1,2,0.654638938262657,0.668980189176581
"1151",23,32,1,2,191,2,1,0,2,0.920234004060524,0.943573635560834
"1152",23,18,1,2,192,1,2,1,5,0.315318163855787,0.350038602385417
"1153",23,39,1,1,193,3,1,1,3,0.710945402001289,0.682219793346075
"1154",23,25,1,2,194,1,2,1,4,0.360147672915241,0.367186558820071
"1155",23,25,1,2,195,2,1,0,3,0.719864476207862,0.730283989138914
"1156",23,37,1,1,196,1,1,1,5,0.340891106045353,0.289728133032303
"1157",23,33,1,2,197,2,2,1,3,0.387478623205149,0.425935881940884
"1158",23,19,1,1,198,3,1,1,3,0.760221946319995,0.689729299620731
"1159",23,19,1,1,199,1,2,0,3,0.536530874646262,0.629079917441062
"1160",23,25,1,1,200,2,1,1,3,0.792756443928845,0.754455115795025
"1161",23,32,1,2,201,2,2,1,3,0.481068041965487,0.485792742884934
"1162",23,18,1,2,202,3,2,1,3,0.19544949412918,0.209905832487511
"1163",23,39,1,1,203,2,1,1,3,0.539931386867046,0.589461064600532
"1164",23,25,1,1,204,3,2,0,1,0.623624228460198,0.5766034433559
"1165",23,25,1,2,205,3,2,1,3,0.70947507164351,0.689541234223762
"1166",23,37,1,2,206,2,1,0,2,0.793634483631991,0.832007431798732
"1167",23,33,1,2,207,1,2,1,4,0.476778650311067,0.434576678262205
"1168",23,19,1,2,208,3,1,0,1,1.36793623904288,1.3807783323627
"1169",23,19,1,2,209,3,2,1,2,0.875520148875076,0.931577608514749
"1170",23,25,1,2,210,3,1,0,2,0.70533498380597,0.724302707951138
"1171",23,32,1,1,211,2,1,1,4,0.682000953061266,0.630002262549167
"1172",23,18,1,1,212,3,2,0,1,0.627701578869322,0.63267884242552
"1173",23,39,1,1,213,2,1,1,4,0.482067035826002,0.396730520481146
"1174",23,25,1,1,214,3,1,1,2,0.635354306122654,0.630438804462589
"1175",23,25,1,1,215,1,2,0,3,0.584344552905919,0.460404909577633
"1176",23,37,1,1,216,1,1,1,4,0.509732672740816,0.459970667894808
"1177",23,33,1,1,217,1,1,1,4,0.386851447014485,0.295189733995241
"1178",23,19,1,1,218,3,1,1,2,0.659143241408242,0.694331317338742
"1179",23,19,1,1,219,2,1,1,3,0.71886558102798,0.746942170797686
"1180",23,25,1,1,220,1,1,1,4,0.475259377924898,0.444450027209766
"1181",23,32,1,1,221,3,2,0,2,0.867529203169053,0.897774217048599
"1182",23,18,1,2,222,3,2,1,2,0.792332216117809,0.630395937309744
"1183",23,39,1,1,223,1,1,1,4,0.383291787182277,0.381529298980841
"1184",23,25,1,2,224,3,1,0,1,1.26442411449471,1.19309198150813
"1185",23,25,1,2,225,3,1,0,1,0.86211663640872,0.829334478641678
"1186",23,37,1,1,226,1,2,0,3,0.562810090474992,0.668679890358431
"1187",23,33,1,2,227,1,2,1,4,0.445461408595583,0.480606598276312
"1188",23,19,1,2,228,3,2,1,2,0.758537450907077,0.724775421244704
"1189",23,19,1,2,229,2,1,0,3,0.801179694128947,0.86704934406914
"1190",23,25,1,2,230,2,2,1,4,0.67735408100079,0.635630378098306
"1191",23,32,1,2,231,1,2,1,4,0.40584823570556,0.361038216197754
"1192",23,18,1,2,232,1,1,0,3,0.430845493635341,0.442754231715327
"1193",23,39,1,1,233,3,2,0,2,1.091469413566,1.04553121697995
"1194",23,25,1,1,234,2,1,1,3,0.450430778287652,0.448488187875876
"1195",23,25,1,1,235,3,2,0,1,1.04165445437811,1.02186715367337
"1196",23,37,1,2,236,3,1,0,1,0.797629775008352,0.829250432254802
"1197",23,33,1,1,237,1,1,1,5,0.486445693145952,0.44467404423126
"1198",23,19,1,1,238,3,2,0,1,1.33340864851522,1.30265601695961
"1199",23,19,1,2,239,1,2,1,5,0.380153268150092,0.479056825602278
"1200",23,25,1,1,240,2,2,0,2,0.625788493560722,0.569859925607833
"1201",22,26,2,1,1,1,2,0,3,0.521579072106468,0.548737662657049
"1202",22,18,2,1,2,2,1,1,3,0.659922338778205,0.58723678818924
"1203",22,34,2,1,3,2,1,1,3,0.554952707701922,0.574333637977259
"1204",22,36,2,2,4,2,1,0,3,0.487137418436771,0.45156203991491
"1205",22,21,2,1,5,1,1,1,4,0.322791770555136,0.329367204617499
"1206",22,21,2,1,6,3,2,0,1,1.21449249921256,1.27362876976397
"1207",22,36,2,1,7,1,1,1,5,0.418145905024783,0.48211116722688
"1208",22,36,2,1,8,1,2,0,3,0.482024756994457,0.425739748190412
"1209",22,21,2,2,9,3,1,0,1,1.56515706771406,1.5973388344422
"1210",22,33,2,2,10,3,1,0,1,0.768313452134556,0.790881001786826
"1211",22,26,2,2,11,1,2,1,5,0.477226450141071,0.486015985000081
"1212",22,18,2,2,12,3,1,0,1,0.46454014826227,0.367545342435683
"1213",22,34,2,2,13,3,2,1,3,0.749336444725971,0.74871845895813
"1214",22,36,2,2,14,1,2,1,4,0.335601485025997,0.340187430943968
"1215",22,21,2,1,15,3,1,1,2,1.03423175280342,1.04597225067644
"1216",22,21,2,2,16,3,1,0,1,1.4605253080084,1.4470397221706
"1217",22,36,2,1,17,1,2,0,4,0.681733678446311,0.735043788532811
"1218",22,36,2,2,18,3,1,0,1,0.690806794355714,0.607091949506045
"1219",22,21,2,1,19,1,1,1,4,0.358632966930826,0.396514553769803
"1220",22,33,2,2,20,3,1,0,2,1.19803111371964,1.18281475527172
"1221",22,26,2,2,21,2,2,1,3,0.613387014793258,0.70294055211605
"1222",22,18,2,2,22,1,2,1,5,0.501536404579873,0.485966240350939
"1223",22,34,2,2,23,3,2,1,2,1.15474973947905,1.1227123916331
"1224",22,36,2,1,24,1,2,0,3,0.585774430748851,0.522752934019312
"1225",22,21,2,1,25,1,1,1,5,0.464601322481824,0.407191774124402
"1226",22,21,2,2,26,1,2,1,5,0.236755215837792,0.206871481690896
"1227",22,36,2,1,27,1,1,1,4,0.494935676689464,0.468138591812963
"1228",22,36,2,2,28,2,1,0,3,0.512069017240057,0.52428066965853
"1229",22,21,2,2,29,3,1,0,2,1.4651723767908,1.51367297364618
"1230",22,33,2,1,30,1,1,1,4,0.449457700941779,0.409760043519953
"1231",22,26,2,2,31,2,1,0,2,0.516411290039994,0.430918472932488
"1232",22,18,2,1,32,3,2,0,1,1.09074059581169,1.01931813496568
"1233",22,34,2,1,33,1,1,1,4,0.574656236226705,0.64677832792532
"1234",22,36,2,2,34,3,1,0,1,0.690686887457539,0.751448876754579
"1235",22,21,2,1,35,1,2,0,3,0.576374910840897,0.497673027170808
"1236",22,21,2,2,36,2,1,0,3,0.830965709644895,0.844532608339806
"1237",22,36,2,2,37,1,2,1,5,0.333870828633095,0.298691438696754
"1238",22,36,2,1,38,3,1,1,3,0.941269501375545,0.912208195987178
"1239",22,21,2,1,39,2,1,1,3,0.676078123866607,0.726428656526037
"1240",22,33,2,1,40,1,1,1,5,0.217361914439674,0.219758966777302
"1241",22,26,2,1,41,3,1,1,2,0.941125690058851,0.970423840951081
"1242",22,18,2,2,42,1,1,0,3,0.49643148432423,0.402704452841351
"1243",22,34,2,1,43,3,1,1,3,0.787344490841055,0.872611519805175
"1244",22,36,2,1,44,1,1,1,4,0.469440330581479,0.434679314928697
"1245",22,21,2,2,45,2,2,1,3,0.358452956259951,0.411371002370293
"1246",22,21,2,1,46,1,1,1,5,0.546865365856649,0.605635879005022
"1247",22,36,2,2,47,1,2,1,5,0.310837499288462,0.274973495224093
"1248",22,36,2,1,48,1,2,0,4,0.581304726578605,0.491015369504107
"1249",22,21,2,1,49,3,1,1,2,0.658254972415828,0.689086824664918
"1250",22,33,2,2,50,3,1,0,2,0.932377581145793,0.830906403872483
"1251",22,26,2,2,51,2,1,0,3,0.814100309475863,0.818068144749382
"1252",22,18,2,2,52,2,1,0,2,0.717690416499201,0.677226297674372
"1253",22,34,2,1,53,3,1,1,2,0.886623569968328,0.913261251399995
"1254",22,36,2,2,54,1,1,0,4,0.812196482202029,0.841200159491022
"1255",22,21,2,1,55,1,2,0,4,0.423534002018397,0.358693630563054
"1256",22,21,2,1,56,2,1,1,3,0.950440381088023,0.928673063892304
"1257",22,36,2,1,57,2,1,1,3,0.698798499106635,0.699023461970483
"1258",22,36,2,2,58,1,2,1,5,0.310402614930731,0.284119212822757
"1259",22,21,2,1,59,3,1,1,2,0.798684768736502,0.8206293671565
"1260",22,33,2,2,60,2,1,0,2,0.849533278768555,0.891120795161457
"1261",22,26,2,2,61,2,2,1,3,0.498495609075987,0.437338295550555
"1262",22,18,2,2,62,3,1,0,1,1.29657244462447,1.21776578843164
"1263",22,34,2,2,63,2,2,1,4,0.650373812901915,0.747038202199315
"1264",22,36,2,2,64,1,1,0,4,0.560373998202994,0.570877346894766
"1265",22,21,2,1,65,3,2,0,1,1.16621082429621,1.20410500951814
"1266",22,21,2,1,66,2,1,1,3,0.61357739072032,0.670462918264723
"1267",22,36,2,1,67,3,2,0,1,0.6312240581057,0.649322199467512
"1268",22,36,2,1,68,2,1,1,4,0.475551263990323,0.463228863036742
"1269",22,21,2,1,69,1,1,1,4,0.250868075975054,0.27907245772216
"1270",22,33,2,1,70,1,1,1,5,0.194095742817794,0.214408562014002
"1271",22,26,2,2,71,3,1,0,1,0.98499025918551,0.959377807122356
"1272",22,18,2,2,72,1,2,1,4,0.358509729689231,0.279265988770069
"1273",22,34,2,1,73,3,2,0,1,1.10353542598379,1.07843574919475
"1274",22,36,2,1,74,1,1,1,4,0.284969475427513,0.301150624861571
"1275",22,21,2,2,75,3,2,1,3,0.661906983102241,0.693735218959544
"1276",22,21,2,1,76,2,1,1,3,0.632639935919655,0.640127100487536
"1277",22,36,2,1,77,3,1,1,3,0.559087196864037,0.621609299212707
"1278",22,36,2,2,78,3,1,0,2,0.934718081211066,0.959106437044666
"1279",22,21,2,2,79,2,1,0,3,0.782036815656599,0.738551373632877
"1280",22,33,2,2,80,2,2,1,4,0.773894786472701,0.763968207793549
"1281",22,26,2,1,81,2,2,0,2,0.85763406242863,0.81679620112479
"1282",22,18,2,1,82,3,2,0,1,1.55577628083428,1.4954679174988
"1283",22,34,2,1,83,1,1,1,5,0.339179699846586,0.335162440819855
"1284",22,36,2,1,84,3,2,0,1,1.32275577289741,1.2713482951471
"1285",22,21,2,2,85,1,1,0,3,0.693089600396236,0.690508069936485
"1286",22,21,2,2,86,2,2,1,3,0.643036268158709,0.708304068806884
"1287",22,36,2,2,87,3,2,1,2,0.988820753767904,0.997847381936003
"1288",22,36,2,2,88,3,2,1,3,0.949654905067103,0.991665231186357
"1289",22,21,2,1,89,1,1,1,4,0.347593222986674,0.35623234985145
"1290",22,33,2,2,90,1,2,1,4,0.389103508746659,0.353866473471279
"1291",22,26,2,2,91,3,1,0,2,0.976419746240329,0.997753644851907
"1292",22,18,2,1,92,2,1,1,4,0.671169246947788,0.680555662579391
"1293",22,34,2,2,93,1,1,0,3,0.656655958832203,0.622371436305003
"1294",22,36,2,1,94,2,2,0,2,0.76904052234594,0.758084476861982
"1295",22,21,2,1,95,2,2,0,3,0.715215670988121,0.66467330428747
"1296",22,21,2,2,96,2,1,0,3,0.776891084670061,0.713672540874693
"1297",22,36,2,1,97,1,1,1,5,0.31495588706352,0.330330873526616
"1298",22,36,2,1,98,2,1,1,3,0.675087901673143,0.692131506429747
"1299",22,21,2,2,99,3,2,1,2,0.939071010248677,0.963205666122101
"1300",22,33,2,1,100,2,1,1,3,0.713413848802291,0.772107539659917
"1301",22,26,2,1,101,3,2,0,2,0.653273974871538,0.705033011333835
"1302",22,18,2,2,102,1,2,1,4,0.347851253490753,0.269803469916534
"1303",22,34,2,1,103,1,1,1,5,0.372582999217529,0.417363110210326
"1304",22,36,2,1,104,1,1,1,4,0.550035633101335,0.522389482981564
"1305",22,21,2,1,105,1,1,1,5,0.446494162997368,0.387401616547506
"1306",22,21,2,1,106,2,2,0,2,0.554001178844423,0.541107297703872
"1307",22,36,2,1,107,2,2,0,2,0.827429625336938,0.76046662390124
"1308",22,36,2,2,108,3,1,0,1,0.643084216108103,0.657881110395502
"1309",22,21,2,1,109,2,1,1,3,0.590138585740499,0.530808217513551
"1310",22,33,2,1,110,3,1,1,3,0.596575061145566,0.471626023771043
"1311",22,26,2,2,111,2,2,1,4,0.702780347716632,0.664043799399032
"1312",22,18,2,2,112,3,1,0,2,0.458711471724392,0.534010670641479
"1313",22,34,2,1,113,3,1,1,3,0.973779960298863,0.881470263562717
"1314",22,36,2,2,114,2,2,1,3,0.784348342497635,0.791000479197694
"1315",22,21,2,2,115,2,1,0,2,0.538430911823946,0.462646248578019
"1316",22,21,2,2,116,2,2,1,4,0.523645284601539,0.49695195004806
"1317",22,36,2,1,117,2,1,1,4,0.560692773012885,0.422915946365759
"1318",22,36,2,1,118,1,1,1,5,0.350391557308367,0.399756552888049
"1319",22,21,2,1,119,1,1,1,4,0.316592346729947,0.191702703925391
"1320",22,33,2,2,120,3,1,0,1,1.1642605563229,1.19724745655171
"1321",22,26,2,1,121,2,2,0,3,0.681721991915874,0.637592594210549
"1322",22,18,2,1,122,3,1,1,3,1.03363737801816,1.03728483271795
"1323",22,34,2,2,123,2,2,1,3,0.822488711703111,0.777556173230936
"1324",22,36,2,2,124,1,2,1,5,0.340940278267008,0.291629019965
"1325",22,21,2,2,125,2,1,0,2,0.660506204590993,0.628926955208665
"1326",22,21,2,2,126,1,2,1,4,0.464149590562291,0.477134926745845
"1327",22,36,2,2,127,1,1,0,4,0.426564853434416,0.449754772727307
"1328",22,36,2,2,128,2,2,1,3,0.457786595042786,0.472344282900809
"1329",22,21,2,2,129,3,2,1,2,0.605373087405828,0.622525732380148
"1330",22,33,2,1,130,1,1,1,4,0.491855402384427,0.53064931029681
"1331",22,26,2,1,131,3,1,1,2,0.847876283403957,0.846284597665843
"1332",22,18,2,1,132,2,2,0,3,0.828843304359088,0.829186491672854
"1333",22,34,2,1,133,1,1,1,5,0.319396735951371,0.310217177426883
"1334",22,36,2,1,134,3,1,1,3,0.843260719112426,0.870535488930571
"1335",22,21,2,2,135,3,1,0,1,1.18355251884814,1.16331741854903
"1336",22,21,2,1,136,1,1,1,5,0.328182774609216,0.347236598311358
"1337",22,36,2,1,137,1,1,1,4,0.392381767493347,0.477156044586394
"1338",22,36,2,2,138,1,2,1,4,0.378970622613121,0.33362347471308
"1339",22,21,2,1,139,1,1,1,4,0.398329788924769,0.327073767194669
"1340",22,33,2,2,140,1,2,1,4,0.323393168822162,0.303357431289157
"1341",22,26,2,1,141,3,2,0,1,0.842465645764376,0.807558143993841
"1342",22,18,2,1,142,2,2,0,3,0.580744550696582,0.565609468597408
"1343",22,34,2,1,143,3,1,1,2,0.882573319215691,0.917119465884099
"1344",22,36,2,1,144,3,2,0,1,0.878282655321699,0.915999875750536
"1345",22,21,2,1,145,3,1,1,2,0.709651463486082,0.744082289135711
"1346",22,21,2,1,146,3,1,1,3,0.718428156228296,0.659407239158857
"1347",22,36,2,2,147,1,2,1,5,0.416460938098341,0.546587455983968
"1348",22,36,2,2,148,3,1,0,2,0.951828307135463,0.957100293675907
"1349",22,21,2,2,149,2,2,1,3,0.610958635977324,0.597187264343355
"1350",22,33,2,2,150,2,1,0,3,0.541912891412558,0.528090334292915
"1351",22,26,2,2,151,2,2,1,3,0.593747582232113,0.547099251006846
"1352",22,18,2,2,152,2,1,0,2,0.67476060160198,0.623896951095438
"1353",22,34,2,2,153,3,2,1,3,0.805612864010556,0.79320947414062
"1354",22,36,2,1,154,3,2,0,1,0.532517817531819,0.487191889906971
"1355",22,21,2,1,155,2,1,1,4,0.544112173176634,0.617574235553955
"1356",22,21,2,2,156,2,2,1,4,0.482389566305159,0.436485684928331
"1357",22,36,2,2,157,1,1,0,4,0.531192595301393,0.572066224268302
"1358",22,36,2,2,158,3,1,0,1,0.717671867763985,0.801826354883316
"1359",22,21,2,2,159,2,2,1,4,0.796631027850663,0.830909645884808
"1360",22,33,2,2,160,1,2,1,4,0.483235785338048,0.473374145295062
"1361",22,26,2,2,161,1,2,1,4,0.350170868121828,0.38315986706247
"1362",22,18,2,1,162,1,2,0,4,0.491128110239625,0.6302035075023
"1363",22,34,2,2,163,1,2,1,5,0.41343826858379,0.370934933826886
"1364",22,36,2,1,164,3,2,0,1,0.652283516128896,0.640049458658438
"1365",22,21,2,2,165,1,2,1,5,0.319407780331194,0.218323490349737
"1366",22,21,2,2,166,1,1,0,3,0.628484692464685,0.605785548377927
"1367",22,36,2,2,167,2,2,1,3,0.625653484249335,0.574945596144258
"1368",22,36,2,2,168,2,1,0,3,0.446538490875269,0.454914549036854
"1369",22,21,2,1,169,3,1,1,3,0.789503204326458,0.679861528457935
"1370",22,33,2,2,170,1,2,1,4,0.289819815318694,0.301145860681858
"1371",22,26,2,2,171,2,2,1,4,0.582000737594634,0.54512907763545
"1372",22,18,2,2,172,2,2,1,4,0.603348860289705,0.525710927521818
"1373",22,34,2,1,173,2,2,0,2,0.719906761542448,0.783672355406808
"1374",22,36,2,2,174,3,1,0,2,0.829785755226681,0.781180751051413
"1375",22,21,2,2,175,2,2,1,3,0.644769485473077,0.563139169361935
"1376",22,21,2,1,176,3,2,0,2,1.06212643643007,1.1139317958877
"1377",22,36,2,2,177,3,1,0,1,0.408422182664191,0.374752523435117
"1378",22,36,2,1,178,3,1,1,3,1.1213363322236,1.22038812065715
"1379",22,21,2,1,179,2,2,0,2,0.493350428322584,0.421606793044185
"1380",22,33,2,2,180,1,2,1,4,0.510187995227131,0.457790040618731
"1381",22,26,2,1,181,1,1,1,5,0.3496495799857,0.404600539759648
"1382",22,18,2,1,182,2,2,0,3,0.976289353518119,0.864684016624449
"1383",22,34,2,2,183,1,1,0,4,0.43503616408596,0.472015955919369
"1384",22,36,2,1,184,2,2,0,2,0.620231722986667,0.59149018722807
"1385",22,21,2,2,185,1,2,1,5,0.365166036602704,0.316165647280546
"1386",22,21,2,2,186,2,1,0,2,0.540723828929607,0.530758064775803
"1387",22,36,2,2,187,1,2,1,4,0.521171135005082,0.517055562920836
"1388",22,36,2,1,188,1,1,1,4,0.395326965572598,0.463903501816948
"1389",22,21,2,1,189,2,2,0,3,0.924656167507707,0.882579617771818
"1390",22,33,2,1,190,1,1,1,4,0.428010806598828,0.339948218524726
"1391",22,26,2,2,191,1,2,1,4,0.401866532203424,0.423010274456306
"1392",22,18,2,2,192,2,1,0,3,0.79389360714996,0.86016895968787
"1393",22,34,2,1,193,3,1,1,3,0.928627257250954,0.889835258610534
"1394",22,36,2,1,194,3,1,1,2,0.84337862809993,0.828444581058978
"1395",22,21,2,2,195,2,2,1,3,0.572606488074749,0.497474963092598
"1396",22,21,2,1,196,2,1,1,3,0.659655713487623,0.685799689276622
"1397",22,36,2,1,197,1,1,1,4,0.324361612648421,0.352806773202973
"1398",22,36,2,2,198,1,2,1,4,0.342225779726153,0.382540647075848
"1399",22,21,2,2,199,2,1,0,3,0.941787430472853,0.975062535351142
"1400",22,33,2,2,200,1,2,1,4,0.541781793993155,0.669764595603582
"1401",22,26,2,1,201,3,1,1,2,0.59138508917256,0.665646584256498
"1402",22,18,2,1,202,2,1,1,3,0.508958061396851,0.416769863463209
"1403",22,34,2,1,203,3,2,0,1,1.31227191778113,1.36908065353587
"1404",22,36,2,2,204,3,2,1,3,0.934520401775808,0.889181221917003
"1405",22,21,2,1,205,2,1,1,3,0.758775979156502,0.770622240649623
"1406",22,21,2,1,206,3,2,0,2,0.462128051476341,0.497170919183354
"1407",22,36,2,2,207,2,1,0,2,0.663126498802077,0.632969671676988
"1408",22,36,2,2,208,3,1,0,1,0.989334110893855,0.952574482174398
"1409",22,21,2,1,209,2,1,1,3,0.663880740878259,0.711617755332221
"1410",22,33,2,1,210,2,1,1,4,0.302690200072957,0.379501834386431
"1411",22,26,2,1,211,1,1,1,5,0.607737972199627,0.619494738565438
"1412",22,18,2,2,212,3,2,1,2,1.14614444011125,1.07333702393061
"1413",22,34,2,2,213,3,2,1,3,0.799080012166685,0.789318936433604
"1414",22,36,2,1,214,2,1,1,4,0.698949228673101,0.688175121730896
"1415",22,21,2,2,215,3,1,0,2,0.79150961760026,0.877503100699373
"1416",22,21,2,1,216,3,1,1,2,0.761140973155545,0.728404945845536
"1417",22,36,2,2,217,1,2,1,5,0.239157349512896,0.287030245147447
"1418",22,36,2,2,218,2,2,1,4,0.579412317072515,0.570209646414739
"1419",22,21,2,1,219,2,2,0,2,0.633781261657657,0.542232511802789
"1420",22,33,2,2,220,3,2,1,2,0.723994587956197,0.779502356791597
"1421",22,26,2,1,221,1,1,1,4,0.319570868683846,0.369865123445886
"1422",22,18,2,2,222,1,2,1,4,0.378636470774385,0.377801653154114
"1423",22,34,2,2,223,3,1,0,1,0.415283467241556,0.354236727914456
"1424",22,36,2,1,224,2,2,0,3,0.661657381176017,0.746799218339607
"1425",22,21,2,2,225,2,1,0,2,0.741212243348062,0.753642777674557
"1426",22,21,2,1,226,1,1,1,4,0.257281053096338,0.216556839620376
"1427",22,36,2,2,227,1,2,1,5,0.633709742635892,0.671241871969662
"1428",22,36,2,2,228,2,1,0,3,0.796149683973728,0.789943641056224
"1429",22,21,2,1,229,3,1,1,3,0.604313789152376,0.680404448850418
"1430",22,33,2,2,230,2,1,0,2,0.663331404445446,0.566061323028111
"1431",22,26,2,2,231,3,1,0,1,1.68165961594467,1.68686258561024
"1432",22,18,2,1,232,2,2,0,3,0.7391761129827,0.700980582837237
"1433",22,34,2,1,233,2,1,1,3,0.325180697495555,0.370364444383938
"1434",22,36,2,1,234,3,2,0,2,1.29067165395557,1.30933840300067
"1435",22,21,2,2,235,3,1,0,1,0.452495940081917,0.511020669826429
"1436",22,21,2,2,236,1,2,1,5,0.366478785661171,0.386493151946478
"1437",22,36,2,1,237,3,2,0,2,1.37131085570861,1.31248871847223
"1438",22,36,2,2,238,2,2,1,3,0.61832014131514,0.684987203228004
"1439",22,21,2,1,239,3,1,1,3,0.906088438549975,0.865345018243451
"1440",22,33,2,1,240,3,2,0,2,0.93581664446197,0.941784605448553
"1441",21,26,1,2,1,3,2,1,3,0.741085167347784,0.645581909915182
"1442",21,34,1,2,2,3,2,1,3,0.600584303321001,0.519208935205966
"1443",21,24,1,1,3,3,1,1,2,0.852047014506837,0.81040414947972
"1444",21,19,1,2,4,3,1,0,1,0.833526302814717,0.807086695350563
"1445",21,38,1,1,5,3,1,1,2,0.889916439577888,0.835928211026502
"1446",21,35,1,1,6,1,1,1,4,0.308384712998421,0.365552943189338
"1447",21,21,1,2,7,1,2,1,4,0.371840002022067,0.331769922207177
"1448",21,19,1,1,8,3,2,0,1,1.04276411503646,1.0023875885345
"1449",21,23,1,1,9,2,2,0,2,0.875204429357557,0.85589299836784
"1450",21,29,1,2,10,2,2,1,4,0.832712112716213,0.844754190056825
"1451",21,26,1,2,11,3,2,1,3,0.708235124743015,0.733161161142997
"1452",21,34,1,1,12,3,2,0,2,0.437024380880592,0.454308691292302
"1453",21,24,1,2,13,2,2,1,4,0.676157723341658,0.608183597717906
"1454",21,19,1,1,14,2,1,1,3,0.54885186210078,0.544632926795612
"1455",21,38,1,1,15,3,1,1,3,0.847609098950703,0.818680043110978
"1456",21,35,1,2,16,1,2,1,4,0.502402004617772,0.52873398303239
"1457",21,21,1,2,17,2,2,1,4,0.603982848931876,0.523064188357818
"1458",21,19,1,2,18,1,2,1,5,0.466293513558702,0.480477980358121
"1459",21,23,1,2,19,1,1,0,4,0.472040449528924,0.434247748664259
"1460",21,29,1,1,20,1,2,0,3,0.506793199579414,0.528641195636217
"1461",21,26,1,2,21,3,1,0,2,1.47078951117439,1.4726950216017
"1462",21,34,1,1,22,1,1,1,5,0.541093544724325,0.598729682822406
"1463",21,24,1,1,23,2,2,0,2,0.752621500101958,0.809591505591406
"1464",21,19,1,2,24,2,2,1,3,0.600915970300735,0.604518426242792
"1465",21,38,1,2,25,1,2,1,5,0.404109644407304,0.442713228596459
"1466",21,35,1,2,26,3,1,0,2,1.20129366475662,1.20989429863092
"1467",21,21,1,1,27,2,2,0,3,0.56014982191013,0.537470789227043
"1468",21,19,1,1,28,2,1,1,3,0.630509226543864,0.521325014930061
"1469",21,23,1,1,29,2,1,1,4,0.52417351799345,0.472663096494102
"1470",21,29,1,1,30,2,2,0,3,0.820824141564799,0.768459300537563
"1471",21,26,1,1,31,3,1,1,2,0.723702256483957,0.641710324839492
"1472",21,34,1,1,32,1,1,1,5,0.334094204481895,0.285126537619484
"1473",21,24,1,2,33,1,2,1,5,0.277486771560722,0.285113744041988
"1474",21,19,1,2,34,1,2,1,4,0.435670939526186,0.485577674604398
"1475",21,38,1,1,35,2,2,0,3,0.916574204260798,0.917647242491639
"1476",21,35,1,2,36,2,2,1,4,0.651500859281101,0.736934284785822
"1477",21,21,1,1,37,3,2,0,2,1.58632948938541,1.64205354364117
"1478",21,19,1,2,38,1,2,1,5,0.587229246839633,0.593558620548435
"1479",21,23,1,2,39,3,2,1,3,0.830871004238574,0.806361005057487
"1480",21,29,1,1,40,2,1,1,4,0.598246209815559,0.660673748245144
"1481",21,26,1,2,41,2,2,1,3,0.43048081254266,0.340320372626517
"1482",21,34,1,2,42,2,2,1,4,0.640418244185496,0.679760230036672
"1483",21,24,1,1,43,2,2,0,3,0.611245550208996,0.690451793657041
"1484",21,19,1,1,44,1,1,1,5,0.533839722851672,0.460308556246294
"1485",21,38,1,1,45,3,1,1,3,0.565827261115781,0.603877413875469
"1486",21,35,1,1,46,3,1,1,2,1.00587617838221,1.03612129588749
"1487",21,21,1,2,47,3,1,0,1,1.20607447321301,1.16135759089487
"1488",21,19,1,2,48,2,1,0,3,0.76086773203347,0.723894435408108
"1489",21,23,1,1,49,1,1,1,5,0.369042218426625,0.374960931593019
"1490",21,29,1,1,50,2,2,0,2,1.01057247061795,0.930823558410796
"1491",21,26,1,2,51,3,1,0,2,1.75675969366807,1.67358858788817
"1492",21,34,1,1,52,3,2,0,2,1.17204891975699,1.14521123972123
"1493",21,24,1,1,53,2,1,1,4,0.672109198614731,0.698415828051786
"1494",21,19,1,1,54,2,1,1,3,0.585304473333351,0.662674959028483
"1495",21,38,1,1,55,3,1,1,2,0.951722614764135,0.971441748797498
"1496",21,35,1,2,56,3,1,0,2,0.989492202559257,0.991318399139308
"1497",21,21,1,1,57,2,2,0,3,0.620103158853988,0.684907200754257
"1498",21,19,1,1,58,2,1,1,3,0.592827984103687,0.557034500183492
"1499",21,23,1,1,59,1,2,0,4,0.573722208332706,0.606997442511855
"1500",21,29,1,2,60,2,1,0,2,0.61005995015939,0.634344010078118
"1501",21,26,1,1,61,1,1,1,4,0.277467367183405,0.299053058405531
"1502",21,34,1,1,62,1,1,1,4,0.29969891260679,0.286397936543267
"1503",21,24,1,1,63,3,1,1,2,0.808810483535939,0.79701313247941
"1504",21,19,1,2,64,2,2,1,3,0.759829352989261,0.860867636791617
"1505",21,38,1,2,65,2,1,0,2,0.883876799169199,0.837243366455826
"1506",21,35,1,1,66,2,1,1,3,0.3604737155688,0.317627406384754
"1507",21,21,1,1,67,2,1,1,3,0.710114639417652,0.669118767182139
"1508",21,19,1,2,68,2,1,0,3,0.681452973417924,0.711752294038488
"1509",21,23,1,1,69,1,1,1,4,0.37182345800457,0.40982166016465
"1510",21,29,1,2,70,3,2,1,2,0.783214137994336,0.828862221206549
"1511",21,26,1,1,71,3,1,1,2,0.990558763153481,0.994141168870683
"1512",21,34,1,2,72,3,1,0,2,0.766977516951211,0.846952737115844
"1513",21,24,1,1,73,1,2,0,3,0.590002133019945,0.624680491640226
"1514",21,19,1,1,74,3,1,1,3,0.57784694118683,0.514466220108036
"1515",21,38,1,2,75,2,1,0,3,0.599348144240223,0.658474188991536
"1516",21,35,1,1,76,1,1,1,4,0.309084443975534,0.343072411025951
"1517",21,21,1,1,77,1,1,1,5,0.355847282531535,0.349811821500231
"1518",21,19,1,2,78,3,2,1,2,0.745318556025591,0.700543742832861
"1519",21,23,1,1,79,1,2,0,3,0.651206837900356,0.610616746008135
"1520",21,29,1,2,80,2,2,1,3,0.630202736309324,0.594249524447009
"1521",21,26,1,1,81,2,2,0,3,0.689906237083869,0.731123064797741
"1522",21,34,1,2,82,1,2,1,4,0.483028089249755,0.478580193186744
"1523",21,24,1,2,83,1,2,1,5,0.39413634378352,0.388581622002641
"1524",21,19,1,1,84,2,1,1,4,0.522039920037108,0.511253384865803
"1525",21,38,1,1,85,3,1,1,3,0.714811284459626,0.769652163294949
"1526",21,35,1,2,86,2,1,0,2,0.553836611588767,0.565497822198038
"1527",21,21,1,2,87,1,2,1,5,0.433194515471834,0.388185569102007
"1528",21,19,1,1,88,3,2,0,2,0.850182059344063,0.873921506951192
"1529",21,23,1,2,89,3,1,0,1,1.09850982755891,1.12137116717302
"1530",21,29,1,1,90,1,2,0,4,0.480442417136769,0.529942161626811
"1531",21,26,1,1,91,3,1,1,2,1.18084329939724,1.17108473154546
"1532",21,34,1,2,92,3,1,0,2,0.944410128184944,0.87734517438796
"1533",21,24,1,1,93,2,2,0,2,0.609950329820411,0.606917629000829
"1534",21,19,1,2,94,2,2,1,3,0.630495832538602,0.625615451020353
"1535",21,38,1,2,95,3,1,0,1,0.526459588469446,0.532027356820783
"1536",21,35,1,2,96,2,2,1,3,0.482247748856978,0.443315835250151
"1537",21,21,1,2,97,2,2,1,4,0.578298959084919,0.474628610991532
"1538",21,19,1,2,98,3,2,1,3,0.737084728105201,0.812694853003542
"1539",21,23,1,2,99,1,2,1,5,0.397983950004132,0.362289726682779
"1540",21,29,1,2,100,1,2,1,4,0.453497233293304,0.527847979810006
"1541",21,26,1,1,101,3,2,0,1,1.32737262537993,1.32650098934995
"1542",21,34,1,1,102,1,2,0,4,0.456431527731981,0.42712897039556
"1543",21,24,1,1,103,3,1,1,2,0.698869993134332,0.643874263088414
"1544",21,19,1,1,104,1,2,0,3,0.552866499464612,0.530670856451761
"1545",21,38,1,1,105,3,1,1,3,0.691160653745031,0.738234941043865
"1546",21,35,1,2,106,3,1,0,2,1.57249946716841,1.6957539838163
"1547",21,21,1,1,107,2,2,0,3,0.397944305744585,0.43455027270977
"1548",21,19,1,2,108,2,2,1,4,0.590308165611837,0.495755216436532
"1549",21,23,1,1,109,3,1,1,3,0.6005456246233,0.618740293067667
"1550",21,29,1,1,110,3,2,0,1,1.1057480044356,1.11279535989111
"1551",21,26,1,1,111,1,1,1,4,0.428406968256541,0.450432652232547
"1552",21,34,1,1,112,1,1,1,4,0.321996711047614,0.280636944255725
"1553",21,24,1,2,113,2,1,0,3,0.844054861928867,0.857991038210081
"1554",21,19,1,2,114,1,2,1,4,0.334059798978997,0.35790825061517
"1555",21,38,1,2,115,1,2,1,4,0.276833726687754,0.282236792726775
"1556",21,35,1,2,116,3,2,1,2,0.702204288428471,0.755076388774529
"1557",21,21,1,2,117,1,2,1,4,0.366350939522292,0.401234725389932
"1558",21,19,1,2,118,1,2,1,4,0.372550346487576,0.41802295435676
"1559",21,23,1,1,119,1,1,1,5,0.312515820996668,0.28631610003796
"1560",21,29,1,1,120,2,2,0,3,0.835610512248275,0.869004894512309
"1561",21,26,1,2,121,2,1,0,2,0.729424092385047,0.810104650579925
"1562",21,34,1,1,122,3,1,1,2,1.16008256122208,1.19287931152087
"1563",21,24,1,2,123,3,1,0,2,1.55538095605097,1.57482337743236
"1564",21,19,1,2,124,3,1,0,1,0.552778593447815,0.528836279209002
"1565",21,38,1,2,125,1,1,0,4,0.634814315705194,0.572873140234451
"1566",21,35,1,2,126,1,2,1,4,0.409107002027872,0.387341269572201
"1567",21,21,1,1,127,3,2,0,1,0.909082564425989,0.910655107361
"1568",21,19,1,1,128,3,2,0,1,1.21221496635555,1.18385344147377
"1569",21,23,1,2,129,1,2,1,5,0.304882591661561,0.26393525950488
"1570",21,29,1,1,130,1,1,1,4,0.484553482866897,0.456934744871332
"1571",21,26,1,1,131,1,1,1,5,0.459275356921127,0.502366805906152
"1572",21,34,1,1,132,2,1,1,4,0.555240154850291,0.464694222192568
"1573",21,24,1,2,133,1,2,1,4,0.333763158648932,0.321462642278364
"1574",21,19,1,1,134,3,1,1,3,0.77152127210979,0.794239721059567
"1575",21,38,1,2,135,3,1,0,2,1.19745013612112,1.18546363015905
"1576",21,35,1,1,136,3,1,1,3,1.00336696330026,0.965345327433586
