"","subj_no","age","group","stim","trial","difficulty","resp","corr","conf","RT_day1","RT_day2"
"1",28,23,2,1,1,1,1,1,5,0.387343890952466,0.349009135730153
"2",28,40,2,1,2,3,1,1,3,0.762461055761239,0.694506562332376
"3",28,38,2,2,3,3,2,1,3,0.806950636240506,0.839091438281853
"4",28,34,2,1,4,3,2,0,2,0.994872055273969,1.05307558646981
"5",28,40,2,1,5,2,1,1,4,0.573362599594723,0.547018117564579
"6",28,38,2,1,6,1,1,1,4,0.466316549498131,0.438035535192808
"7",28,33,2,2,7,1,2,1,5,0.423248291782582,0.478834867455161
"8",28,37,2,2,8,2,1,0,2,0.48834655341069,0.521833600682041
"9",28,23,2,1,9,1,1,1,4,0.393811552992959,0.377826112460387
"10",28,36,2,1,10,1,1,1,5,0.466624139002048,0.512480918513659
"11",28,23,2,1,11,1,1,1,4,0.507627494055794,0.552232551156928
"12",28,40,2,2,12,1,1,0,4,0.556412076077364,0.601960132356393
"13",28,38,2,2,13,2,1,0,2,0.479448802078884,0.531392018117702
"14",28,34,2,1,14,2,2,0,3,0.878038442865458,0.858084785167201
"15",28,40,2,1,15,2,2,0,3,0.90028308273333,0.98486486275866
"16",28,38,2,1,16,1,2,0,4,0.332119741453864,0.333411001001136
"17",28,33,2,1,17,3,1,1,3,0.925613186941832,0.91045447752721
"18",28,37,2,1,18,3,2,0,2,0.823897170379233,0.899362386607059
"19",28,23,2,2,19,1,2,1,5,0.462583529737357,0.449341356555351
"20",28,36,2,2,20,2,2,1,3,0.487402168805008,0.512112376214975
"21",28,23,2,2,21,3,1,0,2,1.18406908082874,1.18473720680844
"22",28,40,2,2,22,2,2,1,3,0.569997687931821,0.587142549930713
"23",28,38,2,1,23,2,1,1,3,0.661271581739622,0.672684014941558
"24",28,34,2,1,24,2,2,0,2,0.644102562431053,0.581163599699936
"25",28,40,2,1,25,1,2,0,4,0.592159811423329,0.736673102081208
"26",28,38,2,2,26,2,2,1,4,0.547703962147307,0.464141152926728
"27",28,33,2,2,27,3,2,1,2,0.545045923906176,0.612561355688912
"28",28,37,2,1,28,3,2,0,2,0.634790039209133,0.616676380715197
"29",28,23,2,2,29,2,1,0,2,0.481035675497891,0.420575439583691
"30",28,36,2,1,30,1,1,1,5,0.444728247431198,0.441510477563529
"31",28,23,2,1,31,2,1,1,3,0.404172544699146,0.360049132010187
"32",28,40,2,2,32,3,1,0,2,0.552707749783484,0.564557523104929
"33",28,38,2,2,33,3,1,0,2,0.99190234441242,1.00401474946101
"34",28,34,2,1,34,2,1,1,3,0.643942546100225,0.616358033548441
"35",28,40,2,2,35,3,1,0,1,0.784660297085003,0.72990587912123
"36",28,38,2,2,36,3,2,1,2,0.467215102647681,0.363579507581807
"37",28,33,2,1,37,2,1,1,3,0.633921577405484,0.614558491400558
"38",28,37,2,1,38,3,2,0,2,0.798321865189128,0.801017513581856
"39",28,23,2,2,39,2,1,0,3,0.75551174124425,0.774553204389973
"40",28,36,2,2,40,1,2,1,5,0.460193989547557,0.540529610264461
"41",28,23,2,1,41,2,1,1,3,0.342210254008524,0.339777131953826
"42",28,40,2,2,42,3,2,1,3,0.73150942610509,0.732400058333696
"43",28,38,2,2,43,2,2,1,3,0.540612457033736,0.444565607142702
"44",28,34,2,2,44,3,1,0,2,0.374479012723661,0.403379446170555
"45",28,40,2,1,45,2,2,0,2,0.641076307488465,0.664317118531594
"46",28,38,2,2,46,1,2,1,5,0.314231021148057,0.279576767517488
"47",28,33,2,2,47,3,1,0,1,1.04457371473124,1.08846816911532
"48",28,37,2,1,48,2,1,1,3,0.690967370671428,0.65061298491204
"49",28,23,2,1,49,1,1,1,5,0.374554484785656,0.375148467863866
"50",28,36,2,1,50,2,1,1,4,0.865677742517055,0.826193332562589
"51",28,23,2,2,51,2,2,1,4,0.780261226528694,0.756355629472528
"52",28,40,2,2,52,2,2,1,4,0.328880122505903,0.41906101259867
"53",28,38,2,2,53,3,1,0,1,1.5784035170391,1.53153271035447
"54",28,34,2,2,54,2,2,1,4,0.44268003109288,0.373121640568293
"55",28,40,2,1,55,3,2,0,2,0.350448849581453,0.307079729228353
"56",28,38,2,2,56,2,1,0,3,0.609671787826985,0.56888085613665
"57",28,33,2,1,57,2,1,1,3,0.531037146192969,0.565149817416351
"58",28,37,2,2,58,1,2,1,4,0.57431029521079,0.557961254407677
"59",28,23,2,1,59,1,1,1,4,0.404792735453614,0.478730130972037
"60",28,36,2,2,60,3,1,0,2,1.21125973867519,1.24417925095229
"61",28,23,2,1,61,2,2,0,2,0.92167466089603,0.971092959841295
"62",28,40,2,2,62,3,2,1,3,0.747060809612276,0.838704116936248
"63",28,38,2,1,63,2,1,1,4,0.652483816657078,0.630554513706951
"64",28,34,2,1,64,1,2,0,3,0.725616981526415,0.669990141051831
"65",28,40,2,2,65,2,2,1,3,0.560737536010496,0.54957838859255
"66",28,38,2,1,66,3,1,1,2,0.898744198110197,0.994487672827696
"67",28,33,2,1,67,2,2,0,2,0.306691649461966,0.34757592891039
"68",28,37,2,1,68,1,2,0,3,0.578687468840032,0.558180160935148
"69",28,23,2,1,69,1,1,1,4,0.404248583787735,0.427863139811376
"70",28,36,2,2,70,2,1,0,3,0.683294765148399,0.677831126101698
"71",28,23,2,2,71,2,2,1,3,0.671013245951846,0.663678611188249
"72",28,40,2,1,72,2,1,1,4,0.590513316270938,0.550101762360878
"73",28,38,2,2,73,1,2,1,5,0.387861033724029,0.349097826870074
"74",28,34,2,1,74,1,1,1,5,0.442026627710878,0.417867398602302
"75",28,40,2,2,75,3,1,0,2,0.897184504999593,0.902465801023637
"76",28,38,2,1,76,2,1,1,3,0.501919264763489,0.544943205743378
"77",28,33,2,1,77,3,2,0,1,1.28081004520283,1.28878385219102
"78",28,37,2,1,78,2,1,1,3,0.514971515691912,0.49499468084958
"79",28,23,2,2,79,1,2,1,4,0.404045425804345,0.309714760087566
"80",28,36,2,2,80,3,2,1,2,0.516843488427097,0.601793576891825
"81",28,23,2,1,81,1,1,1,4,0.478184875221616,0.388404075402652
"82",28,40,2,2,82,1,2,1,4,0.403440106721129,0.352081123532763
"83",28,38,2,2,83,2,2,1,3,0.74910624469033,0.798166051288544
"84",28,34,2,1,84,3,1,1,3,0.482132702094201,0.406197855190461
"85",28,40,2,1,85,1,1,1,4,0.430299749485416,0.45097552841365
"86",28,38,2,1,86,2,2,0,2,0.820984566445269,0.795615355878219
"87",28,33,2,1,87,1,1,1,4,0.514373721933933,0.537868032644119
"88",28,37,2,1,88,2,2,0,2,0.78239912687318,0.800796648821947
"89",28,23,2,1,89,1,1,1,5,0.365944157643609,0.358225077168315
"90",28,36,2,2,90,3,1,0,1,1.33185203501171,1.25757340779167
"91",28,23,2,1,91,2,2,0,3,0.795081335625445,0.849352649412706
"92",28,40,2,1,92,3,1,1,2,0.482721154678555,0.445555838312177
"93",28,38,2,2,93,3,2,1,3,0.874937728299017,0.89491718678039
"94",28,34,2,2,94,2,2,1,4,0.344923318992929,0.367304968269029
"95",28,40,2,1,95,1,1,1,5,0.497743209641883,0.488915524002984
"96",28,38,2,1,96,2,2,0,3,0.698100427888413,0.682350898471226
"97",28,33,2,1,97,1,1,1,4,0.408278129257648,0.438115469554204
"98",28,37,2,2,98,3,2,1,2,0.580041845762825,0.590951434570927
"99",28,23,2,2,99,2,1,0,3,0.506392953456802,0.491180591985355
"100",28,36,2,2,100,2,1,0,3,0.559399609515311,0.410133986619914
"101",28,23,2,1,101,2,1,1,3,0.487049108613196,0.478403744866411
"102",28,40,2,1,102,1,1,1,5,0.264156115773031,0.198995390719902
"103",28,38,2,2,103,3,2,1,3,0.74576632982005,0.748287179483361
"104",28,34,2,1,104,3,1,1,3,0.929217305611188,0.844850810022506
"105",28,40,2,1,105,2,1,1,4,0.820263003754473,0.836597402734078
"106",28,38,2,2,106,1,1,0,3,0.59564434277978,0.617237408723217
"107",28,33,2,2,107,2,2,1,4,0.620305365786726,0.53727872868282
"108",28,37,2,1,108,3,1,1,3,0.96320937095386,0.953617575485958
"109",28,23,2,2,109,3,2,1,2,0.694003862087279,0.692413943057568
"110",28,36,2,1,110,2,1,1,3,0.631595045973808,0.52895679337312
"111",28,23,2,2,111,1,2,1,5,0.537098175522657,0.463040681477158
"112",28,40,2,2,112,1,2,1,4,0.367301185801752,0.319575965172523
"113",28,38,2,2,113,3,1,0,2,1.1768224604239,1.11817923808824
"114",28,34,2,2,114,1,2,1,4,0.241980094448616,0.274445312441758
"115",28,40,2,1,115,3,1,1,2,1.03758748961156,1.06745110714497
"116",28,38,2,1,116,1,1,1,5,0.341333290777567,0.418775473964697
"117",28,33,2,2,117,2,2,1,4,0.540427517596599,0.551236840411996
"118",28,37,2,2,118,2,2,1,3,0.551723342463617,0.549361958784941
"119",28,23,2,1,119,3,1,1,3,1.05716681787428,1.01262520258745
"120",28,36,2,2,120,1,2,1,5,0.520090238081046,0.494667538430592
"121",28,23,2,2,121,3,1,0,2,1.24955246648578,1.30549357458769
"122",28,40,2,2,122,3,2,1,3,0.754866437169631,0.700338206296089
"123",28,38,2,1,123,3,1,1,3,0.601724677331693,0.557857976445391
"124",28,34,2,1,124,3,2,0,1,0.845770664459983,0.813189544771377
"125",28,40,2,2,125,2,2,1,4,0.951760769552121,0.897250186743226
"126",28,38,2,2,126,2,2,1,3,0.484822276799,0.523615814948809
"127",28,33,2,2,127,2,2,1,3,0.669971792491617,0.729340147641605
"128",28,37,2,2,128,1,2,1,4,0.42476444790083,0.420201866882969
"129",28,23,2,1,129,3,2,0,2,1.09224307509872,1.06998362190836
"130",28,36,2,2,130,1,1,0,3,0.64855333707624,0.623645309971792
"131",28,23,2,2,131,1,2,1,4,0.24134460357257,0.135644844752823
"132",28,40,2,2,132,1,2,1,5,0.461119093810528,0.410466441604017
"133",28,38,2,1,133,1,1,1,5,0.356214559227014,0.349711029137504
"134",28,34,2,1,134,1,1,1,4,0.428559624741893,0.323750371047399
"135",28,40,2,1,135,3,2,0,1,1.11345273794926,1.1026070044642
"136",28,38,2,1,136,3,2,0,2,1.17710206906528,1.23539421636489
"137",28,33,2,2,137,3,1,0,2,0.716099126016932,0.684809811408437
"138",28,37,2,2,138,1,2,1,5,0.275853941718645,0.297448695820579
"139",28,23,2,1,139,1,1,1,4,0.466008233512168,0.499851847581775
"140",28,36,2,1,140,1,2,0,4,0.543306038172959,0.590518694301116
"141",28,23,2,1,141,2,2,0,3,0.692369908640004,0.694880149879777
"142",28,40,2,2,142,2,1,0,2,0.832729091885343,0.800301512309121
"143",28,38,2,2,143,1,1,0,4,0.710095354198152,0.673107806435229
"144",28,34,2,2,144,3,1,0,2,0.83811795259902,0.830152402387327
"145",28,40,2,2,145,3,1,0,2,0.383224615819465,0.375641031830689
"146",28,38,2,2,146,2,2,1,3,0.565142170849541,0.550213383534648
"147",28,33,2,2,147,1,2,1,4,0.393539269301044,0.453809940397731
"148",28,37,2,2,148,2,1,0,3,0.593277434067651,0.617289113598955
"149",28,23,2,1,149,1,1,1,4,0.268794959782718,0.271960328991705
"150",28,36,2,2,150,2,1,0,3,0.717251545341755,0.712194324385845
"151",28,23,2,2,151,1,1,0,3,0.468005902259247,0.429516181740995
"152",28,40,2,1,152,2,2,0,2,0.624553222860239,0.656341582545338
"153",28,38,2,2,153,3,1,0,1,0.833725472086397,0.878420809472028
"154",28,34,2,2,154,3,1,0,1,1.55207925924776,1.54607704888279
"155",28,40,2,2,155,3,2,1,3,0.784650135390494,0.802658020781533
"156",28,38,2,1,156,2,2,0,3,0.567440031216388,0.592589528075058
"157",28,33,2,1,157,2,2,0,3,0.630636699690137,0.648694042833604
"158",28,37,2,1,158,2,1,1,3,0.631440978154651,0.627522622998811
"159",28,23,2,1,159,1,1,1,4,0.409375953789651,0.510940496748596
"160",28,36,2,2,160,1,2,1,4,0.437558328983375,0.437822572785295
"161",28,23,2,1,161,2,1,1,3,0.567141614440278,0.554450011373458
"162",28,40,2,1,162,3,2,0,2,0.371420854399532,0.367100269148098
"163",28,38,2,2,163,3,2,1,2,1.1314871459139,1.09633074819368
"164",28,34,2,2,164,1,2,1,5,0.47461140890247,0.517858258205965
"165",28,40,2,1,165,3,2,0,1,0.947246474417281,0.912583424256669
"166",28,38,2,1,166,1,2,0,4,0.523085112167514,0.581942911799112
"167",28,33,2,1,167,1,1,1,5,0.350811884728122,0.403316095898991
"168",28,37,2,2,168,1,2,1,4,0.396740373063275,0.415067714032088
"169",28,23,2,2,169,3,1,0,1,0.779013871365872,0.708827428582603
"170",28,36,2,2,170,2,1,0,3,0.755380766532113,0.778177827916168
"171",28,23,2,1,171,1,1,1,4,0.397870919549935,0.450053234442656
"172",28,40,2,2,172,1,2,1,5,0.369536501641546,0.328680529519508
"173",28,38,2,2,173,1,1,0,3,0.55567702946879,0.53022400014698
"174",28,34,2,1,174,1,1,1,4,0.429906537272091,0.515940176162621
"175",28,40,2,2,175,1,1,0,3,0.574472276149309,0.564893999292905
"176",28,38,2,2,176,2,1,0,3,0.498611035858075,0.498651450724379
"177",28,33,2,1,177,3,1,1,3,0.75574985405112,0.741795005538033
"178",28,37,2,1,178,3,2,0,1,0.66167613524953,0.690225056639869
"179",28,23,2,1,179,2,1,1,3,0.483940786374632,0.550295421210911
"180",28,36,2,1,180,2,1,1,3,0.645879436819572,0.718552690515127
"181",28,23,2,1,181,3,1,1,2,0.753221316076461,0.710431858540716
"182",28,40,2,2,182,1,2,1,4,0.527334367595181,0.564179800623711
"183",28,38,2,2,183,1,2,1,4,0.34371274197432,0.360115372930527
"184",28,34,2,1,184,1,1,1,4,0.526008167099172,0.543023838276107
"185",28,40,2,2,185,1,1,0,4,0.433776731473013,0.476333778634343
"186",28,38,2,1,186,3,2,0,1,0.489718651501363,0.481893933969679
"187",28,33,2,1,187,3,2,0,2,0.969363305825733,0.933871115088076
"188",28,37,2,2,188,2,1,0,2,0.794585831630889,0.774399288876494
"189",28,23,2,1,189,1,1,1,5,0.509609588927668,0.488587853081889
"190",28,36,2,2,190,1,2,1,5,0.418380113222638,0.393385496881036
"191",28,23,2,1,191,1,1,1,5,0.338659644032889,0.403365426882891
"192",28,40,2,2,192,3,2,1,3,0.668440153357127,0.656201913757235
"193",28,38,2,2,193,3,1,0,1,1.16023805806707,1.08558053553053
"194",28,34,2,2,194,1,1,0,4,0.47887344505139,0.496377532608068
"195",28,40,2,1,195,3,1,1,3,0.660884280605729,0.651144434038714
"196",28,38,2,2,196,3,1,0,2,1.15423876736034,1.05675641696963
"197",28,33,2,1,197,3,2,0,1,1.01008130383616,1.00535226730156
"198",28,37,2,1,198,2,1,1,4,0.65253018152611,0.581371706441366
"199",28,23,2,2,199,3,1,0,2,0.910653649217896,0.885769190122284
"200",28,36,2,2,200,1,2,1,5,0.401174361306861,0.353685117707043
"201",28,23,2,2,201,1,2,1,5,0.381039677632305,0.510868411514665
"202",28,40,2,2,202,3,2,1,3,1.01997193196218,0.988662952499932
"203",28,38,2,1,203,3,2,0,2,0.753208728036328,0.727686814062655
"204",28,34,2,2,204,2,2,1,4,0.510976805290123,0.503609954236459
"205",28,40,2,2,205,3,1,0,1,0.739212170081243,0.725703065864431
"206",28,38,2,1,206,2,2,0,3,0.608080776910365,0.582533301975837
"207",28,33,2,2,207,3,1,0,2,0.716485961111381,0.702806270188473
"208",28,37,2,1,208,1,1,1,4,0.474035525091453,0.467261744579299
"209",28,23,2,1,209,1,1,1,5,0.435996937005483,0.328025995171937
"210",28,36,2,2,210,1,2,1,5,0.43636879869306,0.496079315256452
"211",28,23,2,2,211,3,2,1,2,0.670105485406802,0.678416905475694
"212",28,40,2,2,212,1,2,1,4,0.425897411290891,0.407222729095457
"213",28,38,2,1,213,3,1,1,3,0.429472850275501,0.419337385062054
"214",28,34,2,1,214,2,2,0,3,0.947829435951752,1.06400756520807
"215",28,40,2,1,215,3,1,1,3,0.606418900000777,0.609821286115149
"216",28,38,2,1,216,3,2,0,1,0.645416876573242,0.671509109607198
"217",28,33,2,2,217,1,2,1,4,0.360404454495861,0.338358672915154
"218",28,37,2,1,218,3,1,1,3,0.674373983840154,0.651544386338644
"219",28,23,2,2,219,2,2,1,4,0.598210516600797,0.605783144991017
"220",28,36,2,1,220,2,2,0,3,0.690773718927742,0.702381270201889
"221",28,23,2,2,221,1,2,1,5,0.427598932927715,0.467844006296603
"222",28,40,2,2,222,3,2,1,3,0.817331052808539,0.811845838176186
"223",28,38,2,2,223,3,1,0,2,0.423287478150769,0.579480483038105
"224",28,34,2,1,224,1,1,1,5,0.472251713126066,0.482735416764106
"225",28,40,2,1,225,2,2,0,3,0.734568747454663,0.672703504063844
"226",28,38,2,1,226,2,2,0,3,0.660191716001777,0.556688282947323
"227",28,33,2,2,227,3,1,0,2,1.22203418013782,1.2504548461657
"228",28,37,2,2,228,2,2,1,3,0.810383796001016,0.790667446048807
"229",28,23,2,1,229,1,1,1,4,0.304222152071533,0.368586923272548
"230",28,36,2,1,230,2,1,1,3,0.761860026337061,0.687786368599053
"231",28,23,2,1,231,2,2,0,3,0.994856214857084,1.09260160598818
"232",28,40,2,2,232,1,2,1,5,0.431738262050331,0.498553322781548
"233",28,38,2,1,233,2,1,1,4,0.499642418910231,0.425969636279721
"234",28,34,2,1,234,2,1,1,3,0.538101592700067,0.654794133252836
"235",28,40,2,2,235,3,2,1,3,0.764861760626791,0.827954055108357
"236",28,38,2,1,236,3,1,1,3,0.888862524396246,0.857250999937243
"237",28,33,2,2,237,2,2,1,3,0.651413974774578,0.643154245559816
"238",28,37,2,2,238,1,2,1,4,0.438215683023158,0.394372969957306
"239",28,23,2,1,239,3,1,1,2,0.787768581071912,0.766089499229241
"240",28,36,2,1,240,3,1,1,3,0.971316068417144,0.879377879457395
"241",27,25,1,1,1,2,2,0,3,0.939298698398282,0.953219321851019
"242",27,31,1,1,2,1,1,1,4,0.318372027483652,0.280992528495976
"243",27,27,1,2,3,1,2,1,5,0.515325696154003,0.568565710791299
"244",27,37,1,1,4,2,1,1,3,0.65715362549688,0.694216685326828
"245",27,39,1,2,5,3,2,1,2,1.03119633075904,1.05834173908998
"246",27,40,1,1,6,3,2,0,1,0.875310917582259,0.911782163919528
"247",27,22,1,2,7,3,2,1,2,0.891183349388994,0.894102539399112
"248",27,30,1,2,8,1,2,1,5,0.306543988111433,0.333869848625295
"249",27,24,1,1,9,3,1,1,3,0.708721006723383,0.632370335461155
"250",27,22,1,1,10,2,1,1,4,0.756819732169651,0.828315385521117
"251",27,25,1,2,11,2,2,1,3,0.709371209490815,0.808693892174755
"252",27,31,1,2,12,3,2,1,2,1.04635721567326,1.07420975268232
"253",27,27,1,2,13,2,2,1,4,0.684993180190361,0.657215853959128
"254",27,37,1,2,14,2,2,1,4,0.707370616505126,0.640411004858116
"255",27,39,1,1,15,1,1,1,5,0.37799270312916,0.454710337668092
"256",27,40,1,1,16,2,2,0,3,0.848415372864849,0.810969932126846
"257",27,22,1,2,17,3,2,1,2,1.29088226345588,1.26309899476331
"258",27,30,1,1,18,1,1,1,5,0.419643487613601,0.335697184627153
"259",27,24,1,2,19,1,2,1,4,0.467283310198841,0.421443895355882
"260",27,22,1,2,20,2,2,1,3,0.825183921099073,0.823687065418125
"261",27,25,1,1,21,3,2,0,1,1.29481953758349,1.23349123720576
"262",27,31,1,2,22,3,2,1,3,0.636934170096504,0.710134944299264
"263",27,27,1,2,23,1,2,1,5,0.280972629882071,0.274156994456859
"264",27,37,1,2,24,3,1,0,1,1.35809502266647,1.29623019097945
"265",27,39,1,1,25,1,1,1,5,0.485303820755257,0.463944468777288
"266",27,40,1,1,26,1,1,1,4,0.459761691360924,0.619658370199169
"267",27,22,1,1,27,2,1,1,4,0.781636573056347,0.744987453213019
"268",27,30,1,1,28,2,2,0,2,0.611132548844047,0.642624460329219
"269",27,24,1,2,29,1,2,1,4,0.402709216485408,0.379655847539197
"270",27,22,1,2,30,2,2,1,3,0.51596108715723,0.514190372508476
"271",27,25,1,1,31,1,2,0,4,0.647616124265027,0.716134565607583
"272",27,31,1,2,32,2,2,1,4,0.522784719842341,0.546231102157597
"273",27,27,1,1,33,3,1,1,2,0.647896740199011,0.559931716463764
"274",27,37,1,1,34,3,1,1,2,0.993275263706906,0.973670198686284
"275",27,39,1,1,35,1,1,1,4,0.520956501953335,0.550875563995173
"276",27,40,1,1,36,2,2,0,3,0.830430203424238,0.836265603102003
"277",27,22,1,1,37,1,1,1,5,0.392786783281097,0.400371378843112
"278",27,30,1,2,38,1,2,1,4,0.280449693317788,0.234848407117836
"279",27,24,1,2,39,1,2,1,5,0.579952837091949,0.652736700365645
"280",27,22,1,2,40,2,2,1,4,0.626349691153568,0.627467497862917
"281",27,25,1,2,41,1,2,1,5,0.428465173538803,0.41028757202311
"282",27,31,1,2,42,1,2,1,5,0.436159688906187,0.502062386361276
"283",27,27,1,1,43,1,1,1,5,0.375278396490581,0.393688911046382
"284",27,37,1,1,44,2,1,1,3,0.529906336988746,0.494468803401339
"285",27,39,1,2,45,1,2,1,4,0.449444808451581,0.424920706963833
"286",27,40,1,1,46,3,2,0,1,1.09731691199141,1.18250275866091
"287",27,22,1,1,47,1,1,1,4,0.462559020397235,0.573147547496106
"288",27,30,1,1,48,1,2,0,3,0.523092832613281,0.467245271041607
"289",27,24,1,2,49,3,1,0,1,1.19429480629188,1.22934807282478
"290",27,22,1,2,50,2,1,0,2,1.12751629638622,1.26664503666112
"291",27,25,1,1,51,3,1,1,2,0.973051156721351,0.883607403184878
"292",27,31,1,2,52,3,2,1,2,1.04833124107556,1.04557205878419
"293",27,27,1,1,53,1,1,1,5,0.390653161731765,0.446639040528094
"294",27,37,1,1,54,3,2,0,2,0.818093090357281,0.828917946483481
"295",27,39,1,2,55,3,1,0,1,0.909481417371011,0.856342445783592
"296",27,40,1,1,56,2,1,1,3,0.626863981839195,0.695819625259562
"297",27,22,1,2,57,1,2,1,5,0.404635105964427,0.384660235916072
"298",27,30,1,2,58,1,1,0,3,0.449830331699003,0.401132384193501
"299",27,24,1,2,59,3,2,1,3,0.392647538608452,0.278200382120649
"300",27,22,1,2,60,3,2,1,2,1.16986075411934,1.17124944091231
"301",27,25,1,2,61,3,1,0,2,0.612186057906056,0.716199374337129
"302",27,31,1,2,62,3,1,0,1,0.688087499461323,0.70178108018346
"303",27,27,1,1,63,1,2,0,4,0.508850435150578,0.529312892572655
"304",27,37,1,2,64,1,2,1,4,0.367066239905981,0.368196950908432
"305",27,39,1,1,65,2,1,1,4,0.955057543875756,1.00655577289028
"306",27,40,1,2,66,3,2,1,2,0.896537257208622,0.937804587520531
"307",27,22,1,1,67,2,1,1,4,0.582085080970661,0.611061508192962
"308",27,30,1,2,68,3,2,1,2,1.20391461605008,1.18760148744343
"309",27,24,1,2,69,1,1,0,4,0.642284679518438,0.639204392197825
"310",27,22,1,1,70,2,1,1,4,0.445723569507259,0.355005721073051
"311",27,25,1,2,71,3,1,0,1,0.896670636280763,0.838350469416067
"312",27,31,1,1,72,2,2,0,2,0.459709710230204,0.434369594638812
"313",27,27,1,2,73,3,1,0,2,0.815192150753188,0.89818044790808
"314",27,37,1,1,74,2,1,1,4,0.331115940887558,0.381552314299496
"315",27,39,1,2,75,3,1,0,2,0.890894621066351,0.902663726311005
"316",27,40,1,1,76,3,2,0,2,0.55062871073681,0.421443703159989
"317",27,22,1,1,77,2,2,0,2,0.735466147546535,0.687806761351376
"318",27,30,1,2,78,1,2,1,4,0.590021164425022,0.486058639204125
"319",27,24,1,2,79,3,1,0,1,1.1527952397558,1.08569679715966
"320",27,22,1,2,80,1,2,1,4,0.439066431005885,0.444004697772874
"321",27,25,1,1,81,1,1,1,4,0.463788930685532,0.516925877905363
"322",27,31,1,1,82,3,1,1,2,0.903479985969743,0.890667860142316
"323",27,27,1,2,83,2,2,1,3,0.639510174852603,0.56445495293477
"324",27,37,1,2,84,2,2,1,4,0.678108629892658,0.658306013995917
"325",27,39,1,1,85,2,1,1,4,0.591737664760067,0.614126949022175
"326",27,40,1,1,86,1,1,1,5,0.330642071764409,0.300920416861678
"327",27,22,1,1,87,3,2,0,2,1.10725217087423,1.07592691366409
"328",27,30,1,1,88,3,1,1,3,0.960463666334746,0.943258759446944
"329",27,24,1,1,89,3,1,1,3,0.499989268141344,0.515153530600605
"330",27,22,1,1,90,3,2,0,2,1.6760135791028,1.75997119359914
"331",27,25,1,2,91,2,1,0,2,0.645217457450758,0.617985491430685
"332",27,31,1,1,92,3,1,1,3,0.6006612723351,0.631867508274439
"333",27,27,1,1,93,3,2,0,1,1.02477498480218,0.946362823296938
"334",27,37,1,1,94,1,1,1,4,0.500226817716059,0.442591928765357
"335",27,39,1,1,95,1,1,1,4,0.430334787247629,0.392246851781044
"336",27,40,1,2,96,3,1,0,2,0.604494162761777,0.554763067762947
"337",27,22,1,1,97,1,1,1,5,0.415580582435802,0.419893070034011
"338",27,30,1,2,98,1,2,1,5,0.575909187702438,0.549183110612584
"339",27,24,1,2,99,2,1,0,3,0.673198888369111,0.611588209506111
"340",27,22,1,2,100,2,2,1,3,0.553833130720589,0.541944169213536
"341",27,25,1,1,101,1,1,1,4,0.258199492238338,0.234456498979913
"342",27,31,1,2,102,3,1,0,1,1.1522416200077,1.15658447582461
"343",27,27,1,2,103,2,2,1,4,0.612766553185744,0.644605438801934
"344",27,37,1,1,104,3,2,0,2,1.02118908260329,1.01266294589282
"345",27,39,1,2,105,3,1,0,2,1.44916228227511,1.50877855048913
"346",27,40,1,2,106,1,2,1,4,0.475455056006168,0.594487598764561
"347",27,22,1,2,107,1,2,1,5,0.388077816901157,0.252225058710889
"348",27,30,1,1,108,1,1,1,5,0.504327570501931,0.460286913853592
"349",27,24,1,2,109,2,1,0,3,0.671838783491154,0.694364834987178
"350",27,22,1,1,110,1,1,1,5,0.482461620878904,0.484636957008517
"351",27,25,1,2,111,1,2,1,5,0.385459588880904,0.403190812763089
"352",27,31,1,2,112,2,1,0,3,0.574281750888178,0.552150768884849
"353",27,27,1,1,113,2,1,1,3,0.633580060462285,0.660990069372896
"354",27,37,1,2,114,1,2,1,5,0.431079375366849,0.47734441498711
"355",27,39,1,2,115,1,2,1,5,0.419459087836081,0.403486194598809
"356",27,40,1,2,116,1,2,1,5,0.244513419151503,0.196378803485493
"357",27,22,1,2,117,1,2,1,4,0.431658141395776,0.371307213138973
"358",27,30,1,1,118,1,1,1,5,0.38061747420666,0.327988563042758
"359",27,24,1,2,119,2,1,0,2,0.749442792395405,0.723545025641196
"360",27,22,1,1,120,1,2,0,3,0.512432765420446,0.519664103565701
"361",27,25,1,2,121,3,2,1,3,0.598693363308907,0.614710266446047
"362",27,31,1,1,122,2,1,1,3,0.743265589825818,0.740380055354804
"363",27,27,1,2,123,1,2,1,5,0.361129070032434,0.360782603406991
"364",27,37,1,2,124,3,1,0,1,0.967979053119883,1.02190568116846
"365",27,39,1,1,125,3,1,1,2,1.06084981625038,1.07019189115547
"366",27,40,1,1,126,2,1,1,3,0.770693159555276,0.657642981717682
"367",27,22,1,2,127,1,2,1,5,0.522833489155656,0.46409620655457
"368",27,30,1,2,128,2,2,1,4,0.521501402108969,0.547057602969431
"369",27,24,1,1,129,1,1,1,4,0.381180782694087,0.342013469849319
"370",27,22,1,2,130,2,2,1,4,0.761942709998091,0.783564592817306
"371",27,25,1,2,131,3,1,0,1,0.552310847291883,0.508260617446201
"372",27,31,1,2,132,1,2,1,5,0.492423848186282,0.447329298191629
"373",27,27,1,2,133,1,1,0,3,0.50474683497791,0.591396281812274
"374",27,37,1,1,134,1,1,1,5,0.360243438023714,0.317966544713767
"375",27,39,1,1,135,2,1,1,4,0.826066153871945,0.787462347389237
"376",27,40,1,1,136,2,1,1,4,0.536402565042822,0.579418690952895
"377",27,22,1,1,137,3,1,1,2,0.546070278438515,0.592327134856476
"378",27,30,1,2,138,3,2,1,2,0.946743473485155,0.990614297040778
"379",27,24,1,1,139,3,1,1,2,0.786862845742848,0.81183829118625
"380",27,22,1,2,140,3,1,0,2,1.13877017775179,1.23269114353944
"381",27,25,1,2,141,1,2,1,5,0.565264334537916,0.612813120041625
"382",27,31,1,1,142,2,2,0,3,0.858131576644814,0.793952116432391
"383",27,27,1,1,143,2,1,1,3,0.458182416932003,0.48010198106516
"384",27,37,1,2,144,2,1,0,3,0.97276532460203,0.914557350173243
"385",27,39,1,2,145,3,1,0,2,0.446591710038992,0.402287844101155
"386",27,40,1,1,146,3,1,1,2,0.806015965071433,0.809248835938658
"387",27,22,1,2,147,2,1,0,2,0.847147637705211,0.806791647542993
"388",27,30,1,2,148,2,1,0,2,0.628698955032686,0.597762129564826
"389",27,24,1,1,149,2,1,1,3,0.665789899921712,0.680234805637962
"390",27,22,1,2,150,3,2,1,2,1.03715678344931,0.950522096026783
"391",27,25,1,1,151,3,2,0,1,0.413309940955472,0.480879678101155
"392",27,31,1,2,152,2,1,0,2,0.894732951927057,0.973513146654279
"393",27,27,1,2,153,3,2,1,3,0.847653335027786,0.88895178164897
"394",27,37,1,1,154,1,1,1,4,0.331229628935361,0.325683903545032
"395",27,39,1,1,155,3,2,0,2,1.09344785272546,1.08810714127849
"396",27,40,1,1,156,3,2,0,1,1.69331134571384,1.76575217573734
"397",27,22,1,2,157,3,2,1,3,0.799819951207574,0.789305488523941
"398",27,30,1,2,158,3,2,1,2,0.770576830333463,0.768834588487375
"399",27,24,1,1,159,3,2,0,1,0.540303583777072,0.457624835154412
"400",27,22,1,1,160,3,1,1,3,0.842905097972752,0.928670883480625
"401",27,25,1,2,161,3,1,0,2,0.664424153435828,0.623038562347886
"402",27,31,1,1,162,3,1,1,3,0.691353508353292,0.651107915181906
"403",27,27,1,1,163,2,2,0,2,0.602138023260426,0.684730703282956
"404",27,37,1,1,164,3,1,1,3,0.976630095469429,1.03008900494596
"405",27,39,1,2,165,1,2,1,4,0.333685379749909,0.324174262459507
"406",27,40,1,2,166,2,2,1,3,0.668662146326463,0.712099353313932
"407",27,22,1,1,167,2,1,1,4,0.611488892089516,0.568688438173285
"408",27,30,1,1,168,3,2,0,1,0.814517121986239,0.780496542987178
"409",27,24,1,1,169,2,1,1,4,0.730342726093785,0.727395512380743
"410",27,22,1,1,170,3,2,0,1,0.500284351367357,0.511919016606726
"411",27,25,1,1,171,3,2,0,2,1.5989011189114,1.55509017205455
"412",27,31,1,1,172,2,1,1,3,0.433803355256253,0.524074174368714
"413",27,27,1,1,173,1,1,1,4,0.45293005633816,0.443013552497508
"414",27,37,1,1,174,3,2,0,2,0.995458967196643,0.926519813894466
"415",27,39,1,1,175,2,1,1,3,0.783973222566866,0.782447882847919
"416",27,40,1,1,176,2,1,1,3,0.570350976479151,0.60045831871102
"417",27,22,1,1,177,1,2,0,3,0.527693689042935,0.542806454855896
"418",27,30,1,2,178,2,2,1,4,0.486433566713251,0.481499604196634
"419",27,24,1,2,179,1,1,0,4,0.608981125968059,0.594364145133597
"420",27,22,1,2,180,2,2,1,4,0.636339402870941,0.612538478659689
"421",27,25,1,2,181,2,1,0,3,0.826444894770647,0.849258809155227
"422",27,31,1,1,182,3,1,1,3,0.675261878942597,0.727105558194146
"423",27,27,1,1,183,2,1,1,4,0.529828653607372,0.581214045248527
"424",27,37,1,1,184,1,1,1,5,0.296574236713584,0.250526703027037
"425",27,39,1,1,185,2,2,0,3,0.661247929857893,0.63084998272522
"426",27,40,1,1,186,3,2,0,2,0.47625388150192,0.496741866845711
"427",27,22,1,1,187,1,1,1,5,0.42658200778659,0.448115203345487
"428",27,30,1,2,188,2,1,0,2,0.561954397769776,0.520559242620006
"429",27,24,1,2,189,2,2,1,3,0.536193652833851,0.641316025370902
"430",27,22,1,2,190,3,1,0,2,0.895832581367222,0.943174805268966
"431",27,25,1,2,191,2,2,1,3,0.621219617312617,0.669406147274863
"432",27,31,1,2,192,3,1,0,2,1.21780212769492,1.20186355491931
"433",27,27,1,2,193,1,1,0,4,0.4030901255404,0.377928499774521
"434",27,37,1,2,194,3,1,0,1,0.937802395662771,1.01047122765428
"435",27,39,1,2,195,2,1,0,3,0.953761794374542,0.947671582664993
"436",27,40,1,1,196,3,1,1,2,0.930616741848314,1.01859328667445
"437",27,22,1,2,197,2,2,1,3,0.816786353209263,0.813055742140643
"438",27,30,1,2,198,3,2,1,3,0.927531728240912,0.960668810315998
"439",27,24,1,1,199,3,1,1,2,0.650614662439533,0.720247553417749
"440",27,22,1,1,200,2,1,1,4,0.627239443653718,0.589541478207928
"441",27,25,1,1,201,2,1,1,3,0.353393386825523,0.343237114276738
"442",27,31,1,2,202,3,2,1,3,0.874739109719016,0.850359777529668
"443",27,27,1,1,203,2,2,0,2,0.783043475144916,0.8381623419067
"444",27,37,1,1,204,1,1,1,4,0.406004268422392,0.372956162236216
"445",27,39,1,1,205,2,2,0,3,0.630378640094423,0.595302727115135
"446",27,40,1,1,206,2,1,1,4,0.739707999303672,0.708153146341481
"447",27,22,1,1,207,1,1,1,5,0.345451527494652,0.313763763418944
"448",27,30,1,2,208,3,2,1,2,1.00614976787528,0.973111255971651
"449",27,24,1,1,209,1,1,1,5,0.544310213396776,0.498331312136355
"450",27,22,1,2,210,2,1,0,3,0.628018413529334,0.587817714238393
"451",27,25,1,2,211,2,2,1,3,0.590552006270339,0.599044686923954
"452",27,31,1,1,212,1,1,1,5,0.484976560650272,0.432797688269578
"453",27,27,1,2,213,1,2,1,5,0.232033753629294,0.257484583116415
"454",27,37,1,2,214,1,2,1,5,0.323259761688099,0.385059152369998
"455",27,39,1,2,215,1,2,1,5,0.32031670944964,0.315918844671439
"456",27,40,1,2,216,1,2,1,5,0.602303478240167,0.477142260752299
"457",27,22,1,2,217,1,2,1,4,0.472480407834105,0.55220955753387
"458",27,30,1,1,218,1,1,1,4,0.496412219502093,0.572527933785328
"459",27,24,1,1,219,2,1,1,3,0.399764761758942,0.435669376140965
"460",27,22,1,2,220,2,1,0,3,0.556252556173016,0.596952643577569
"461",27,25,1,1,221,2,1,1,4,0.617230598399788,0.684698452545242
"462",27,31,1,1,222,3,2,0,1,1.33929259686323,1.31858646785814
"463",27,27,1,1,223,1,2,0,4,0.553613565752957,0.550707519701055
"464",27,37,1,1,224,2,2,0,2,0.680980766657953,0.676925472679039
"465",27,39,1,2,225,1,1,0,3,0.462965653136524,0.453668231657245
"466",27,40,1,1,226,2,1,1,3,0.668165092243057,0.718738455816864
"467",27,22,1,2,227,1,2,1,5,0.412665280655361,0.392766800982099
"468",27,30,1,1,228,1,1,1,5,0.495357432596458,0.476309886238832
"469",27,24,1,2,229,2,2,1,3,0.665869456843715,0.642146932193083
"470",27,22,1,2,230,3,1,0,1,0.514725162447855,0.601782247410758
"471",27,25,1,2,231,1,2,1,5,0.455319090603933,0.476378929980005
"472",27,31,1,2,232,3,1,0,2,0.608788627525191,0.651887892446477
"473",27,27,1,1,233,3,2,0,1,1.42488751263933,1.38587467060547
"474",27,37,1,1,234,1,1,1,4,0.459584316481784,0.474038317830083
"475",27,39,1,2,235,3,2,1,2,0.898093748208419,0.953390760203405
"476",27,40,1,2,236,2,1,0,2,0.820093378619214,0.743484505335996
"477",27,22,1,1,237,2,1,1,4,0.578124270487223,0.598595347626295
"478",27,30,1,1,238,2,2,0,2,0.718444179331132,0.741056602278896
"479",27,24,1,1,239,1,1,1,5,0.379926741644086,0.32792917202562
"480",27,22,1,2,240,1,2,1,4,0.192788518889308,0.170759293175359
"481",26,33,2,2,1,3,1,0,2,1.21217282098451,1.20674457200049
"482",26,32,2,1,2,3,1,1,3,1.20174832507335,1.16409347671695
"483",26,35,2,2,3,3,1,0,2,-0.405198607446584,-0.39562868051124
"484",26,27,2,1,4,2,2,0,2,0.50056376952164,0.4628869003573
"485",26,25,2,2,5,3,1,0,2,1.63183394123412,1.63369156431567
"486",26,32,2,2,6,3,2,1,2,1.08296438290549,1.03741090916372
"487",26,30,2,2,7,3,1,0,2,1.38760152745229,1.39770225191405
"488",26,30,2,1,8,1,1,1,5,0.3863431093424,0.350034443876084
"489",26,24,2,2,9,3,2,1,3,0.824290616088376,0.824628582155244
"490",26,32,2,1,10,1,1,1,5,0.325689554996056,0.297629002705427
"491",26,33,2,2,11,1,1,0,4,0.4775569818244,0.559084619022501
"492",26,32,2,1,12,2,2,0,3,0.988519764548895,0.932849414037094
"493",26,35,2,2,13,1,2,1,4,0.328399383732017,0.35121359426466
"494",26,27,2,2,14,2,1,0,2,0.741045386461972,0.717606057774293
"495",26,25,2,2,15,1,1,0,4,0.581108215912744,0.586541968075419
"496",26,32,2,2,16,3,2,1,2,0.976059192738724,0.952431605578556
"497",26,30,2,2,17,1,2,1,4,0.344580239198593,0.293142321026453
"498",26,30,2,1,18,1,2,0,3,0.872185329701073,0.844928058626822
"499",26,24,2,2,19,1,2,1,5,0.371193642795168,0.321948767648325
"500",26,32,2,2,20,1,2,1,4,0.565819892853177,0.611286330345258
"501",26,33,2,2,21,3,2,1,2,1.13841158271477,1.09199216578018
"502",26,32,2,2,22,1,2,1,5,0.390194821950476,0.396619264273871
"503",26,35,2,1,23,2,2,0,2,0.799670132694442,0.835277470972857
"504",26,27,2,2,24,3,2,1,3,0.94475422353555,0.896474291333543
"505",26,25,2,2,25,2,2,1,3,0.759242642857382,0.750689064056515
"506",26,32,2,2,26,1,2,1,4,0.406536693051884,0.522572962919241
"507",26,30,2,1,27,1,1,1,4,0.378556139457291,0.36333224033903
"508",26,30,2,2,28,3,1,0,2,1.33312970487061,1.29305940626041
"509",26,24,2,2,29,3,2,1,3,0.59944965797774,0.534958740665048
"510",26,32,2,2,30,2,1,0,2,0.909675991557323,0.856939397855579
"511",26,33,2,2,31,3,1,0,1,0.764953689113665,0.807449787665516
"512",26,32,2,1,32,3,2,0,2,1.21744104543251,1.27025843578054
"513",26,35,2,2,33,3,1,0,2,0.855453861852686,0.892412171010617
"514",26,27,2,1,34,1,1,1,4,0.367213654209825,0.342695019200888
"515",26,25,2,2,35,1,1,0,3,0.589774467746083,0.575992640772013
"516",26,32,2,1,36,1,1,1,5,0.362612637578332,0.371654617440093
"517",26,30,2,1,37,3,2,0,2,1.09779449794177,1.12609443340076
"518",26,30,2,1,38,2,1,1,4,0.699261364003403,0.728535570049937
"519",26,24,2,2,39,3,1,0,1,0.592296592770313,0.558330339610737
"520",26,32,2,1,40,2,2,0,2,0.7048240275935,0.656196985155287
"521",26,33,2,2,41,3,2,1,3,0.5361775750149,0.459345212532068
"522",26,32,2,2,42,1,1,0,3,0.713687353722507,0.661253265831101
"523",26,35,2,1,43,3,1,1,3,0.7201919198661,0.688485317514152
"524",26,27,2,1,44,3,1,1,3,1.07443888154993,1.10535475453101
"525",26,25,2,1,45,3,2,0,2,0.422910539682404,0.402952747488442
"526",26,32,2,1,46,1,1,1,4,0.385011031611713,0.465161169621579
"527",26,30,2,1,47,1,1,1,5,0.398040574675662,0.415845857074875
"528",26,30,2,1,48,3,1,1,3,0.740715487149139,0.849005927170457
"529",26,24,2,2,49,3,1,0,2,0.589369288363323,0.617707397959611
"530",26,32,2,2,50,2,1,0,3,0.722416358454501,0.78619391062444
"531",26,33,2,1,51,2,1,1,3,0.419520413591171,0.42838607311903
"532",26,32,2,2,52,1,2,1,4,0.301266379587859,0.301643037407295
"533",26,35,2,2,53,3,2,1,3,0.60497566646656,0.555518204140806
"534",26,27,2,2,54,2,2,1,3,0.638074194042579,0.639550728522179
"535",26,25,2,2,55,3,2,1,2,0.715498633480468,0.625541571832194
"536",26,32,2,1,56,2,1,1,3,0.811344930644359,0.723451460153057
"537",26,30,2,2,57,2,2,1,3,0.854568936861912,0.824805871151452
"538",26,30,2,2,58,1,2,1,5,0.458842351730944,0.54999315782443
"539",26,24,2,2,59,3,1,0,1,1.8117778291187,1.79023669046249
"540",26,32,2,2,60,2,1,0,3,0.799195836291296,0.786985449204275
"541",26,33,2,2,61,2,2,1,3,0.610257582276065,0.582379211193304
"542",26,32,2,2,62,1,2,1,4,0.270591980567914,0.218767674670091
"543",26,35,2,2,63,2,1,0,2,0.819407675650553,0.821285340778318
"544",26,27,2,1,64,2,1,1,3,0.366041085855912,0.360375119319682
"545",26,25,2,1,65,1,1,1,5,0.278281233104832,0.285519669754704
"546",26,32,2,2,66,2,2,1,3,0.73089878534016,0.744615389322469
"547",26,30,2,1,67,3,1,1,2,0.787582810614222,0.835183930976915
"548",26,30,2,2,68,1,2,1,5,0.358470379649554,0.41732206065798
"549",26,24,2,2,69,1,1,0,4,0.411236018619288,0.480443436445874
"550",26,32,2,1,70,3,2,0,1,1.33381289584598,1.20896445001299
"551",26,33,2,2,71,1,1,0,4,0.411111319849962,0.391166410780095
"552",26,32,2,2,72,2,2,1,3,0.846650065466159,0.80630504503726
"553",26,35,2,1,73,1,2,0,4,0.794335798647071,0.77537041575489
"554",26,27,2,2,74,2,1,0,3,0.672293368022088,0.652565287567559
"555",26,25,2,1,75,1,1,1,4,0.379929177911479,0.429507219013873
"556",26,32,2,2,76,1,1,0,3,0.613714681329252,0.654957503866783
"557",26,30,2,2,77,3,2,1,2,0.66128182736891,0.730012186927966
"558",26,30,2,2,78,3,1,0,2,0.637061191602452,0.627907771301314
"559",26,24,2,2,79,3,1,0,1,1.01448141581008,1.02490378860256
"560",26,32,2,1,80,3,1,1,2,0.829008584315869,0.829232037915885
"561",26,33,2,1,81,2,2,0,2,0.770311323832344,0.752845248153318
"562",26,32,2,1,82,1,1,1,4,0.434637907757728,0.492773112469269
"563",26,35,2,2,83,1,2,1,5,0.445911407750725,0.464926813564615
"564",26,27,2,2,84,2,1,0,2,0.764403439994887,0.835173201920491
"565",26,25,2,2,85,1,2,1,5,0.424469669486966,0.452224265933006
"566",26,32,2,2,86,3,1,0,1,1.54843959046099,1.49661764595312
"567",26,30,2,2,87,2,2,1,4,0.62732271339504,0.67633276517239
"568",26,30,2,1,88,3,2,0,1,0.696524079222421,0.726599241330326
"569",26,24,2,1,89,2,2,0,2,0.629881221364629,0.631950874764611
"570",26,32,2,2,90,2,1,0,2,0.659407160176442,0.62055865413278
"571",26,33,2,2,91,3,2,1,3,0.993365233368713,1.02719628014773
"572",26,32,2,2,92,2,1,0,3,0.765004726999585,0.804316128451617
"573",26,35,2,2,93,3,1,0,2,0.848402431301686,0.798568394048455
"574",26,27,2,2,94,2,2,1,3,0.520536799066677,0.515076693087658
"575",26,25,2,2,95,2,2,1,4,0.659606100358289,0.68573157659625
"576",26,32,2,2,96,3,2,1,2,0.835161434402791,0.901230733807622
"577",26,30,2,2,97,3,1,0,2,1.38626131743163,1.41731429707648
"578",26,30,2,1,98,2,2,0,3,0.620583744355614,0.598196559562218
"579",26,24,2,1,99,3,2,0,1,1.21566745010652,1.19946332378376
"580",26,32,2,2,100,1,2,1,4,0.353460030316926,0.359728838449027
"581",26,33,2,1,101,1,1,1,5,0.570210288342335,0.579043650666485
"582",26,32,2,1,102,2,1,1,4,0.48128017594036,0.480723340297133
"583",26,35,2,1,103,1,1,1,5,0.338522172322134,0.368255005481282
"584",26,27,2,1,104,3,1,1,2,0.457394458798711,0.482111388427146
"585",26,25,2,2,105,2,1,0,3,0.849169484332965,0.872130710296986
"586",26,32,2,2,106,3,1,0,2,0.881244594158158,0.862821997299263
"587",26,30,2,2,107,1,2,1,4,0.430976585943556,0.533412696732087
"588",26,30,2,1,108,1,1,1,4,0.507543221776898,0.569679089810958
"589",26,24,2,2,109,3,1,0,2,0.832865276498824,0.772856280825267
"590",26,32,2,2,110,2,2,1,3,0.540342869483765,0.575801114554023
"591",26,33,2,2,111,2,2,1,3,0.726724063726242,0.788066391947956
"592",26,32,2,1,112,1,1,1,4,0.45013221160554,0.520850356116105
"593",26,35,2,1,113,1,1,1,5,0.345614733008588,0.322660314066077
"594",26,27,2,2,114,2,2,1,3,0.677425560610789,0.635402032050874
"595",26,25,2,1,115,3,1,1,2,0.898897304559215,0.893191145860013
"596",26,32,2,1,116,1,1,1,4,0.422897203028571,0.341000579989281
"597",26,30,2,1,117,1,1,1,5,0.44747610666775,0.443229519934965
"598",26,30,2,2,118,2,2,1,3,0.726878719453325,0.708232775405563
"599",26,24,2,1,119,3,2,0,1,0.826979501840851,0.950394917679591
"600",26,32,2,2,120,1,2,1,5,0.421303863684618,0.430014217559368
"601",26,33,2,2,121,1,1,0,3,0.491436590033491,0.534507345701004
"602",26,32,2,1,122,1,1,1,4,0.374338442117467,0.442371686545746
"603",26,35,2,1,123,3,2,0,2,0.735192722592426,0.750383072697302
"604",26,27,2,2,124,2,1,0,2,0.659431468247558,0.588462978548453
"605",26,25,2,1,125,3,1,1,3,0.748132958725783,0.765718896485217
"606",26,32,2,2,126,1,1,0,3,0.499439579012873,0.538274476760142
"607",26,30,2,1,127,1,1,1,5,0.473185616756473,0.445866714725168
"608",26,30,2,1,128,3,2,0,1,0.612834327136041,0.583386954634079
"609",26,24,2,2,129,2,1,0,2,0.64425414453686,0.702870137313986
"610",26,32,2,2,130,1,2,1,5,0.271566839103838,0.239592093669797
"611",26,33,2,1,131,3,1,1,2,0.632765907418039,0.603620449870059
"612",26,32,2,1,132,2,2,0,2,0.879679001069143,0.855394413440484
"613",26,35,2,1,133,2,1,1,4,0.277349919501331,0.246121987794024
"614",26,27,2,1,134,3,1,1,3,0.78100501324435,0.758464901167339
"615",26,25,2,1,135,1,1,1,5,0.511883989895339,0.427048853355443
"616",26,32,2,1,136,1,2,0,3,0.597694659885061,0.591948434621971
"617",26,30,2,1,137,3,2,0,2,0.383732664414817,0.366968295495604
"618",26,30,2,2,138,3,1,0,1,0.62795930620425,0.548012298766619
"619",26,24,2,1,139,1,1,1,4,0.331218801643615,0.22112772998623
"620",26,32,2,2,140,2,2,1,3,0.570601427574974,0.477551642753595
"621",26,33,2,1,141,3,2,0,1,1.04857322057303,1.03970014332688
"622",26,32,2,1,142,1,1,1,4,0.259091730936312,0.224130284897372
"623",26,35,2,2,143,1,1,0,4,0.832250925748586,0.812933318030565
"624",26,27,2,2,144,3,1,0,1,2.12928228618921,2.12283912511795
"625",26,25,2,1,145,1,1,1,4,0.310482921437228,0.226495806214897
"626",26,32,2,1,146,3,2,0,1,1.33821536122596,1.23616549945568
"627",26,30,2,1,147,3,1,1,2,0.955716378099989,0.873165598919149
"628",26,30,2,2,148,2,2,1,3,0.405465839167374,0.488797637161589
"629",26,24,2,1,149,1,1,1,5,0.353285011122378,0.326996689247854
"630",26,32,2,2,150,2,1,0,3,0.641074601733519,0.62390521697524
"631",26,33,2,1,151,1,1,1,5,0.529034290862783,0.494379269297981
"632",26,32,2,1,152,2,2,0,3,0.609636015687143,0.656247003279045
"633",26,35,2,2,153,2,2,1,4,0.441218835475654,0.439594468083649
"634",26,27,2,1,154,3,1,1,2,0.876308351473316,0.777185439367704
"635",26,25,2,2,155,2,2,1,4,0.666527989779204,0.745104727412481
"636",26,32,2,1,156,2,2,0,2,0.946852380500072,0.869154808744638
"637",26,30,2,2,157,3,1,0,2,1.44082002806992,1.47767256942854
"638",26,30,2,1,158,3,1,1,3,0.616446863547327,0.564897460106505
"639",26,24,2,2,159,2,2,1,3,0.591313888827171,0.615347333435162
"640",26,32,2,1,160,1,1,1,4,0.364374136668289,0.356584038783603
"641",26,33,2,1,161,2,2,0,3,0.761391296554414,0.721347478643233
"642",26,32,2,1,162,2,1,1,4,0.687364814586905,0.749302045274563
"643",26,35,2,2,163,1,1,0,3,0.539128157118717,0.563744279378694
"644",26,27,2,1,164,2,1,1,3,0.360748628701005,0.290015306307419
"645",26,25,2,2,165,2,1,0,2,0.849124594813021,0.789592803833085
"646",26,32,2,1,166,2,2,0,2,0.73910381653335,0.758470473810221
"647",26,30,2,1,167,2,2,0,2,0.707447040270108,0.689440629676891
"648",26,30,2,2,168,1,2,1,5,0.396126443798874,0.421941743565771
"649",26,24,2,1,169,3,2,0,2,0.390403541359127,0.439505806050496
"650",26,32,2,1,170,1,1,1,5,0.383790821807405,0.296396067780033
"651",26,33,2,2,171,2,2,1,3,0.804455857154693,0.790794754065747
"652",26,32,2,2,172,3,1,0,1,1.08271572385399,1.02985365493548
"653",26,35,2,1,173,3,2,0,1,1.34417528821923,1.36718576295008
"654",26,27,2,1,174,2,1,1,3,0.686159369828264,0.695858518564221
"655",26,25,2,1,175,3,2,0,1,1.81644386844222,1.82625392669747
"656",26,32,2,2,176,3,1,0,2,1.43299599412478,1.35383395548522
"657",26,30,2,1,177,2,2,0,2,1.01197424558756,0.97217683889836
"658",26,30,2,1,178,2,1,1,4,0.475964297319286,0.496567860957695
"659",26,24,2,1,179,2,2,0,3,0.930357390291468,0.915473822012579
"660",26,32,2,2,180,1,2,1,5,0.243074441205917,0.16917748588273
"661",26,33,2,1,181,2,1,1,3,0.360702837282451,0.324860843257956
"662",26,32,2,1,182,3,1,1,3,0.913825378747698,0.925910319346296
"663",26,35,2,1,183,1,1,1,5,0.47170097918873,0.445066640160224
"664",26,27,2,1,184,1,2,0,3,0.499207441951101,0.509677983978116
"665",26,25,2,1,185,1,1,1,5,0.450409116477519,0.417621399335838
"666",26,32,2,1,186,2,2,0,3,0.708229842523607,0.703268815383411
"667",26,30,2,2,187,2,2,1,4,0.585782011280075,0.603499618462647
"668",26,30,2,2,188,3,2,1,2,0.781274111197533,0.803861613806282
"669",26,24,2,2,189,1,2,1,5,0.572056495343,0.575234220626343
"670",26,32,2,1,190,3,2,0,2,1.01136796250682,1.07949484486506
"671",26,33,2,2,191,1,2,1,5,0.338608701874922,0.313343008090477
"672",26,32,2,1,192,3,1,1,3,0.829811947781825,0.889764357275257
"673",26,35,2,2,193,1,2,1,5,0.481010553232838,0.526485492100181
"674",26,27,2,1,194,3,2,0,2,0.625809614841143,0.590074212855315
"675",26,25,2,1,195,2,1,1,3,0.567937176210503,0.601416284099535
"676",26,32,2,1,196,2,1,1,3,0.715340157235963,0.660551337720164
"677",26,30,2,1,197,3,1,1,3,0.587797457054324,0.58395696221073
"678",26,30,2,1,198,2,2,0,2,0.654571203559904,0.658531741271089
"679",26,24,2,1,199,2,1,1,3,0.595738519694128,0.586270099791101
"680",26,32,2,1,200,1,1,1,4,0.501349780307618,0.557526978650121
"681",26,33,2,1,201,1,1,1,4,0.363209207189183,0.376581858779398
"682",26,32,2,1,202,1,1,1,4,0.521016271071501,0.538903083277035
"683",26,35,2,1,203,3,2,0,1,1.05053252641171,0.985295832437443
"684",26,27,2,1,204,1,1,1,5,0.379443941444031,0.351871774698564
"685",26,25,2,2,205,1,1,0,4,0.69100513290611,0.683531093845949
"686",26,32,2,2,206,1,2,1,5,0.51341433309346,0.474804178741428
"687",26,30,2,1,207,2,2,0,3,0.412092543237604,0.465550109839698
"688",26,30,2,2,208,3,2,1,2,0.580256523616308,0.548379243381642
"689",26,24,2,2,209,2,1,0,3,0.8955214084375,0.886982106996377
"690",26,32,2,2,210,1,2,1,5,0.46866946513782,0.485450554535961
"691",26,33,2,1,211,1,1,1,5,0.435822230718181,0.384558380637166
"692",26,32,2,1,212,3,1,1,2,1.26709597046261,1.37856663769703
"693",26,35,2,2,213,2,2,1,3,0.652066982997073,0.61769289991907
"694",26,27,2,1,214,1,1,1,4,0.501677706112997,0.471837991283159
"695",26,25,2,1,215,1,1,1,4,0.277899143517743,0.351787165626043
"696",26,32,2,2,216,2,2,1,4,0.949353133812621,0.939107215461771
"697",26,30,2,1,217,1,1,1,5,0.465550573894732,0.430007671055657
"698",26,30,2,2,218,2,2,1,3,0.447570463128256,0.412088873465212
"699",26,24,2,2,219,1,2,1,5,0.220775559798465,0.169269926914601
"700",26,32,2,1,220,3,2,0,1,0.913655153905544,1.01533531150442
"701",26,33,2,1,221,2,1,1,3,0.461239461738317,0.483053950709167
"702",26,32,2,1,222,2,1,1,3,0.647001795499687,0.677331509641907
"703",26,35,2,1,223,2,2,0,2,0.705736574355906,0.768958190130309
"704",26,27,2,2,224,1,2,1,4,0.394265382250213,0.347711271112958
"705",26,25,2,1,225,3,1,1,2,0.85059224107062,0.829617961157777
"706",26,32,2,2,226,2,2,1,3,0.822626116026468,0.792460747464237
"707",26,30,2,2,227,2,2,1,4,0.666463681614854,0.663970976816243
"708",26,30,2,1,228,1,1,1,4,0.391976061810795,0.445311240955567
"709",26,24,2,2,229,3,2,1,2,0.966067391414825,1.0938047941796
"710",26,32,2,1,230,2,1,1,3,0.44720268176894,0.366135366099
"711",26,33,2,1,231,3,1,1,3,0.823602265242048,0.765492605133571
"712",26,32,2,2,232,3,2,1,2,0.818815844829024,0.772818801580526
"713",26,35,2,2,233,3,2,1,2,0.965583172994755,0.954231482692022
"714",26,27,2,1,234,2,1,1,4,0.488399131497278,0.49965746635131
"715",26,25,2,2,235,2,2,1,3,0.731511579002178,0.775830864339115
"716",26,32,2,2,236,3,1,0,2,0.659070741670665,0.567893113387305
"717",26,30,2,1,237,2,1,1,3,0.655139918604189,0.678857015181346
"718",26,30,2,2,238,2,2,1,3,0.447862494940819,0.510134590247884
"719",26,24,2,2,239,1,2,1,5,0.336486244768259,0.416338970835268
"720",26,32,2,1,240,3,2,0,2,0.99275614509125,0.959103004426489
"721",25,31,1,2,1,2,2,1,3,0.67805154528474,0.711624653794656
"722",25,26,1,1,2,2,1,1,3,0.383679322290283,0.315455508475476
"723",25,28,1,2,3,1,2,1,5,0.514014256695182,0.442554786039049
"724",25,21,1,1,4,2,1,1,3,0.711955088643423,0.796769443006193
"725",25,26,1,2,5,3,1,0,1,1.15844276984974,1.07667952568262
"726",25,27,1,1,6,1,1,1,5,0.380229223788286,0.394711179331731
"727",25,35,1,1,7,1,1,1,5,0.275163883338054,0.252478951648638
"728",25,29,1,1,8,1,1,1,4,0.492166232629775,0.519439131515032
"729",25,27,1,1,9,2,2,0,2,0.820884492952669,0.799510863468827
"730",25,30,1,1,10,1,1,1,5,0.421557866378046,0.425698154798183
"731",25,31,1,2,11,2,2,1,4,0.430862054716731,0.442907372257997
"732",25,26,1,2,12,2,1,0,3,0.554567169400177,0.537254909803747
"733",25,28,1,1,13,2,2,0,3,0.730742784484471,0.654061852827709
"734",25,21,1,1,14,1,1,1,4,0.406726394894324,0.4528301363779
"735",25,26,1,1,15,3,2,0,1,1.92124978792158,1.95092791212625
"736",25,27,1,2,16,1,1,0,3,0.487349863211348,0.552416512772826
"737",25,35,1,1,17,2,1,1,4,0.701097149428262,0.696538997354488
"738",25,29,1,1,18,2,1,1,4,0.605004680555311,0.556013078342424
"739",25,27,1,2,19,1,2,1,4,0.474018464033637,0.467818746168913
"740",25,30,1,1,20,2,1,1,3,0.562308227922782,0.546448877565318
"741",25,31,1,2,21,1,2,1,4,0.210444414535001,0.236386827878457
"742",25,26,1,2,22,1,2,1,5,0.448676627456429,0.380900829013447
"743",25,28,1,2,23,1,2,1,5,0.476128136854205,0.395773581275444
"744",25,21,1,1,24,2,1,1,3,0.524826654902373,0.507355551861197
"745",25,26,1,1,25,3,2,0,1,1.61221913416179,1.6391298663242
"746",25,27,1,2,26,2,1,0,3,0.828045612467319,0.855245812139426
"747",25,35,1,1,27,3,1,1,3,0.986633065212446,0.989991342978852
"748",25,29,1,2,28,3,2,1,3,0.892466162081646,0.935086969237812
"749",25,27,1,2,29,3,1,0,1,0.690904212754827,0.724228338744472
"750",25,30,1,1,30,2,1,1,4,0.493495063358907,0.383487040305466
"751",25,31,1,2,31,3,2,1,3,1.02590465067875,0.978128814333739
"752",25,26,1,2,32,1,2,1,4,0.297556839624658,0.262213053863107
"753",25,28,1,1,33,3,1,1,2,0.751924308446656,0.80349700022085
"754",25,21,1,2,34,3,1,0,2,1.48467542946604,1.57394871697952
"755",25,26,1,1,35,2,1,1,3,0.662467864976735,0.771582391989772
"756",25,27,1,2,36,3,2,1,2,1.04914249150769,1.05312439324032
"757",25,35,1,2,37,1,2,1,5,0.484809543841334,0.544981389986427
"758",25,29,1,1,38,3,1,1,2,0.72987690242809,0.785620925166249
"759",25,27,1,1,39,3,2,0,1,0.820236612103195,0.824732972887241
"760",25,30,1,1,40,1,1,1,4,0.427273116815416,0.499709064356774
"761",25,31,1,2,41,2,1,0,2,0.84901827957421,0.827548616443934
"762",25,26,1,1,42,2,1,1,4,0.815769810286225,0.798446449773762
"763",25,28,1,2,43,1,2,1,4,0.268660186669823,0.216854673452907
"764",25,21,1,2,44,3,1,0,1,1.0373957952377,1.05891766501619
"765",25,26,1,2,45,1,2,1,5,0.362650272693509,0.406129627266942
"766",25,27,1,1,46,3,2,0,2,0.652645359730803,0.648353554473123
"767",25,35,1,2,47,3,1,0,1,0.789429919129715,0.819747521020572
"768",25,29,1,1,48,2,2,0,2,0.531931011205576,0.53584610032803
"769",25,27,1,1,49,2,1,1,4,0.620935822571754,0.582307460488641
"770",25,30,1,2,50,2,2,1,4,0.494167412415488,0.593785058353029
"771",25,31,1,2,51,3,1,0,1,1.25422848145847,1.26366184602268
"772",25,26,1,1,52,1,1,1,4,0.467105861828716,0.528534792908783
"773",25,28,1,1,53,3,1,1,2,0.892697666689584,0.85247107656544
"774",25,21,1,1,54,1,1,1,5,0.464740210657972,0.451190308043001
"775",25,26,1,1,55,3,2,0,2,1.26300473317268,1.2229005737235
"776",25,27,1,1,56,3,2,0,1,0.927952741342898,0.92333233838959
"777",25,35,1,2,57,2,2,1,3,0.541474688946605,0.566605502309343
"778",25,29,1,1,58,1,1,1,4,0.418134513083979,0.46196675180341
"779",25,27,1,1,59,3,2,0,2,1.23713606331609,1.22423224300759
"780",25,30,1,2,60,3,2,1,3,0.737448524018961,0.744830345723805
"781",25,31,1,1,61,3,1,1,2,0.710309212829576,0.672971886364206
"782",25,26,1,2,62,2,2,1,4,0.547189894003891,0.550295559490292
"783",25,28,1,1,63,2,2,0,3,0.507626348986023,0.588363859312615
"784",25,21,1,1,64,1,1,1,4,0.538790073400698,0.483934615389866
"785",25,26,1,1,65,2,1,1,3,0.398042346155647,0.409640737417104
"786",25,27,1,1,66,1,1,1,4,0.501423238171359,0.497766985222277
"787",25,35,1,1,67,3,2,0,2,0.926977798030949,0.972415901984672
"788",25,29,1,2,68,2,2,1,4,0.522550222516415,0.452906580138855
"789",25,27,1,2,69,3,2,1,2,0.808165056766505,0.782314395789522
"790",25,30,1,1,70,1,1,1,4,0.39446681574444,0.3805761751357
"791",25,31,1,1,71,2,1,1,4,0.77610770380651,0.751842607179982
"792",25,26,1,2,72,1,2,1,4,0.323889641309548,0.325945387002456
"793",25,28,1,1,73,1,2,0,4,0.576104896501543,0.552741756905069
"794",25,21,1,1,74,3,1,1,2,1.24244693837559,1.25838960039052
"795",25,26,1,1,75,3,1,1,2,0.996739634239172,1.09229920648602
"796",25,27,1,2,76,3,1,0,1,1.18091914050442,1.0963348385337
"797",25,35,1,1,77,1,1,1,5,0.369492725596444,0.409943263360509
"798",25,29,1,2,78,2,2,1,4,0.644174790214127,0.601476406235456
"799",25,27,1,1,79,1,1,1,4,0.372159701780923,0.352177446289422
"800",25,30,1,2,80,3,1,0,2,0.717997045576531,0.797270488228965
"801",25,31,1,1,81,3,1,1,3,0.897535809145022,0.757496036501642
"802",25,26,1,2,82,3,1,0,2,1.06148810714347,1.07366177791777
"803",25,28,1,1,83,2,1,1,3,0.578684449510251,0.637027119027773
"804",25,21,1,1,84,1,1,1,5,0.40912617500333,0.459441615245639
"805",25,26,1,2,85,1,2,1,5,0.435406547100882,0.314651347213669
"806",25,27,1,2,86,2,2,1,3,0.527329007871557,0.550179981352295
"807",25,35,1,2,87,2,2,1,4,0.475401571055409,0.408902462743332
"808",25,29,1,1,88,3,2,0,1,0.897032719707736,0.884090876906257
"809",25,27,1,1,89,1,1,1,4,0.486942701225585,0.446694115402076
"810",25,30,1,2,90,1,2,1,4,0.275808017697868,0.323899436545326
"811",25,31,1,2,91,2,2,1,3,0.700922550250969,0.673282436295107
"812",25,26,1,2,92,1,2,1,4,0.509672446123704,0.503206310343626
"813",25,28,1,1,93,1,1,1,4,0.40356992010374,0.355785847803635
"814",25,21,1,2,94,2,2,1,3,0.822820577363644,0.816935301771237
"815",25,26,1,2,95,2,2,1,3,0.559695774293056,0.529774772072448
"816",25,27,1,2,96,2,2,1,3,0.408208371532483,0.390372643417489
"817",25,35,1,1,97,3,1,1,3,0.592514685542784,0.576725923817412
"818",25,29,1,1,98,2,2,0,3,0.922700675581131,0.938718004820606
"819",25,27,1,2,99,1,2,1,5,0.254588299072052,0.27940328936516
"820",25,30,1,2,100,2,2,1,4,0.518745579043453,0.580034967916479
"821",25,31,1,2,101,3,2,1,3,0.494475766742269,0.56590759935202
"822",25,26,1,2,102,2,2,1,3,0.70163052679514,0.745416494356352
"823",25,28,1,2,103,3,1,0,2,0.949901495971569,0.99037856850522
"824",25,21,1,2,104,2,2,1,3,0.348930677196049,0.35453996345337
"825",25,26,1,2,105,1,1,0,3,0.557411634630831,0.473639670178577
"826",25,27,1,2,106,2,1,0,2,0.79589542815878,0.83792027997852
"827",25,35,1,2,107,3,1,0,1,1.18159932042202,1.20480569637446
"828",25,29,1,2,108,3,2,1,2,1.07096529141466,1.06306853526817
"829",25,27,1,2,109,1,1,0,4,0.593491050957185,0.503761026835584
"830",25,30,1,2,110,1,1,0,3,0.489452515649142,0.448982476583485
"831",25,31,1,1,111,3,1,1,2,1.11616686305667,1.19803143184467
"832",25,26,1,2,112,2,2,1,4,0.657016486178227,0.680802126894566
"833",25,28,1,1,113,1,1,1,4,0.441092332817738,0.369711653125778
"834",25,21,1,1,114,1,2,0,3,0.515667675202262,0.415196529698772
"835",25,26,1,1,115,2,2,0,2,0.77185843356328,0.850162519425746
"836",25,27,1,1,116,3,1,1,3,0.716449663193091,0.661297729644024
"837",25,35,1,1,117,3,1,1,3,0.701254016494804,0.622631745264687
"838",25,29,1,1,118,1,1,1,5,0.480157108730148,0.536414044177745
"839",25,27,1,2,119,3,2,1,2,0.931401324033934,0.89869666883693
"840",25,30,1,2,120,1,2,1,4,0.525506479020399,0.459120726957295
"841",25,31,1,2,121,2,2,1,4,0.535972567714917,0.530658717945714
"842",25,26,1,2,122,2,1,0,3,0.684666014408054,0.723175178355696
"843",25,28,1,2,123,2,2,1,4,0.640941571976295,0.609850063233773
"844",25,21,1,1,124,2,2,0,3,0.697043628135338,0.729986700635883
"845",25,26,1,2,125,1,2,1,4,0.300265389407376,0.225915035246468
"846",25,27,1,2,126,3,2,1,2,0.990796382751742,0.990997433136409
"847",25,35,1,2,127,3,1,0,1,1.17277912951791,1.1565343874458
"848",25,29,1,1,128,1,1,1,5,0.464526973476712,0.414312229305207
"849",25,27,1,1,129,3,1,1,3,1.14392384712861,1.15983834715458
"850",25,30,1,2,130,1,2,1,4,0.365284183763973,0.343550493085779
"851",25,31,1,2,131,2,1,0,3,0.780892896617206,0.743914044580374
"852",25,26,1,1,132,3,1,1,2,1.09128210232493,1.08648184880399
"853",25,28,1,2,133,1,2,1,4,0.312661587495194,0.252122594016607
"854",25,21,1,1,134,3,1,1,2,1.00618432432695,1.00242240913908
"855",25,26,1,1,135,2,1,1,4,0.848233724147461,0.852813054659
"856",25,27,1,1,136,2,1,1,4,0.616485338119067,0.546813489313067
"857",25,35,1,1,137,3,1,1,3,1.12395441999558,1.1213734035022
"858",25,29,1,1,138,3,1,1,3,0.268913938338068,0.371977849085656
"859",25,27,1,1,139,1,1,1,5,0.458589156441307,0.463154933319849
"860",25,30,1,2,140,1,2,1,5,0.37778209295879,0.349109579649879
"861",25,31,1,1,141,1,1,1,5,0.462627429575352,0.423355572582621
"862",25,26,1,2,142,3,2,1,2,0.721340852726712,0.698689220093045
"863",25,28,1,2,143,1,2,1,4,0.549024948888398,0.536434072407439
"864",25,21,1,2,144,1,2,1,4,0.426901594431658,0.472952758200028
"865",25,26,1,2,145,3,2,1,2,1.02466211856069,0.985890729259215
"866",25,27,1,2,146,3,2,1,2,0.842510593264342,0.800879373197739
"867",25,35,1,2,147,1,2,1,5,0.366799207877264,0.450793877795188
"868",25,29,1,2,148,1,1,0,4,0.610854283851738,0.598632042538835
"869",25,27,1,2,149,3,1,0,2,1.27051463544969,1.28758382705392
"870",25,30,1,2,150,2,1,0,2,0.928998668249975,1.00029130890997
"871",25,31,1,1,151,1,1,1,5,0.348903048174305,0.473046844966447
"872",25,26,1,2,152,2,2,1,3,0.605789460235423,0.575112448016502
"873",25,28,1,1,153,2,1,1,4,0.605306362727094,0.585804926307637
"874",25,21,1,1,154,2,1,1,4,0.634578853436371,0.683323511789957
"875",25,26,1,2,155,2,2,1,4,0.579526141494763,0.603987369210909
"876",25,27,1,1,156,1,1,1,4,0.326409063872899,0.401103228714394
"877",25,35,1,2,157,1,2,1,5,0.381024555783372,0.378834669056974
"878",25,29,1,2,158,2,1,0,2,0.861864894923682,0.830505890745461
"879",25,27,1,1,159,1,1,1,5,0.359160287005183,0.514084576347291
"880",25,30,1,1,160,2,1,1,3,0.691149864979052,0.700645313052981
"881",25,31,1,2,161,3,1,0,2,1.48177384251248,1.57825830690946
"882",25,26,1,1,162,2,1,1,3,0.466499814912217,0.39717817376238
"883",25,28,1,1,163,1,2,0,3,0.527743122296506,0.551968981293797
"884",25,21,1,1,164,3,2,0,1,1.11105718425735,1.16453310894064
"885",25,26,1,1,165,3,2,0,2,1.002123055807,1.05061773986009
"886",25,27,1,2,166,3,2,1,2,0.756537403911586,0.712119639164534
"887",25,35,1,1,167,2,2,0,2,0.640971056590693,0.607165287520296
"888",25,29,1,2,168,3,2,1,2,0.587950291314487,0.609196056224349
"889",25,27,1,2,169,2,1,0,2,0.853926303971535,0.858186749430789
"890",25,30,1,2,170,1,1,0,3,0.478658246372911,0.442421919274801
"891",25,31,1,2,171,2,2,1,4,0.689283349943206,0.740066456479578
"892",25,26,1,1,172,3,1,1,3,1.01056249380987,0.973002985451708
"893",25,28,1,1,173,1,1,1,5,0.303535535686358,0.308272177682859
"894",25,21,1,2,174,3,2,1,2,0.929957856058007,0.886234121308986
"895",25,26,1,1,175,1,1,1,4,0.397182128443358,0.439022095039593
"896",25,27,1,1,176,3,1,1,2,0.651356379920326,0.659907784754106
"897",25,35,1,2,177,3,2,1,3,0.582962082200979,0.522294314851772
"898",25,29,1,2,178,2,1,0,2,0.57835635412662,0.551578778496862
"899",25,27,1,2,179,1,2,1,5,0.429507842165664,0.475592941649888
"900",25,30,1,1,180,2,2,0,3,0.744037300543219,0.697921587620625
"901",25,31,1,2,181,3,1,0,2,1.48070887892728,1.43013277725634
"902",25,26,1,1,182,3,1,1,2,0.775010815858805,0.818995037161316
"903",25,28,1,2,183,1,2,1,4,0.455460544094849,0.514533806054635
"904",25,21,1,1,184,3,1,1,3,0.707980257926956,0.730463709651737
"905",25,26,1,2,185,2,2,1,4,0.436482469566404,0.464040531867371
"906",25,27,1,2,186,2,2,1,4,0.482481906536181,0.477494826757255
"907",25,35,1,1,187,3,1,1,2,0.919337227547558,0.936912589613175
"908",25,29,1,1,188,3,2,0,1,0.587253057298664,0.610214130649293
"909",25,27,1,2,189,1,1,0,3,0.645426176872471,0.67664759058749
"910",25,30,1,2,190,3,2,1,2,1.18635450563946,1.27622489066033
"911",25,31,1,1,191,1,1,1,5,0.438193258179979,0.416001282022276
"912",25,26,1,2,192,2,1,0,3,0.650250260587904,0.680718131982942
"913",25,28,1,1,193,3,1,1,2,0.491546764134334,0.529032354006948
"914",25,21,1,1,194,1,1,1,5,0.29519571619716,0.220196746604917
"915",25,26,1,2,195,1,2,1,5,0.458318715317918,0.475649451747432
"916",25,27,1,1,196,3,2,0,2,0.64083470713556,0.642363149985715
"917",25,35,1,1,197,2,1,1,3,0.485240579420292,0.50863565923302
"918",25,29,1,2,198,2,2,1,3,0.699156902873091,0.727362856865952
"919",25,27,1,1,199,1,1,1,5,0.479534742021014,0.470399159030734
"920",25,30,1,2,200,3,1,0,1,0.824836959962666,0.880994335275832
"921",25,31,1,1,201,3,1,1,2,0.859438130169703,0.968073839496994
"922",25,26,1,2,202,3,2,1,3,0.720445144717864,0.750971548713215
"923",25,28,1,1,203,1,1,1,5,0.357486424295334,0.409494202800494
"924",25,21,1,1,204,1,1,1,4,0.470947086036055,0.531818919445837
"925",25,26,1,2,205,3,2,1,3,0.824765905747808,0.83385459681089
"926",25,27,1,2,206,2,1,0,2,0.92648650517807,0.901977769405176
"927",25,35,1,1,207,3,1,1,3,1.10359831176444,1.09294013121066
"928",25,29,1,2,208,2,2,1,4,0.60308798217008,0.573145978632312
"929",25,27,1,2,209,3,2,1,2,0.852454970235792,0.883172961604275
"930",25,30,1,1,210,1,1,1,5,0.566837871390213,0.620988529153858
"931",25,31,1,2,211,1,2,1,5,0.489869551327989,0.461288001763297
"932",25,26,1,2,212,2,1,0,3,0.822967699216446,0.840063571842649
"933",25,28,1,2,213,3,2,1,2,0.56949123880513,0.55562033375237
"934",25,21,1,1,214,2,2,0,2,0.714084004632914,0.703257623048332
"935",25,26,1,1,215,1,1,1,4,0.430081840420867,0.404199213888234
"936",25,27,1,1,216,2,1,1,4,0.501979560305004,0.423769654019978
"937",25,35,1,1,217,1,1,1,5,0.465565097554482,0.497386250082524
"938",25,29,1,1,218,2,1,1,3,0.452660664429632,0.409148636160041
"939",25,27,1,1,219,2,2,0,2,0.886735200285116,0.963268028684339
"940",25,30,1,1,220,1,2,0,4,0.689280666847143,0.603782329063674
"941",25,31,1,1,221,3,2,0,1,0.287271964787634,0.251393028062598
"942",25,26,1,1,222,2,1,1,3,0.620239574374462,0.502655263695875
"943",25,28,1,1,223,1,2,0,4,0.620304370096945,0.646847108069333
"944",25,21,1,1,224,3,2,0,2,1.18882134641984,1.11763701699003
"945",25,26,1,1,225,2,2,0,3,0.706439077719364,0.711228227659549
"946",25,27,1,1,226,2,1,1,4,0.831882257270084,0.896908179893136
"947",25,35,1,2,227,1,2,1,4,0.32020899685152,0.243104617030345
"948",25,29,1,1,228,2,2,0,2,0.629965051236546,0.60779558965649
"949",25,27,1,1,229,2,2,0,3,0.555513808026035,0.639615859334103
"950",25,30,1,2,230,2,2,1,4,0.475829911094988,0.473158198112825
"951",25,31,1,2,231,1,2,1,4,0.380964820090329,0.381185716506439
"952",25,26,1,1,232,3,2,0,1,1.46026516413424,1.39585796142498
"953",25,28,1,2,233,3,1,0,2,1.55581659865787,1.54838886510167
"954",25,21,1,1,234,1,1,1,4,0.447701247981902,0.481127446214778
"955",25,26,1,2,235,1,2,1,5,0.402050438910493,0.439355232869367
"956",25,27,1,2,236,2,2,1,4,0.573114499498493,0.577140884419123
"957",25,35,1,2,237,2,2,1,3,0.530334791109074,0.48888745349702
"958",25,29,1,2,238,1,2,1,4,0.34302279178365,0.323762662844703
"959",25,27,1,2,239,1,2,1,5,0.467808294010816,0.413866498824538
"960",25,30,1,2,240,3,2,1,3,0.872528161075346,0.841275847666084
"961",24,35,2,2,1,3,2,1,3,0.958276133201179,1.02691340268305
"962",24,19,2,1,2,1,2,0,3,0.488198710740249,0.464633136168439
"963",24,31,2,1,3,3,1,1,2,0.514728305360232,0.504621834995294
"964",24,37,2,2,4,1,2,1,5,0.407667181405587,0.403241608973869
"965",24,26,2,1,5,1,1,1,4,0.414818899957519,0.386016230301218
"966",24,29,2,1,6,2,1,1,3,0.729353572439048,0.807430976495917
"967",24,29,2,2,7,2,2,1,3,0.553767316439423,0.509370940991831
"968",24,21,2,2,8,1,2,1,4,0.336144863794399,0.392082163066872
"969",24,27,2,1,9,3,1,1,3,0.791080119508274,0.788765914356179
"970",24,18,2,1,10,3,2,0,2,1.06748300919567,1.16779526516878
"971",24,35,2,1,11,3,2,0,1,1.5901727965242,1.6777932464556
"972",24,19,2,2,12,2,2,1,3,0.759178515992319,0.750145991652302
"973",24,31,2,2,13,1,2,1,4,0.363812771495956,0.274110547158077
"974",24,37,2,2,14,1,1,0,3,0.560436733338382,0.483283727757429
"975",24,26,2,2,15,2,1,0,2,0.711210949487094,0.642048421427802
"976",24,29,2,2,16,3,2,1,2,0.713601366089005,0.665208282752241
"977",24,29,2,2,17,3,1,0,2,1.34000944472361,1.28056193294601
"978",24,21,2,1,18,3,2,0,2,0.588598414882229,0.580350463111105
"979",24,27,2,2,19,1,2,1,5,0.448591924872706,0.43735964639237
"980",24,18,2,1,20,2,2,0,3,0.672851410294554,0.719662395521044
"981",24,35,2,1,21,2,2,0,2,0.829508760452288,0.818391326437367
"982",24,19,2,1,22,3,2,0,1,0.98236962442517,1.00170728435939
"983",24,31,2,1,23,3,1,1,2,0.545428466406285,0.522966106374845
"984",24,37,2,2,24,1,2,1,5,0.348335291767228,0.43874398809096
"985",24,26,2,2,25,1,2,1,5,0.446865492579081,0.432397899088711
"986",24,29,2,1,26,2,1,1,3,0.642446802313359,0.61425333661475
"987",24,29,2,1,27,3,2,0,2,1.64132860933973,1.58536997856126
"988",24,21,2,2,28,2,1,0,2,0.855803671662049,0.842168948825265
"989",24,27,2,2,29,2,2,1,3,0.803517142593732,0.896797259508732
"990",24,18,2,1,30,1,1,1,5,0.44917804327806,0.415249293472097
"991",24,35,2,1,31,3,1,1,3,0.365980692213544,0.425337234575143
"992",24,19,2,1,32,3,1,1,2,0.926945552096229,0.940782789742779
"993",24,31,2,2,33,1,2,1,4,0.408683976311549,0.449244870157429
"994",24,37,2,1,34,3,2,0,1,0.712756093293213,0.700081988221183
"995",24,26,2,2,35,1,2,1,4,0.321537328324045,0.2921231672653
"996",24,29,2,1,36,2,1,1,4,0.512751234379294,0.484728667701809
"997",24,29,2,1,37,1,1,1,5,0.403649160565428,0.518721499515712
"998",24,21,2,2,38,2,2,1,4,0.420257080102043,0.435907698175539
"999",24,27,2,2,39,1,2,1,5,0.435681140462703,0.485513157312485
"1000",24,18,2,2,40,2,2,1,4,0.526783932633223,0.508101089773302
"1001",24,35,2,1,41,1,1,1,5,0.450505024697492,0.410327415337564
"1002",24,19,2,2,42,1,2,1,4,0.261064413958543,0.319304793425084
"1003",24,31,2,2,43,2,1,0,3,0.733279146007851,0.69035031543003
"1004",24,37,2,1,44,1,2,0,4,0.499241390835475,0.473160249235062
"1005",24,26,2,2,45,3,2,1,2,0.921380939824698,0.926919207413539
"1006",24,29,2,1,46,3,1,1,3,0.531758958681774,0.501887368920283
"1007",24,29,2,1,47,3,2,0,2,0.382737621584257,0.321984101295418
"1008",24,21,2,1,48,1,1,1,4,0.260635057358052,0.188086459670204
"1009",24,27,2,1,49,3,2,0,1,0.82788419347674,0.866140462545207
"1010",24,18,2,2,50,2,1,0,2,0.504672295391817,0.464027282224314
"1011",24,35,2,1,51,3,1,1,2,1.04768076036531,1.10793137352747
"1012",24,19,2,2,52,1,2,1,5,0.425264651108038,0.369290658538313
"1013",24,31,2,2,53,2,1,0,2,0.638291683431518,0.590154208742894
"1014",24,37,2,2,54,1,2,1,4,0.40821697025612,0.378307831432649
"1015",24,26,2,2,55,2,1,0,2,0.791352846356739,0.799949523230971
"1016",24,29,2,1,56,3,1,1,3,0.954442367099691,0.969825831895375
"1017",24,29,2,1,57,1,2,0,3,0.425181337978963,0.408161707357439
"1018",24,21,2,1,58,1,1,1,4,0.409552995189006,0.396942340951723
"1019",24,27,2,1,59,2,1,1,3,0.441725526330564,0.417566080480167
"1020",24,18,2,1,60,3,2,0,2,0.384229925880944,0.340796250873589
"1021",24,35,2,2,61,3,1,0,1,1.22747123794057,1.28751039610895
"1022",24,19,2,1,62,3,1,1,3,1.27451226592245,1.23005911741911
"1023",24,31,2,1,63,2,1,1,4,0.66114812111072,0.732432032980098
"1024",24,37,2,2,64,1,2,1,4,0.388803333847535,0.374291327054586
"1025",24,26,2,2,65,1,2,1,4,0.360669152550665,0.35519958306544
"1026",24,29,2,2,66,1,2,1,5,0.373192995370357,0.379692716313989
"1027",24,29,2,2,67,1,1,0,3,0.572943700675576,0.637090731608046
"1028",24,21,2,1,68,1,1,1,4,0.449410508345964,0.398944942630101
"1029",24,27,2,1,69,3,1,1,3,0.730849231810496,0.766867799025006
"1030",24,18,2,2,70,3,2,1,2,0.693686000979097,0.830008729096181
"1031",24,35,2,1,71,2,2,0,3,0.724150503746356,0.735695676048301
"1032",24,19,2,1,72,2,1,1,4,0.654451196782753,0.680668504912697
"1033",24,31,2,2,73,1,2,1,5,0.430689534185605,0.359945507009979
"1034",24,37,2,2,74,3,2,1,2,0.95964505695222,0.927575429283402
"1035",24,26,2,1,75,3,1,1,2,0.94662926581329,0.951217848550524
"1036",24,29,2,1,76,2,2,0,2,0.388828418025859,0.384574002440081
"1037",24,29,2,2,77,2,2,1,3,0.87023604499299,0.894349405804496
"1038",24,21,2,1,78,1,1,1,5,0.413027535418333,0.418934905259357
"1039",24,27,2,1,79,1,1,1,4,0.427542020354029,0.429066986297092
"1040",24,18,2,1,80,3,1,1,3,0.758753743982896,0.701313884026957
"1041",24,35,2,2,81,2,2,1,3,0.829019353104957,0.790161969500426
"1042",24,19,2,1,82,3,1,1,3,1.0501615922033,1.05318220504229
"1043",24,31,2,2,83,3,2,1,3,1.183504600583,1.1288862443378
"1044",24,37,2,1,84,2,2,0,2,0.457218759610208,0.428190218510265
"1045",24,26,2,1,85,3,1,1,2,0.701952018880335,0.774188355806463
"1046",24,29,2,1,86,1,1,1,4,0.466706442543658,0.515518957875322
"1047",24,29,2,2,87,2,2,1,3,0.700972831234425,0.698464211052192
"1048",24,21,2,2,88,2,2,1,3,0.552908005151073,0.529535670253619
"1049",24,27,2,2,89,1,2,1,4,0.393057531070867,0.432827388957617
"1050",24,18,2,1,90,2,2,0,2,0.535531508603414,0.501159423796862
"1051",24,35,2,2,91,1,2,1,4,0.358910688879797,0.38609061939764
"1052",24,19,2,2,92,1,2,1,4,0.528563064447155,0.553395782353556
"1053",24,31,2,2,93,3,1,0,1,1.20830982699058,1.23419499864414
"1054",24,37,2,2,94,1,2,1,4,0.440653908142,0.360974786939437
"1055",24,26,2,1,95,1,1,1,4,0.397321303641628,0.284299332347195
"1056",24,29,2,2,96,3,1,0,2,1.19534114792412,1.24832911961436
"1057",24,29,2,1,97,3,1,1,2,0.979821237756924,0.853608521937101
"1058",24,21,2,1,98,1,1,1,4,0.364212730087787,0.42607801823564
"1059",24,27,2,2,99,1,1,0,3,0.554184734214856,0.574062260474255
"1060",24,18,2,2,100,2,2,1,3,0.387067254196896,0.376760557507729
"1061",24,35,2,2,101,3,2,1,2,0.576256037490362,0.516668757928393
"1062",24,19,2,2,102,2,1,0,3,0.91198228883753,0.94194750977516
"1063",24,31,2,2,103,3,2,1,2,0.637673853637645,0.58690040341136
"1064",24,37,2,2,104,2,1,0,2,0.714146509136133,0.713196780250332
"1065",24,26,2,2,105,1,2,1,4,0.352023514855545,0.330745863929336
"1066",24,29,2,2,106,3,1,0,2,0.804171725698226,0.885602449408507
"1067",24,29,2,2,107,2,2,1,3,0.493445451149265,0.571467245892008
"1068",24,21,2,2,108,3,1,0,2,0.597390904577822,0.5270138661633
"1069",24,27,2,1,109,2,2,0,2,0.806573735652791,0.807101111613729
"1070",24,18,2,2,110,1,2,1,4,0.314384492257463,0.258947947615237
"1071",24,35,2,2,111,3,2,1,2,0.936609109830183,0.99568754161035
"1072",24,19,2,1,112,1,1,1,4,0.599345955383635,0.656026044117922
"1073",24,31,2,2,113,1,2,1,4,0.501226662878477,0.570168529386527
"1074",24,37,2,2,114,3,1,0,2,0.811846120706649,0.902490276670278
"1075",24,26,2,2,115,2,1,0,2,0.645292523764508,0.714373713990583
"1076",24,29,2,1,116,1,2,0,3,0.561541115247963,0.633356964924255
"1077",24,29,2,1,117,2,2,0,2,0.624731732382831,0.618076514383909
"1078",24,21,2,1,118,2,1,1,4,0.401187641885226,0.323342215122747
"1079",24,27,2,1,119,3,2,0,1,1.08508911057105,1.01809806016455
"1080",24,18,2,2,120,3,1,0,1,0.58923875013878,0.600341530191149
"1081",24,35,2,2,121,3,1,0,1,0.873999396853663,0.844533526158715
"1082",24,19,2,1,122,2,2,0,3,0.894198950138154,0.814910093846801
"1083",24,31,2,1,123,1,1,1,4,0.344307093984743,0.293022789468366
"1084",24,37,2,1,124,1,1,1,5,0.28595149141892,0.296457252876646
"1085",24,26,2,2,125,3,1,0,1,1.0426692563468,1.03166691765843
"1086",24,29,2,2,126,2,2,1,4,0.418864255934788,0.451653869057942
"1087",24,29,2,2,127,3,2,1,2,1.16014936996638,1.24185919669005
"1088",24,21,2,1,128,3,2,0,1,1.29994707472654,1.32540400436053
"1089",24,27,2,2,129,3,2,1,2,0.779171729255797,0.723150498118199
"1090",24,18,2,1,130,2,1,1,3,0.557785924280651,0.540969071090108
"1091",24,35,2,2,131,3,2,1,3,0.947984041355437,0.895905424906249
"1092",24,19,2,1,132,2,1,1,4,0.635690020867472,0.64219513798103
"1093",24,31,2,2,133,3,2,1,3,0.665305501342542,0.715358211928987
"1094",24,37,2,1,134,1,1,1,5,0.395201370648371,0.41859119953846
"1095",24,26,2,1,135,2,1,1,4,0.624769140398397,0.560657808144925
"1096",24,29,2,1,136,2,2,0,3,0.695223357319822,0.732812032169569
"1097",24,29,2,2,137,1,2,1,4,0.509730677951313,0.51859862419963
"1098",24,21,2,1,138,3,1,1,2,0.941295073577213,0.883787206042554
"1099",24,27,2,1,139,1,1,1,5,0.349907825125265,0.354387028701081
"1100",24,18,2,1,140,2,2,0,2,0.604411449690747,0.59994518148666
"1101",24,35,2,1,141,1,1,1,5,0.375799881612456,0.342809756760789
"1102",24,19,2,2,142,3,2,1,2,0.649433077025951,0.713753558824106
"1103",24,31,2,2,143,1,2,1,5,0.330994051639018,0.387414091819921
"1104",24,37,2,2,144,1,2,1,5,0.343788145211712,0.329123023276811
"1105",24,26,2,2,145,2,1,0,2,0.704685857245631,0.722037081769266
"1106",24,29,2,2,146,2,1,0,2,0.940401535885493,0.911082900933366
"1107",24,29,2,1,147,1,2,0,4,0.529642489255351,0.585058254691906
"1108",24,21,2,1,148,1,1,1,4,0.384094183549743,0.363041980430331
"1109",24,27,2,1,149,3,2,0,1,1.60910779628698,1.49874131816
"1110",24,18,2,2,150,2,2,1,3,0.651122607486751,0.591971749820481
"1111",24,35,2,1,151,2,1,1,3,0.644090246406888,0.626197442986563
"1112",24,19,2,1,152,2,1,1,3,0.531455596035966,0.618902144936638
"1113",24,31,2,1,153,2,1,1,3,0.575695932976462,0.616412713770304
"1114",24,37,2,1,154,3,1,1,3,0.635785152753296,0.625462561865619
"1115",24,26,2,1,155,3,2,0,1,0.647538204112147,0.711632160022655
"1116",24,29,2,1,156,1,1,1,4,0.379126399379507,0.39625443293799
"1117",24,29,2,1,157,3,1,1,2,0.875110565615532,0.94060710602381
"1118",24,21,2,1,158,2,2,0,3,1.08917230363809,1.10184765047207
"1119",24,27,2,2,159,2,1,0,3,0.906193565935412,0.908250622907726
"1120",24,18,2,1,160,2,1,1,4,0.504832575492227,0.529067985883227
"1121",24,35,2,2,161,1,2,1,4,0.405353377044687,0.45669535871901
"1122",24,19,2,2,162,2,1,0,3,0.654977714222119,0.612589025097994
"1123",24,31,2,1,163,2,2,0,2,0.738206827017693,0.758730739355281
"1124",24,37,2,1,164,2,2,0,3,0.561583287710309,0.583310657912779
"1125",24,26,2,2,165,3,1,0,1,1.17942400041781,1.28287886115199
"1126",24,29,2,1,166,2,1,1,3,0.620507962748351,0.586611799065826
"1127",24,29,2,1,167,1,2,0,4,0.825997044052188,0.866427813553141
"1128",24,21,2,1,168,3,1,1,3,0.812757301007913,0.748678220607723
"1129",24,27,2,2,169,2,2,1,4,0.449941553496156,0.443295675587379
"1130",24,18,2,2,170,2,2,1,3,0.575052094771547,0.488628210155724
"1131",24,35,2,1,171,1,2,0,4,0.469728265167588,0.511693680276103
"1132",24,19,2,1,172,3,1,1,2,0.977000459853064,1.00195724230471
"1133",24,31,2,1,173,2,1,1,4,0.52596376402281,0.496054255685057
"1134",24,37,2,2,174,1,2,1,5,0.418314995803489,0.415471893667548
"1135",24,26,2,1,175,1,2,0,3,0.480945199681669,0.395549314839083
"1136",24,29,2,2,176,1,2,1,4,0.458966246733166,0.391484973770145
"1137",24,29,2,2,177,1,2,1,4,0.352753251236594,0.360771707671339
"1138",24,21,2,2,178,3,1,0,2,0.490195478286639,0.470853458744851
"1139",24,27,2,2,179,1,2,1,5,0.429396182832813,0.480817600638659
"1140",24,18,2,2,180,1,2,1,5,0.365625046646851,0.291701541419117
"1141",24,35,2,2,181,3,1,0,1,0.606660195783547,0.650310030173792
"1142",24,19,2,1,182,3,2,0,1,1.02219756379808,1.00156418945474
"1143",24,31,2,2,183,1,2,1,5,0.444289637306622,0.481288216109519
"1144",24,37,2,1,184,3,2,0,2,1.11806977727774,1.23628487224304
"1145",24,26,2,2,185,2,2,1,4,0.612445521891924,0.714535109556654
"1146",24,29,2,1,186,1,1,1,4,0.422857591080747,0.322562301266489
"1147",24,29,2,1,187,3,2,0,1,1.27457271027532,1.30039477351285
"1148",24,21,2,2,188,2,1,0,2,0.541853971893687,0.571380933850727
"1149",24,27,2,1,189,2,2,0,2,0.634716607204967,0.619930615936833
"1150",24,18,2,2,190,2,2,1,3,0.609018765607019,0.507139457269414
"1151",24,35,2,2,191,2,2,1,3,0.727384329498161,0.76451847464507
"1152",24,19,2,1,192,1,1,1,4,0.401645613493381,0.453354987129307
"1153",24,31,2,2,193,2,2,1,3,0.582264486126301,0.52868094590606
"1154",24,37,2,2,194,1,1,0,4,0.526934890951227,0.577008944290282
"1155",24,26,2,1,195,3,1,1,2,0.356532202625648,0.402456288558885
"1156",24,29,2,1,196,1,1,1,5,0.457202996169877,0.467849559937904
"1157",24,29,2,1,197,1,2,0,3,0.564440576400317,0.61526089529605
"1158",24,21,2,1,198,2,1,1,3,0.587390867229343,0.550794389860683
"1159",24,27,2,2,199,3,2,1,2,0.949289914164812,0.971555408795831
"1160",24,18,2,2,200,3,1,0,2,0.906475636464138,0.855829572342483
"1161",24,35,2,2,201,2,1,0,2,0.679192609454889,0.767293260739653
"1162",24,19,2,2,202,3,1,0,2,1.41850044048814,1.40814015993467
"1163",24,31,2,2,203,3,1,0,2,1.02297561997402,1.00653133577431
"1164",24,37,2,2,204,3,1,0,1,0.512784103142503,0.511418492871793
"1165",24,26,2,1,205,3,1,1,2,1.14822827217921,1.09814546765199
"1166",24,29,2,1,206,1,1,1,5,0.308906483094699,0.405297383180972
"1167",24,29,2,1,207,2,1,1,4,0.657556997279488,0.639389558743546
"1168",24,21,2,2,208,1,2,1,4,0.353799048890216,0.355686821261578
"1169",24,27,2,1,209,1,1,1,4,0.388909128522771,0.368386421978434
"1170",24,18,2,1,210,1,2,0,4,0.470620912530338,0.518929220595483
"1171",24,35,2,2,211,3,1,0,1,0.824282645113854,0.930350310228144
"1172",24,19,2,2,212,2,1,0,3,0.397595277143439,0.379214842207597
"1173",24,31,2,1,213,1,2,0,3,0.455263373521754,0.477684705868893
"1174",24,37,2,2,214,2,1,0,2,1.01314877195441,0.991015354623666
"1175",24,26,2,2,215,2,2,1,4,0.680894638242921,0.682980059692798
"1176",24,29,2,1,216,2,2,0,3,0.621102553135012,0.588478956764953
"1177",24,29,2,1,217,3,2,0,2,1.07282778682224,1.17790147983501
"1178",24,21,2,1,218,2,1,1,4,0.5583472838111,0.540915404983596
"1179",24,27,2,2,219,3,2,1,3,0.940161099735192,0.929316589102142
"1180",24,18,2,2,220,3,1,0,1,0.630668517097199,0.592760778654298
"1181",24,35,2,2,221,1,1,0,3,0.555243497355975,0.567940764354637
"1182",24,19,2,1,222,1,2,0,3,0.475124729326247,0.44440847606395
"1183",24,31,2,2,223,1,2,1,4,0.33119468599517,0.367400957200661
"1184",24,37,2,2,224,2,1,0,3,0.531681129903853,0.616857060875396
"1185",24,26,2,2,225,2,1,0,2,0.764206106047849,0.764895205601444
"1186",24,29,2,1,226,3,2,0,1,1.40382154079159,1.41974398446994
"1187",24,29,2,2,227,1,2,1,4,0.354291308773893,0.353955894713981
"1188",24,21,2,1,228,2,1,1,4,0.881403851234532,0.831057336743556
"1189",24,27,2,2,229,2,2,1,3,0.598706118508051,0.582947207475245
"1190",24,18,2,1,230,2,1,1,3,0.628459183104399,0.650594637298496
"1191",24,35,2,2,231,3,2,1,2,0.80545595089089,0.846775987747508
"1192",24,19,2,1,232,2,2,0,3,0.371379676864896,0.434115090257761
"1193",24,31,2,1,233,3,1,1,3,0.600481462660886,0.636458337950914
"1194",24,37,2,2,234,2,2,1,3,0.768523016413156,0.775997057108797
"1195",24,26,2,2,235,3,2,1,2,0.915288583379386,0.796313349106283
"1196",24,29,2,2,236,1,2,1,4,0.440788067758968,0.376498401455876
"1197",24,29,2,1,237,1,1,1,5,0.408438261435643,0.392994212299736
"1198",24,21,2,1,238,3,2,0,2,0.712586432507679,0.671055736549032
"1199",24,27,2,1,239,3,1,1,2,0.74365329648909,0.805965478212654
"1200",24,18,2,1,240,2,2,0,2,0.49922633126452,0.43849952412528
"1201",23,32,1,2,1,1,1,0,3,0.609397121867317,0.711024182387038
"1202",23,18,1,1,2,1,1,1,5,0.403307123412471,0.386952724407756
"1203",23,39,1,2,3,3,1,0,2,1.13493109315224,1.1065761447016
"1204",23,25,1,2,4,3,1,0,1,0.832538134338265,0.859734885806064
"1205",23,25,1,1,5,2,1,1,4,0.560808193405609,0.602870744942694
"1206",23,37,1,1,6,3,1,1,3,0.668914714106144,0.591239675402403
"1207",23,33,1,2,7,1,2,1,4,0.381894213428192,0.443577079201171
"1208",23,19,1,1,8,2,1,1,4,0.674818548053177,0.563532298975041
"1209",23,19,1,2,9,2,2,1,3,0.623478508797501,0.624421759260106
"1210",23,25,1,2,10,3,1,0,1,0.950175695193688,0.960405462383419
"1211",23,32,1,1,11,3,2,0,1,1.42681322903816,1.49523937000082
"1212",23,18,1,2,12,2,1,0,3,0.833977494872017,0.877182461064239
"1213",23,39,1,2,13,3,1,0,2,0.696557676891385,0.731212620145866
"1214",23,25,1,2,14,3,1,0,1,0.741526982733391,0.72460176102999
"1215",23,25,1,2,15,1,1,0,4,0.380895395354307,0.342610799782295
"1216",23,37,1,1,16,1,1,1,4,0.325755141578916,0.364680406945987
"1217",23,33,1,1,17,3,1,1,3,0.876042771242136,0.840001847907317
"1218",23,19,1,1,18,3,2,0,1,1.64550532451718,1.65180185787715
"1219",23,19,1,1,19,1,2,0,3,0.558898219111513,0.608928807629401
"1220",23,25,1,1,20,1,1,1,4,0.495577471812511,0.503650441316138
"1221",23,32,1,1,21,2,2,0,2,0.69247877726721,0.695172719083165
"1222",23,18,1,2,22,1,2,1,4,0.460164994174161,0.462086472629172
"1223",23,39,1,2,23,2,1,0,2,1.13148108108242,1.13535284465244
"1224",23,25,1,1,24,1,2,0,4,0.446451299659337,0.403325495720507
"1225",23,25,1,2,25,2,2,1,4,0.512171051534236,0.581530287895906
"1226",23,37,1,2,26,2,1,0,2,0.762372107059159,0.788291508513283
"1227",23,33,1,1,27,1,1,1,4,0.423909052655664,0.45092489903843
"1228",23,19,1,1,28,2,1,1,3,0.438690835543373,0.451473407305732
"1229",23,19,1,2,29,3,2,1,3,0.800510966781081,0.888673233686278
"1230",23,25,1,2,30,3,2,1,2,0.988616939100536,1.10561518645222
"1231",23,32,1,1,31,1,1,1,5,0.417935861919077,0.528751552819217
"1232",23,18,1,2,32,2,1,0,3,0.833135087622838,0.800633656832447
"1233",23,39,1,1,33,3,1,1,3,0.575705959942523,0.561175572246485
"1234",23,25,1,1,34,1,2,0,4,0.56092614069463,0.628115277967924
"1235",23,25,1,2,35,1,2,1,4,0.462326692675412,0.510695643662814
"1236",23,37,1,1,36,3,2,0,1,1.5033994096089,1.52545698184999
"1237",23,33,1,1,37,2,2,0,2,0.662220487018445,0.594414020620419
"1238",23,19,1,1,38,3,2,0,1,1.227622038899,1.18083559645226
"1239",23,19,1,1,39,3,2,0,1,1.26353206584409,1.28040134691354
"1240",23,25,1,2,40,2,2,1,4,0.633489704232084,0.637128291205614
"1241",23,32,1,1,41,2,1,1,3,0.609238552661468,0.63779914801682
"1242",23,18,1,2,42,1,2,1,4,0.318223414808699,0.295659866542338
"1243",23,39,1,2,43,1,1,0,4,0.589164095918976,0.619628745276944
"1244",23,25,1,1,44,2,1,1,4,0.450886640312356,0.428433000836975
"1245",23,25,1,2,45,2,1,0,2,0.853999628499832,0.909442918148277
"1246",23,37,1,1,46,3,2,0,2,1.03114688359372,0.915060637228659
"1247",23,33,1,2,47,2,2,1,4,0.342337617223124,0.330403131274435
"1248",23,19,1,1,48,3,1,1,2,0.604595764320879,0.685130505098157
"1249",23,19,1,2,49,2,2,1,3,0.413068370509455,0.469241476242431
"1250",23,25,1,2,50,3,2,1,3,0.726309936093666,0.759796592355633
"1251",23,32,1,2,51,3,2,1,2,0.756696711308754,0.763658265756245
"1252",23,18,1,1,52,3,1,1,3,0.888333993192393,0.906688561305959
"1253",23,39,1,1,53,1,1,1,5,0.33538053558341,0.310724845431696
"1254",23,25,1,2,54,2,1,0,2,0.664221228912931,0.689669098086241
"1255",23,25,1,2,55,2,2,1,3,0.64624690504463,0.671199661714295
"1256",23,37,1,1,56,3,1,1,3,0.854991543619029,0.932333531873629
"1257",23,33,1,2,57,3,1,0,1,0.957822209750376,1.01393597630571
"1258",23,19,1,2,58,1,2,1,4,0.3503618531935,0.397816194562064
"1259",23,19,1,1,59,2,2,0,3,1.00161553560911,0.921005853071317
"1260",23,25,1,2,60,1,1,0,3,0.419033787241166,0.342034640767369
"1261",23,32,1,2,61,1,2,1,5,0.379345172727812,0.391527417100501
"1262",23,18,1,2,62,1,2,1,4,0.502153864508609,0.541687653014111
"1263",23,39,1,1,63,1,1,1,5,0.416226906851874,0.396234701675247
"1264",23,25,1,2,64,3,1,0,2,1.05957582492542,1.03076447874214
"1265",23,25,1,2,65,3,1,0,1,1.27029030517212,1.24731742020713
"1266",23,37,1,1,66,1,1,1,5,0.467792409448054,0.465504173407563
"1267",23,33,1,1,67,3,1,1,2,0.728135828266192,0.758231495385108
"1268",23,19,1,2,68,2,2,1,3,0.506480641213443,0.505836716661982
"1269",23,19,1,1,69,2,2,0,2,0.541291694438261,0.47715379898086
"1270",23,25,1,1,70,3,1,1,3,0.681868310237943,0.718897774662049
"1271",23,32,1,1,71,2,1,1,4,0.671291699851579,0.696183216451773
"1272",23,18,1,2,72,1,2,1,4,0.437247260271609,0.416392251317175
"1273",23,39,1,2,73,3,2,1,3,0.708166117602741,0.678979444920247
"1274",23,25,1,2,74,3,1,0,1,0.611008717458646,0.57813717876446
"1275",23,25,1,1,75,1,1,1,5,0.342434670276906,0.309477828430458
"1276",23,37,1,1,76,1,1,1,4,0.330060279459421,0.365831999546885
"1277",23,33,1,2,77,3,1,0,1,0.955773074703878,0.97491587262621
"1278",23,19,1,1,78,3,1,1,2,0.779184356257622,0.757849765119555
"1279",23,19,1,2,79,1,2,1,5,0.548957256653867,0.470472216146093
"1280",23,25,1,1,80,1,1,1,5,0.408297953830863,0.324047988117467
"1281",23,32,1,2,81,1,2,1,4,0.177852189771687,0.183659517415451
"1282",23,18,1,1,82,1,2,0,4,0.539766681254658,0.661637684869641
"1283",23,39,1,1,83,3,2,0,2,0.972976663689688,0.947386955367569
"1284",23,25,1,1,84,1,1,1,5,0.442833295671066,0.447717590341347
"1285",23,25,1,2,85,3,2,1,3,0.900156604694302,0.988576591436449
"1286",23,37,1,2,86,1,2,1,5,0.373977881455736,0.353255368439206
"1287",23,33,1,2,87,3,1,0,2,0.459966468996961,0.443216349201732
"1288",23,19,1,2,88,2,1,0,2,0.729230705443854,0.736797581341992
"1289",23,19,1,1,89,2,1,1,4,0.5425955618072,0.540503443842197
"1290",23,25,1,1,90,1,2,0,3,0.504832520440681,0.464021324569842
"1291",23,32,1,2,91,1,2,1,5,0.365139770412184,0.39781225418044
"1292",23,18,1,2,92,1,1,0,4,0.532256665724886,0.558923472340326
"1293",23,39,1,2,93,2,2,1,4,0.589500283930681,0.627217518042401
"1294",23,25,1,2,94,1,2,1,4,0.404326190367509,0.351779834254309
"1295",23,25,1,1,95,2,1,1,4,0.73419045983362,0.697058711619064
"1296",23,37,1,1,96,3,2,0,2,0.624024129175199,0.585619486515762
"1297",23,33,1,2,97,1,2,1,4,0.272682939174276,0.326495829840955
"1298",23,19,1,2,98,2,2,1,3,0.627845407321657,0.568304197293583
"1299",23,19,1,2,99,3,2,1,2,0.818148941863996,0.908106689943592
"1300",23,25,1,1,100,2,1,1,3,0.49383460407,0.613004179210809
"1301",23,32,1,2,101,1,2,1,4,0.234952047974174,0.269835368020633
"1302",23,18,1,1,102,2,2,0,3,0.455931769961067,0.407652516186436
"1303",23,39,1,2,103,2,2,1,3,0.537949766285664,0.489970458357872
"1304",23,25,1,1,104,2,1,1,3,0.424659862906374,0.381248612326473
"1305",23,25,1,1,105,1,1,1,5,0.37280180738439,0.375842876228728
"1306",23,37,1,1,106,1,1,1,4,0.322317429418706,0.2907598965242
"1307",23,33,1,1,107,1,1,1,4,0.383510485404639,0.378296689217792
"1308",23,19,1,1,108,2,1,1,4,0.486743531629113,0.583695900827344
"1309",23,19,1,1,109,3,1,1,2,1.06563901220798,1.03500873807059
"1310",23,25,1,1,110,1,1,1,5,0.195436304252713,0.15446065254114
"1311",23,32,1,1,111,3,2,0,1,0.881998253754879,0.906202946159135
"1312",23,18,1,2,112,2,2,1,4,0.611468405484209,0.569000689042026
"1313",23,39,1,1,113,1,1,1,4,0.488152189609693,0.40580879483694
"1314",23,25,1,2,114,1,2,1,4,0.354123575390989,0.368903074521764
"1315",23,25,1,1,115,3,2,0,1,0.769174046635183,0.706800178318512
"1316",23,37,1,2,116,3,1,0,1,0.869724164402907,0.935263184288096
"1317",23,33,1,2,117,2,2,1,4,0.62649969054092,0.632414619800101
"1318",23,19,1,2,118,1,1,0,4,0.579305585430633,0.635323573932832
"1319",23,19,1,1,119,2,2,0,2,0.85844764032836,0.868102746398501
"1320",23,25,1,1,120,2,2,0,3,0.810016796873799,0.883958899992353
"1321",23,32,1,1,121,2,2,0,3,0.73962540730968,0.780775651869615
"1322",23,18,1,1,122,2,1,1,3,0.46839279633614,0.446265180006681
"1323",23,39,1,2,123,3,1,0,1,0.793992321366047,0.804793623406694
"1324",23,25,1,1,124,1,1,1,4,0.412999113821066,0.467368501327553
"1325",23,25,1,1,125,2,2,0,3,0.69274816704257,0.709385333943648
"1326",23,37,1,2,126,1,2,1,5,0.468607925407077,0.56738722640312
"1327",23,33,1,1,127,2,1,1,3,0.691515029090618,0.632770422257315
"1328",23,19,1,1,128,1,1,1,5,0.41268896320546,0.464625896405091
"1329",23,19,1,1,129,2,1,1,3,0.652877934607324,0.717770270090927
"1330",23,25,1,1,130,2,1,1,4,0.481101352172122,0.433592442890255
"1331",23,32,1,1,131,3,1,1,2,0.988913010388627,0.961478780401059
"1332",23,18,1,2,132,2,2,1,3,0.636036368443023,0.629037790620971
"1333",23,39,1,1,133,3,2,0,1,0.853829489269057,0.811031455529116
"1334",23,25,1,2,134,1,2,1,4,0.326026279889203,0.388084111387672
"1335",23,25,1,2,135,3,2,1,2,0.831119747915932,0.845369670956801
"1336",23,37,1,2,136,2,1,0,2,0.530781084271862,0.540208217885032
"1337",23,33,1,1,137,2,2,0,2,0.750993650079544,0.68536527095223
"1338",23,19,1,1,138,1,1,1,5,0.229333927931147,0.222574061774717
"1339",23,19,1,2,139,2,2,1,3,0.730799957928721,0.79010242226375
"1340",23,25,1,2,140,2,1,0,3,0.836978372638608,0.810380921599151
"1341",23,32,1,1,141,2,1,1,4,0.595397907404333,0.635939950845696
"1342",23,18,1,2,142,3,2,1,3,0.534552611903353,0.48311654678987
"1343",23,39,1,2,143,2,2,1,3,0.612190912792186,0.64100148532629
"1344",23,25,1,2,144,3,2,1,3,0.626688731219722,0.624866365967483
"1345",23,25,1,1,145,2,1,1,4,0.785259553978188,0.712885503261773
"1346",23,37,1,2,146,1,2,1,5,0.40204635601085,0.476693441261191
"1347",23,33,1,1,147,1,1,1,4,0.384867652147139,0.43933010400025
"1348",23,19,1,2,148,2,1,0,3,0.6775879122639,0.718549752334784
"1349",23,19,1,1,149,1,1,1,5,0.433550905494543,0.435387290685293
"1350",23,25,1,1,150,3,2,0,2,0.902644469462938,0.924712059777022
"1351",23,32,1,2,151,2,2,1,4,0.668662873835587,0.736988555786132
"1352",23,18,1,2,152,3,1,0,2,1.03054353406835,1.07429845814718
"1353",23,39,1,2,153,3,2,1,3,1.06248238249136,1.02726873515263
"1354",23,25,1,2,154,1,2,1,4,0.439061899279936,0.498784376210757
"1355",23,25,1,1,155,2,1,1,3,0.60362283901607,0.616687729190034
"1356",23,37,1,2,156,2,2,1,3,0.811733987735249,0.722883441175925
"1357",23,33,1,2,157,3,1,0,2,0.704972367383318,0.732538067919215
"1358",23,19,1,1,158,3,1,1,3,0.619439911141988,0.549278090225621
"1359",23,19,1,2,159,1,1,0,4,0.644758213503057,0.685169190960129
"1360",23,25,1,2,160,2,2,1,3,0.731787008268244,0.614330011235575
"1361",23,32,1,1,161,1,1,1,4,0.452852382659842,0.449303512735019
"1362",23,18,1,2,162,2,2,1,3,0.628556630517942,0.640195427696253
"1363",23,39,1,1,163,2,1,1,3,0.564446927326756,0.510736533632071
"1364",23,25,1,2,164,2,2,1,4,0.754819842849873,0.763505331446313
"1365",23,25,1,1,165,2,2,0,3,0.53776207368073,0.552099326218172
"1366",23,37,1,2,166,1,2,1,5,0.373146930979661,0.327523129227402
"1367",23,33,1,1,167,2,2,0,2,0.606131767737809,0.57987915434229
"1368",23,19,1,2,168,2,2,1,4,0.623891379221191,0.539799038092609
"1369",23,19,1,1,169,2,2,0,2,0.442951949077161,0.459262003936858
"1370",23,25,1,2,170,3,1,0,2,1.33863122669843,1.37417393099286
"1371",23,32,1,1,171,1,1,1,4,0.530046359449772,0.558961734667799
"1372",23,18,1,1,172,1,1,1,4,0.42537303924252,0.475868354754426
"1373",23,39,1,2,173,2,2,1,3,0.496445109081275,0.543291406132636
"1374",23,25,1,1,174,3,2,0,2,0.581899606694592,0.475852771009918
"1375",23,25,1,1,175,3,1,1,2,0.983696849418574,0.972295917508543
"1376",23,37,1,2,176,3,1,0,1,1.46344171003065,1.49309329920945
"1377",23,33,1,1,177,3,2,0,1,0.56215397709643,0.595231533706494
"1378",23,19,1,2,178,3,2,1,2,0.776811854932468,0.752024997580337
"1379",23,19,1,2,179,3,2,1,3,1.06201701118117,1.03349984686601
"1380",23,25,1,2,180,1,1,0,3,0.476928096323059,0.399856758503397
"1381",23,32,1,2,181,1,2,1,4,0.360797675523802,0.285384278933639
"1382",23,18,1,1,182,2,2,0,3,0.729503360001893,0.79624899350875
"1383",23,39,1,2,183,1,2,1,4,0.286233279233818,0.325981425680037
"1384",23,25,1,1,184,1,1,1,4,0.458933643802227,0.452828306595885
"1385",23,25,1,2,185,1,1,0,3,0.491381514616862,0.530229277954354
"1386",23,37,1,1,186,3,1,1,2,1.16729155766566,1.13596172098893
"1387",23,33,1,2,187,1,2,1,4,0.50302901171341,0.522996738086934
"1388",23,19,1,1,188,3,1,1,2,1.06497443391071,1.0975423236536
"1389",23,19,1,2,189,2,1,0,2,0.883611017150374,0.843687168530277
"1390",23,25,1,1,190,3,1,1,2,0.654638938262657,0.668980189176581
"1391",23,32,1,2,191,2,1,0,2,0.920234004060524,0.943573635560834
"1392",23,18,1,2,192,1,2,1,5,0.315318163855787,0.350038602385417
"1393",23,39,1,1,193,3,1,1,3,0.710945402001289,0.682219793346075
"1394",23,25,1,2,194,1,2,1,4,0.360147672915241,0.367186558820071
"1395",23,25,1,2,195,2,1,0,3,0.719864476207862,0.730283989138914
"1396",23,37,1,1,196,1,1,1,5,0.340891106045353,0.289728133032303
"1397",23,33,1,2,197,2,2,1,3,0.387478623205149,0.425935881940884
"1398",23,19,1,1,198,3,1,1,3,0.760221946319995,0.689729299620731
"1399",23,19,1,1,199,1,2,0,3,0.536530874646262,0.629079917441062
"1400",23,25,1,1,200,2,1,1,3,0.792756443928845,0.754455115795025
"1401",23,32,1,2,201,2,2,1,3,0.481068041965487,0.485792742884934
"1402",23,18,1,2,202,3,2,1,3,0.19544949412918,0.209905832487511
"1403",23,39,1,1,203,2,1,1,3,0.539931386867046,0.589461064600532
"1404",23,25,1,1,204,3,2,0,1,0.623624228460198,0.5766034433559
"1405",23,25,1,2,205,3,2,1,3,0.70947507164351,0.689541234223762
"1406",23,37,1,2,206,2,1,0,2,0.793634483631991,0.832007431798732
"1407",23,33,1,2,207,1,2,1,4,0.476778650311067,0.434576678262205
"1408",23,19,1,2,208,3,1,0,1,1.36793623904288,1.3807783323627
"1409",23,19,1,2,209,3,2,1,2,0.875520148875076,0.931577608514749
"1410",23,25,1,2,210,3,1,0,2,0.70533498380597,0.724302707951138
"1411",23,32,1,1,211,2,1,1,4,0.682000953061266,0.630002262549167
"1412",23,18,1,1,212,3,2,0,1,0.627701578869322,0.63267884242552
"1413",23,39,1,1,213,2,1,1,4,0.482067035826002,0.396730520481146
"1414",23,25,1,1,214,3,1,1,2,0.635354306122654,0.630438804462589
"1415",23,25,1,1,215,1,2,0,3,0.584344552905919,0.460404909577633
"1416",23,37,1,1,216,1,1,1,4,0.509732672740816,0.459970667894808
"1417",23,33,1,1,217,1,1,1,4,0.386851447014485,0.295189733995241
"1418",23,19,1,1,218,3,1,1,2,0.659143241408242,0.694331317338742
"1419",23,19,1,1,219,2,1,1,3,0.71886558102798,0.746942170797686
"1420",23,25,1,1,220,1,1,1,4,0.475259377924898,0.444450027209766
"1421",23,32,1,1,221,3,2,0,2,0.867529203169053,0.897774217048599
"1422",23,18,1,2,222,3,2,1,2,0.792332216117809,0.630395937309744
"1423",23,39,1,1,223,1,1,1,4,0.383291787182277,0.381529298980841
"1424",23,25,1,2,224,3,1,0,1,1.26442411449471,1.19309198150813
"1425",23,25,1,2,225,3,1,0,1,0.86211663640872,0.829334478641678
"1426",23,37,1,1,226,1,2,0,3,0.562810090474992,0.668679890358431
"1427",23,33,1,2,227,1,2,1,4,0.445461408595583,0.480606598276312
"1428",23,19,1,2,228,3,2,1,2,0.758537450907077,0.724775421244704
"1429",23,19,1,2,229,2,1,0,3,0.801179694128947,0.86704934406914
"1430",23,25,1,2,230,2,2,1,4,0.67735408100079,0.635630378098306
"1431",23,32,1,2,231,1,2,1,4,0.40584823570556,0.361038216197754
"1432",23,18,1,2,232,1,1,0,3,0.430845493635341,0.442754231715327
"1433",23,39,1,1,233,3,2,0,2,1.091469413566,1.04553121697995
"1434",23,25,1,1,234,2,1,1,3,0.450430778287652,0.448488187875876
"1435",23,25,1,1,235,3,2,0,1,1.04165445437811,1.02186715367337
"1436",23,37,1,2,236,3,1,0,1,0.797629775008352,0.829250432254802
"1437",23,33,1,1,237,1,1,1,5,0.486445693145952,0.44467404423126
"1438",23,19,1,1,238,3,2,0,1,1.33340864851522,1.30265601695961
"1439",23,19,1,2,239,1,2,1,5,0.380153268150092,0.479056825602278
"1440",23,25,1,1,240,2,2,0,2,0.625788493560722,0.569859925607833
"1441",22,26,2,1,1,1,2,0,3,0.521579072106468,0.548737662657049
"1442",22,18,2,1,2,2,1,1,3,0.659922338778205,0.58723678818924
"1443",22,34,2,1,3,2,1,1,3,0.554952707701922,0.574333637977259
"1444",22,36,2,2,4,2,1,0,3,0.487137418436771,0.45156203991491
"1445",22,21,2,1,5,1,1,1,4,0.322791770555136,0.329367204617499
"1446",22,21,2,1,6,3,2,0,1,1.21449249921256,1.27362876976397
"1447",22,36,2,1,7,1,1,1,5,0.418145905024783,0.48211116722688
"1448",22,36,2,1,8,1,2,0,3,0.482024756994457,0.425739748190412
"1449",22,21,2,2,9,3,1,0,1,1.56515706771406,1.5973388344422
"1450",22,33,2,2,10,3,1,0,1,0.768313452134556,0.790881001786826
"1451",22,26,2,2,11,1,2,1,5,0.477226450141071,0.486015985000081
"1452",22,18,2,2,12,3,1,0,1,0.46454014826227,0.367545342435683
"1453",22,34,2,2,13,3,2,1,3,0.749336444725971,0.74871845895813
"1454",22,36,2,2,14,1,2,1,4,0.335601485025997,0.340187430943968
"1455",22,21,2,1,15,3,1,1,2,1.03423175280342,1.04597225067644
"1456",22,21,2,2,16,3,1,0,1,1.4605253080084,1.4470397221706
"1457",22,36,2,1,17,1,2,0,4,0.681733678446311,0.735043788532811
"1458",22,36,2,2,18,3,1,0,1,0.690806794355714,0.607091949506045
"1459",22,21,2,1,19,1,1,1,4,0.358632966930826,0.396514553769803
"1460",22,33,2,2,20,3,1,0,2,1.19803111371964,1.18281475527172
"1461",22,26,2,2,21,2,2,1,3,0.613387014793258,0.70294055211605
"1462",22,18,2,2,22,1,2,1,5,0.501536404579873,0.485966240350939
"1463",22,34,2,2,23,3,2,1,2,1.15474973947905,1.1227123916331
"1464",22,36,2,1,24,1,2,0,3,0.585774430748851,0.522752934019312
"1465",22,21,2,1,25,1,1,1,5,0.464601322481824,0.407191774124402
"1466",22,21,2,2,26,1,2,1,5,0.236755215837792,0.206871481690896
"1467",22,36,2,1,27,1,1,1,4,0.494935676689464,0.468138591812963
"1468",22,36,2,2,28,2,1,0,3,0.512069017240057,0.52428066965853
"1469",22,21,2,2,29,3,1,0,2,1.4651723767908,1.51367297364618
"1470",22,33,2,1,30,1,1,1,4,0.449457700941779,0.409760043519953
"1471",22,26,2,2,31,2,1,0,2,0.516411290039994,0.430918472932488
"1472",22,18,2,1,32,3,2,0,1,1.09074059581169,1.01931813496568
"1473",22,34,2,1,33,1,1,1,4,0.574656236226705,0.64677832792532
"1474",22,36,2,2,34,3,1,0,1,0.690686887457539,0.751448876754579
"1475",22,21,2,1,35,1,2,0,3,0.576374910840897,0.497673027170808
"1476",22,21,2,2,36,2,1,0,3,0.830965709644895,0.844532608339806
"1477",22,36,2,2,37,1,2,1,5,0.333870828633095,0.298691438696754
"1478",22,36,2,1,38,3,1,1,3,0.941269501375545,0.912208195987178
"1479",22,21,2,1,39,2,1,1,3,0.676078123866607,0.726428656526037
"1480",22,33,2,1,40,1,1,1,5,0.217361914439674,0.219758966777302
"1481",22,26,2,1,41,3,1,1,2,0.941125690058851,0.970423840951081
"1482",22,18,2,2,42,1,1,0,3,0.49643148432423,0.402704452841351
"1483",22,34,2,1,43,3,1,1,3,0.787344490841055,0.872611519805175
"1484",22,36,2,1,44,1,1,1,4,0.469440330581479,0.434679314928697
"1485",22,21,2,2,45,2,2,1,3,0.358452956259951,0.411371002370293
"1486",22,21,2,1,46,1,1,1,5,0.546865365856649,0.605635879005022
"1487",22,36,2,2,47,1,2,1,5,0.310837499288462,0.274973495224093
"1488",22,36,2,1,48,1,2,0,4,0.581304726578605,0.491015369504107
"1489",22,21,2,1,49,3,1,1,2,0.658254972415828,0.689086824664918
"1490",22,33,2,2,50,3,1,0,2,0.932377581145793,0.830906403872483
"1491",22,26,2,2,51,2,1,0,3,0.814100309475863,0.818068144749382
"1492",22,18,2,2,52,2,1,0,2,0.717690416499201,0.677226297674372
"1493",22,34,2,1,53,3,1,1,2,0.886623569968328,0.913261251399995
"1494",22,36,2,2,54,1,1,0,4,0.812196482202029,0.841200159491022
"1495",22,21,2,1,55,1,2,0,4,0.423534002018397,0.358693630563054
"1496",22,21,2,1,56,2,1,1,3,0.950440381088023,0.928673063892304
"1497",22,36,2,1,57,2,1,1,3,0.698798499106635,0.699023461970483
"1498",22,36,2,2,58,1,2,1,5,0.310402614930731,0.284119212822757
"1499",22,21,2,1,59,3,1,1,2,0.798684768736502,0.8206293671565
"1500",22,33,2,2,60,2,1,0,2,0.849533278768555,0.891120795161457
"1501",22,26,2,2,61,2,2,1,3,0.498495609075987,0.437338295550555
"1502",22,18,2,2,62,3,1,0,1,1.29657244462447,1.21776578843164
"1503",22,34,2,2,63,2,2,1,4,0.650373812901915,0.747038202199315
"1504",22,36,2,2,64,1,1,0,4,0.560373998202994,0.570877346894766
"1505",22,21,2,1,65,3,2,0,1,1.16621082429621,1.20410500951814
"1506",22,21,2,1,66,2,1,1,3,0.61357739072032,0.670462918264723
"1507",22,36,2,1,67,3,2,0,1,0.6312240581057,0.649322199467512
"1508",22,36,2,1,68,2,1,1,4,0.475551263990323,0.463228863036742
"1509",22,21,2,1,69,1,1,1,4,0.250868075975054,0.27907245772216
"1510",22,33,2,1,70,1,1,1,5,0.194095742817794,0.214408562014002
"1511",22,26,2,2,71,3,1,0,1,0.98499025918551,0.959377807122356
"1512",22,18,2,2,72,1,2,1,4,0.358509729689231,0.279265988770069
"1513",22,34,2,1,73,3,2,0,1,1.10353542598379,1.07843574919475
"1514",22,36,2,1,74,1,1,1,4,0.284969475427513,0.301150624861571
"1515",22,21,2,2,75,3,2,1,3,0.661906983102241,0.693735218959544
"1516",22,21,2,1,76,2,1,1,3,0.632639935919655,0.640127100487536
"1517",22,36,2,1,77,3,1,1,3,0.559087196864037,0.621609299212707
"1518",22,36,2,2,78,3,1,0,2,0.934718081211066,0.959106437044666
"1519",22,21,2,2,79,2,1,0,3,0.782036815656599,0.738551373632877
"1520",22,33,2,2,80,2,2,1,4,0.773894786472701,0.763968207793549
"1521",22,26,2,1,81,2,2,0,2,0.85763406242863,0.81679620112479
"1522",22,18,2,1,82,3,2,0,1,1.55577628083428,1.4954679174988
"1523",22,34,2,1,83,1,1,1,5,0.339179699846586,0.335162440819855
"1524",22,36,2,1,84,3,2,0,1,1.32275577289741,1.2713482951471
"1525",22,21,2,2,85,1,1,0,3,0.693089600396236,0.690508069936485
"1526",22,21,2,2,86,2,2,1,3,0.643036268158709,0.708304068806884
"1527",22,36,2,2,87,3,2,1,2,0.988820753767904,0.997847381936003
"1528",22,36,2,2,88,3,2,1,3,0.949654905067103,0.991665231186357
"1529",22,21,2,1,89,1,1,1,4,0.347593222986674,0.35623234985145
"1530",22,33,2,2,90,1,2,1,4,0.389103508746659,0.353866473471279
"1531",22,26,2,2,91,3,1,0,2,0.976419746240329,0.997753644851907
"1532",22,18,2,1,92,2,1,1,4,0.671169246947788,0.680555662579391
"1533",22,34,2,2,93,1,1,0,3,0.656655958832203,0.622371436305003
"1534",22,36,2,1,94,2,2,0,2,0.76904052234594,0.758084476861982
"1535",22,21,2,1,95,2,2,0,3,0.715215670988121,0.66467330428747
"1536",22,21,2,2,96,2,1,0,3,0.776891084670061,0.713672540874693
"1537",22,36,2,1,97,1,1,1,5,0.31495588706352,0.330330873526616
"1538",22,36,2,1,98,2,1,1,3,0.675087901673143,0.692131506429747
"1539",22,21,2,2,99,3,2,1,2,0.939071010248677,0.963205666122101
"1540",22,33,2,1,100,2,1,1,3,0.713413848802291,0.772107539659917
"1541",22,26,2,1,101,3,2,0,2,0.653273974871538,0.705033011333835
"1542",22,18,2,2,102,1,2,1,4,0.347851253490753,0.269803469916534
"1543",22,34,2,1,103,1,1,1,5,0.372582999217529,0.417363110210326
"1544",22,36,2,1,104,1,1,1,4,0.550035633101335,0.522389482981564
"1545",22,21,2,1,105,1,1,1,5,0.446494162997368,0.387401616547506
"1546",22,21,2,1,106,2,2,0,2,0.554001178844423,0.541107297703872
"1547",22,36,2,1,107,2,2,0,2,0.827429625336938,0.76046662390124
"1548",22,36,2,2,108,3,1,0,1,0.643084216108103,0.657881110395502
"1549",22,21,2,1,109,2,1,1,3,0.590138585740499,0.530808217513551
"1550",22,33,2,1,110,3,1,1,3,0.596575061145566,0.471626023771043
"1551",22,26,2,2,111,2,2,1,4,0.702780347716632,0.664043799399032
"1552",22,18,2,2,112,3,1,0,2,0.458711471724392,0.534010670641479
"1553",22,34,2,1,113,3,1,1,3,0.973779960298863,0.881470263562717
"1554",22,36,2,2,114,2,2,1,3,0.784348342497635,0.791000479197694
"1555",22,21,2,2,115,2,1,0,2,0.538430911823946,0.462646248578019
"1556",22,21,2,2,116,2,2,1,4,0.523645284601539,0.49695195004806
"1557",22,36,2,1,117,2,1,1,4,0.560692773012885,0.422915946365759
"1558",22,36,2,1,118,1,1,1,5,0.350391557308367,0.399756552888049
"1559",22,21,2,1,119,1,1,1,4,0.316592346729947,0.191702703925391
"1560",22,33,2,2,120,3,1,0,1,1.1642605563229,1.19724745655171
"1561",22,26,2,1,121,2,2,0,3,0.681721991915874,0.637592594210549
"1562",22,18,2,1,122,3,1,1,3,1.03363737801816,1.03728483271795
"1563",22,34,2,2,123,2,2,1,3,0.822488711703111,0.777556173230936
"1564",22,36,2,2,124,1,2,1,5,0.340940278267008,0.291629019965
"1565",22,21,2,2,125,2,1,0,2,0.660506204590993,0.628926955208665
"1566",22,21,2,2,126,1,2,1,4,0.464149590562291,0.477134926745845
"1567",22,36,2,2,127,1,1,0,4,0.426564853434416,0.449754772727307
"1568",22,36,2,2,128,2,2,1,3,0.457786595042786,0.472344282900809
"1569",22,21,2,2,129,3,2,1,2,0.605373087405828,0.622525732380148
"1570",22,33,2,1,130,1,1,1,4,0.491855402384427,0.53064931029681
"1571",22,26,2,1,131,3,1,1,2,0.847876283403957,0.846284597665843
"1572",22,18,2,1,132,2,2,0,3,0.828843304359088,0.829186491672854
"1573",22,34,2,1,133,1,1,1,5,0.319396735951371,0.310217177426883
"1574",22,36,2,1,134,3,1,1,3,0.843260719112426,0.870535488930571
"1575",22,21,2,2,135,3,1,0,1,1.18355251884814,1.16331741854903
"1576",22,21,2,1,136,1,1,1,5,0.328182774609216,0.347236598311358
