"","subj_no","age","group","stim","trial","difficulty","resp","corr","conf","RT_day1","RT_day2"
"1",29,30,1,2,1,3,2,1,2,0.729144241443875,0.752850710425862
"2",29,38,1,2,2,3,1,0,2,1.62741749818824,1.60520936693523
"3",29,35,1,1,3,1,1,1,5,0.471166270813021,0.339095234494554
"4",29,36,1,2,4,1,1,0,4,0.732097062687971,0.809777533630179
"5",29,20,1,1,5,1,1,1,4,0.3091604877554,0.273223109302683
"6",29,33,1,2,6,1,2,1,4,0.359534632591077,0.395112325560319
"7",29,37,1,2,7,2,1,0,3,0.65248354529194,0.635145038965586
"8",29,38,1,1,8,3,1,1,2,0.902519204149112,0.927810824549896
"9",29,38,1,1,9,3,1,1,2,0.526720233387621,0.563974762218966
"10",29,39,1,2,10,3,2,1,2,0.936649358292018,0.887267867697697
"11",29,30,1,2,11,3,1,0,1,1.2261280524263,1.23145688978868
"12",29,38,1,2,12,2,2,1,3,0.326163331275522,0.316067165544688
"13",29,35,1,2,13,3,2,1,3,0.975821209642398,0.922295441034528
"14",29,36,1,1,14,1,1,1,5,0.285342445857507,0.289085576856559
"15",29,20,1,2,15,3,1,0,2,0.165870060647573,0.0532667690724729
"16",29,33,1,1,16,1,2,0,3,0.513629451035835,0.551487998774512
"17",29,37,1,2,17,1,2,1,5,0.39594387553363,0.322206365210684
"18",29,38,1,1,18,3,2,0,2,0.527052947150303,0.503894092454147
"19",29,38,1,2,19,1,2,1,5,0.394679529501213,0.368056859787631
"20",29,39,1,2,20,2,2,1,4,0.644048129067717,0.637526634543963
"21",29,30,1,2,21,2,2,1,3,0.537247754033246,0.549305867622278
"22",29,38,1,1,22,1,1,1,4,0.388989165427193,0.387313533363521
"23",29,35,1,2,23,1,1,0,3,0.458879154194548,0.453939373996888
"24",29,36,1,1,24,3,2,0,2,0.572688931291743,0.583260340825283
"25",29,20,1,2,25,3,1,0,1,1.24057975317214,1.32814349707599
"26",29,33,1,1,26,1,1,1,5,0.4466673900651,0.377208421340633
"27",29,37,1,1,27,2,2,0,3,0.986699510225785,1.03742388594695
"28",29,38,1,1,28,2,1,1,4,0.527953645076783,0.50673011200719
"29",29,38,1,2,29,2,1,0,3,0.54716099614336,0.544367604679237
"30",29,39,1,1,30,3,1,1,2,0.82347121483236,0.85387304504798
"31",29,30,1,1,31,1,1,1,5,0.558458890505858,0.552009117749051
"32",29,38,1,1,32,3,1,1,3,0.755546599102935,0.764285154858559
"33",29,35,1,2,33,1,1,0,3,0.50701587859407,0.443626056191075
"34",29,36,1,1,34,3,1,1,2,1.02370794765822,1.01332623928681
"35",29,20,1,2,35,1,2,1,5,0.400076502486223,0.453778276606576
"36",29,33,1,2,36,2,2,1,4,0.528175914510548,0.506338362307915
"37",29,37,1,2,37,2,1,0,2,0.432302028794616,0.430169798521398
"38",29,38,1,1,38,3,2,0,2,0.955380197254785,0.919429081919659
"39",29,38,1,2,39,2,2,1,3,0.687655637187633,0.634472563015069
"40",29,39,1,1,40,2,2,0,3,0.596590732513743,0.630987261252454
"41",29,30,1,1,41,1,2,0,4,0.584314034519271,0.588621017325568
"42",29,38,1,2,42,1,2,1,4,0.34510138170068,0.244520800101582
"43",29,35,1,1,43,3,2,0,1,1.47898057033306,1.53476258068532
"44",29,36,1,2,44,2,2,1,3,0.718055418841965,0.712213761077074
"45",29,20,1,1,45,1,1,1,5,0.43685954339576,0.399375204609993
"46",29,33,1,2,46,2,1,0,2,0.371968986546729,0.346441723681844
"47",29,37,1,1,47,3,1,1,3,0.612022516823588,0.626632727175455
"48",29,38,1,1,48,2,2,0,2,0.732415259519259,0.704898601854287
"49",29,38,1,1,49,1,1,1,5,0.390491964835402,0.314568736359905
"50",29,39,1,2,50,1,2,1,5,0.377415915375663,0.273108616607438
"51",29,30,1,1,51,3,1,1,2,1.15438756311077,1.13313443990173
"52",29,38,1,2,52,2,1,0,3,0.620578402352746,0.64576596624141
"53",29,35,1,1,53,1,1,1,4,0.343473734811345,0.271093210859218
"54",29,36,1,1,54,2,1,1,4,0.59322190429074,0.532998585168985
"55",29,20,1,2,55,1,2,1,4,0.586734073902304,0.51842672341854
"56",29,33,1,2,56,3,2,1,2,0.48153274751189,0.450787067630806
"57",29,37,1,1,57,2,2,0,2,0.781098070625595,0.783958695600003
"58",29,38,1,2,58,2,2,1,4,0.603175234217704,0.61250165526934
"59",29,38,1,2,59,1,2,1,5,0.517142472332891,0.567021229285604
"60",29,39,1,1,60,2,1,1,3,0.842323747123391,0.863690714791592
"61",29,30,1,2,61,2,1,0,3,0.905006795440407,0.850389812089873
"62",29,38,1,1,62,3,1,1,2,0.571274122256829,0.567723719817064
"63",29,35,1,2,63,3,2,1,3,0.862960241346227,0.907905127573156
"64",29,36,1,2,64,3,1,0,1,0.87468659380311,0.892647583790559
"65",29,20,1,1,65,1,2,0,4,0.600404101369549,0.453678379822578
"66",29,33,1,2,66,2,1,0,2,0.601913781772628,0.632955965663613
"67",29,37,1,1,67,2,1,1,4,0.45826869005363,0.436620955057429
"68",29,38,1,1,68,2,1,1,3,0.437873088351414,0.494221465059121
"69",29,38,1,2,69,3,1,0,1,1.35981539610761,1.38474157729201
"70",29,39,1,1,70,2,2,0,2,0.74897107675622,0.747644167410891
"71",29,30,1,2,71,2,2,1,4,0.573151103501466,0.581908255169664
"72",29,38,1,1,72,2,2,0,3,0.793427723885127,0.717016383215167
"73",29,35,1,1,73,3,2,0,2,1.50220038364994,1.5891203554529
"74",29,36,1,1,74,3,2,0,2,0.92433534871158,0.970637311259751
"75",29,20,1,2,75,3,2,1,2,0.943974767648594,0.954022552840933
"76",29,33,1,2,76,2,2,1,3,0.542590027668554,0.592306133035191
"77",29,37,1,1,77,1,1,1,4,0.338123562420813,0.331418168423222
"78",29,38,1,2,78,3,1,0,1,1.00463661078969,1.019433029433
"79",29,38,1,1,79,1,1,1,5,0.303368289029697,0.3757831122167
"80",29,39,1,1,80,1,1,1,5,0.334602894615581,0.402742720357563
"81",29,30,1,1,81,1,1,1,5,0.296042347363137,0.238810672462801
"82",29,38,1,2,82,2,2,1,4,0.594601522667461,0.547005959727273
"83",29,35,1,1,83,1,2,0,4,0.57583753246914,0.546453605563138
"84",29,36,1,2,84,3,1,0,2,0.251297651660269,0.290949301466554
"85",29,20,1,2,85,1,2,1,4,0.260213772029077,0.307411415746741
"86",29,33,1,2,86,2,1,0,3,0.783497586529362,0.715366480796771
"87",29,37,1,1,87,2,2,0,2,0.754227291804075,0.749196058367088
"88",29,38,1,2,88,3,2,1,3,0.546173858556155,0.534218593136897
"89",29,38,1,2,89,3,1,0,2,1.51703629927839,1.52844065890799
"90",29,39,1,1,90,1,1,1,4,0.579027114407867,0.58110415764807
"91",29,30,1,2,91,1,2,1,4,0.439309851283676,0.473948255967073
"92",29,38,1,2,92,2,1,0,2,0.671127585611516,0.744305765474824
"93",29,35,1,1,93,3,1,1,3,0.976751775057691,0.90461804826911
"94",29,36,1,2,94,3,2,1,2,0.850916814426983,0.848386985625396
"95",29,20,1,1,95,3,2,0,1,0.585046196373903,0.569174121716633
"96",29,33,1,1,96,3,1,1,3,1.10384716717254,1.08058323858491
"97",29,37,1,1,97,1,2,0,4,0.73442621351482,0.728723095065979
"98",29,38,1,1,98,3,2,0,2,0.84450994398547,0.708795490274193
"99",29,38,1,2,99,2,1,0,3,0.602776911853404,0.715462075037014
"100",29,39,1,2,100,2,2,1,3,0.693591533177326,0.644288985971632
"101",29,30,1,1,101,3,2,0,1,-0.353973512460705,-0.359286066046096
"102",29,38,1,1,102,1,1,1,4,0.447647668027314,0.400023844160839
"103",29,35,1,1,103,3,1,1,3,0.650116178506279,0.683293435430905
"104",29,36,1,1,104,3,2,0,1,0.947152376815955,0.983521835867581
"105",29,20,1,1,105,3,2,0,1,0.994047878134363,1.06354761839575
"106",29,33,1,2,106,1,1,0,3,0.461782838879781,0.376984896448792
"107",29,37,1,1,107,3,1,1,2,0.779201383922484,0.786522916129107
"108",29,38,1,1,108,1,1,1,4,0.40892819015141,0.409833301933462
"109",29,38,1,1,109,1,1,1,4,0.405932913910739,0.418562471219329
"110",29,39,1,2,110,3,2,1,3,1.05808349048952,1.05173200954286
"111",29,30,1,1,111,2,2,0,2,0.527028251845489,0.533261601277207
"112",29,38,1,1,112,2,2,0,2,1.07615997441151,1.06988974724149
"113",29,35,1,1,113,1,1,1,5,0.406057892910686,0.438708685972254
"114",29,36,1,1,114,1,1,1,4,0.319548698909617,0.251911733153579
"115",29,20,1,1,115,2,2,0,3,0.664156925522216,0.714213229512876
"116",29,33,1,2,116,2,1,0,2,0.861615812250245,0.899839258618277
"117",29,37,1,1,117,3,1,1,2,0.840921154921052,0.822079011310977
"118",29,38,1,2,118,1,2,1,5,0.457997788052081,0.361420886490713
"119",29,38,1,2,119,1,2,1,5,0.433438314284937,0.421433023302829
"120",29,39,1,2,120,2,2,1,4,0.684890856407887,0.736391380043434
"121",29,30,1,1,121,2,1,1,4,0.662318445612427,0.662100797167423
"122",29,38,1,2,122,1,1,0,4,0.650648182926228,0.686137948576673
"123",29,35,1,2,123,1,2,1,5,0.405271324611274,0.522612463312787
"124",29,36,1,2,124,2,1,0,3,0.818191383107732,0.797344212189005
"125",29,20,1,2,125,2,1,0,2,0.911937442279174,0.943232987601139
"126",29,33,1,1,126,2,2,0,2,0.683223021585091,0.669469391167113
"127",29,37,1,1,127,2,1,1,3,0.467452197030465,0.535033262205748
"128",29,38,1,1,128,2,2,0,2,0.697221933879802,0.722401484164256
"129",29,38,1,1,129,2,1,1,4,0.503626146141368,0.53161206394124
"130",29,39,1,1,130,1,1,1,5,0.332416428617574,0.316369949548569
"131",29,30,1,2,131,3,1,0,1,0.590837002600825,0.612395862469909
"132",29,38,1,2,132,1,2,1,5,0.455572904285046,0.506958979491102
"133",29,35,1,1,133,1,1,1,4,0.362857361692875,0.340783712210988
"134",29,36,1,2,134,2,2,1,3,0.806177801962033,0.842371894600593
"135",29,20,1,1,135,1,2,0,4,0.568622273674487,0.646391407593484
"136",29,33,1,1,136,1,1,1,5,0.365289676465255,0.355410155576964
"137",29,37,1,2,137,2,2,1,4,0.584033776967864,0.501583955705827
"138",29,38,1,1,138,1,1,1,5,0.318318074726632,0.347912798856521
"139",29,38,1,2,139,1,2,1,4,0.465737983176896,0.490293973161097
"140",29,39,1,1,140,3,1,1,3,0.762245800131646,0.767660441606985
"141",29,30,1,2,141,2,1,0,2,0.56539275679283,0.615002180947504
"142",29,38,1,2,142,1,2,1,4,0.285776729293272,0.260979058984694
"143",29,35,1,2,143,3,1,0,1,1.21198813018913,1.14697556443563
"144",29,36,1,1,144,2,1,1,4,0.648557536470013,0.696324910374987
"145",29,20,1,1,145,1,1,1,4,0.548433049491177,0.540155490041714
"146",29,33,1,1,146,1,1,1,4,0.327548440018012,0.332529779101067
"147",29,37,1,2,147,3,2,1,2,0.651906811291548,0.589950141604189
"148",29,38,1,1,148,2,1,1,4,0.806538816433591,0.771742332044416
"149",29,38,1,2,149,2,1,0,2,0.764214148960969,0.802297305189696
"150",29,39,1,2,150,2,2,1,3,0.49735409842217,0.492319794212723
"151",29,30,1,1,151,1,2,0,3,0.637125116586167,0.55995764190757
"152",29,38,1,1,152,2,2,0,2,0.915448549423868,0.864335662646785
"153",29,35,1,1,153,2,2,0,3,0.439080783083959,0.406024987056783
"154",29,36,1,1,154,3,2,0,2,0.575824751476046,0.591785468395439
"155",29,20,1,1,155,3,1,1,2,0.411373847928684,0.507137589615192
"156",29,33,1,2,156,3,1,0,2,1.19396604276655,1.07080222827083
"157",29,37,1,1,157,1,2,0,3,0.455315327778199,0.383791334413759
"158",29,38,1,2,158,3,2,1,2,0.729826222462381,0.74431756553999
"159",29,38,1,1,159,1,1,1,5,0.405333424891686,0.452797107316857
"160",29,39,1,1,160,1,1,1,5,0.367296609951928,0.40509172415033
"161",29,30,1,2,161,3,1,0,2,0.831187323863674,0.820372685417193
"162",29,38,1,1,162,2,2,0,3,0.677376783116306,0.709462947388863
"163",29,35,1,2,163,1,2,1,5,0.490355656382074,0.491034463483227
"164",29,36,1,1,164,3,2,0,1,0.763192464915779,0.756136491636754
"165",29,20,1,1,165,2,2,0,2,0.980818173773086,0.953323540325218
"166",29,33,1,1,166,3,1,1,2,0.702979396771434,0.72418596353027
"167",29,37,1,2,167,1,2,1,4,0.423024959380953,0.387463357418072
"168",29,38,1,1,168,3,1,1,3,0.852946409510398,0.8484317494551
"169",29,38,1,1,169,1,1,1,5,0.438837097212915,0.408101540772237
"170",29,39,1,2,170,2,2,1,4,0.55749170026785,0.53911590329964
"171",29,30,1,1,171,1,1,1,4,0.467974715965659,0.47538950469916
"172",29,38,1,2,172,1,2,1,4,0.34037987115636,0.429498588464487
"173",29,35,1,1,173,1,1,1,4,0.33004807708259,0.323367429399062
"174",29,36,1,2,174,3,2,1,2,0.79160697603526,0.757929804701437
"175",29,20,1,1,175,2,1,1,3,0.527610101886137,0.532056933528574
"176",29,33,1,2,176,2,1,0,3,0.836268012776817,0.919225933257344
"177",29,37,1,1,177,2,1,1,3,0.839722140457375,0.841240359370031
"178",29,38,1,2,178,3,1,0,2,0.495897212117808,0.536419063520538
"179",29,38,1,2,179,3,2,1,3,0.899456709054894,0.974227557903038
"180",29,39,1,2,180,3,1,0,2,1.41322196998259,1.43644701439708
"181",29,30,1,2,181,2,1,0,2,0.733098527277675,0.731679466041786
"182",29,38,1,1,182,3,2,0,1,0.968074440822172,0.988167985827983
"183",29,35,1,2,183,2,1,0,2,0.952605497350468,0.93767344942057
"184",29,36,1,2,184,2,1,0,2,0.68056346225271,0.736526129770062
"185",29,20,1,2,185,2,2,1,4,0.575074270350311,0.569359568617494
"186",29,33,1,1,186,2,2,0,2,0.566645115878278,0.618915068167641
"187",29,37,1,2,187,2,2,1,4,0.637960738161203,0.702541757365121
"188",29,38,1,2,188,2,1,0,2,0.782066247085109,0.754026277449271
"189",29,38,1,2,189,1,1,0,3,0.434808270739612,0.37147959644163
"190",29,39,1,2,190,1,2,1,5,0.400868885064511,0.315936062228544
"191",29,30,1,2,191,1,2,1,5,0.220299636989633,0.323716951611087
"192",29,38,1,2,192,3,2,1,2,0.614445153703149,0.568255068207351
"193",29,35,1,2,193,3,2,1,3,0.902830752481405,0.909800471721008
"194",29,36,1,2,194,3,2,1,3,0.62779208916898,0.581098146619485
"195",29,20,1,2,195,3,1,0,2,0.647834298237636,0.660149370267845
"196",29,33,1,1,196,2,1,1,4,0.618969218883937,0.622590928234633
"197",29,37,1,1,197,1,1,1,5,0.49970447609257,0.498662547240175
"198",29,38,1,2,198,3,1,0,1,1.07483611438005,1.07732703848561
"199",29,38,1,1,199,2,1,1,4,0.65450452473349,0.655964061509308
"200",29,39,1,1,200,1,2,0,4,0.518222481668546,0.495410543795938
"201",29,30,1,2,201,3,1,0,2,0.933392071882054,0.963914940414626
"202",29,38,1,2,202,1,1,0,4,0.542992677650737,0.537913613119572
"203",29,35,1,2,203,1,2,1,5,0.342789037982232,0.358050855589606
"204",29,36,1,2,204,1,2,1,4,0.473411234370771,0.449961372334659
"205",29,20,1,1,205,3,1,1,3,0.671986286596565,0.651482553759449
"206",29,33,1,2,206,2,2,1,4,0.754521143189836,0.770190114876069
"207",29,37,1,1,207,3,1,1,2,0.261679057154817,0.2319151679101
"208",29,38,1,1,208,3,1,1,2,0.504697031887107,0.455724521485479
"209",29,38,1,2,209,3,2,1,2,0.638338444218915,0.644768160905651
"210",29,39,1,2,210,3,1,0,2,0.542125451808866,0.512073156815309
"211",29,30,1,2,211,3,2,1,2,0.872569685416188,0.821754568343247
"212",29,38,1,1,212,1,2,0,3,0.355000801902642,0.410322046576443
"213",29,35,1,2,213,3,2,1,3,0.893831163143388,0.919611189168499
"214",29,36,1,1,214,2,1,1,4,0.751833168705303,0.830314704339468
"215",29,20,1,1,215,1,1,1,4,0.388738709377806,0.374428052214568
"216",29,33,1,1,216,3,2,0,1,1.04149641835828,1.05967255106842
"217",29,37,1,1,217,2,2,0,2,0.859063747527731,0.901486267838988
"218",29,38,1,1,218,1,1,1,4,0.484376450563066,0.428982256700663
"219",29,38,1,2,219,1,1,0,4,0.363778261839401,0.368049026416666
"220",29,39,1,1,220,2,2,0,3,0.591189268164678,0.58700450834768
"221",29,30,1,2,221,3,2,1,3,0.766695924717844,0.900180893612921
"222",29,38,1,1,222,2,2,0,3,0.717935589027483,0.667027791789129
"223",29,35,1,2,223,2,2,1,3,0.680559859765696,0.705032084209325
"224",29,36,1,1,224,2,1,1,4,0.615609429879119,0.649371262209062
"225",29,20,1,1,225,1,2,0,3,0.548521076730904,0.553991770067908
"226",29,33,1,2,226,2,2,1,3,0.61323761684601,0.568529527420373
"227",29,37,1,2,227,1,2,1,4,0.384595359774721,0.384472123625983
"228",29,38,1,1,228,1,2,0,4,0.449936223500284,0.489483634412058
"229",29,38,1,2,229,3,1,0,1,0.653114276917627,0.657851749558341
"230",29,39,1,2,230,3,2,1,3,0.689931416403423,0.6426402258465
"231",29,30,1,1,231,2,2,0,2,0.68372176144001,0.544135200662895
"232",29,38,1,2,232,3,1,0,1,1.56998335139797,1.61035256345156
"233",29,35,1,2,233,1,2,1,5,0.455105131963548,0.370008881840083
"234",29,36,1,1,234,3,1,1,3,1.13554177264726,1.16706633112551
"235",29,20,1,2,235,1,2,1,4,0.405156587714783,0.356752781209241
"236",29,33,1,1,236,2,1,1,4,0.66204445276305,0.650615812712065
"237",29,37,1,2,237,3,2,1,3,0.438314628272517,0.432196799325457
"238",29,38,1,2,238,1,2,1,5,0.428367731248047,0.316688394141202
"239",29,38,1,1,239,3,1,1,3,0.717427480814201,0.729855243871887
"240",29,39,1,2,240,2,1,0,2,0.55519998875095,0.508929545981813
"241",28,23,2,1,1,1,1,1,5,0.387343890952466,0.349009135730153
"242",28,40,2,1,2,3,1,1,3,0.762461055761239,0.694506562332376
"243",28,38,2,2,3,3,2,1,3,0.806950636240506,0.839091438281853
"244",28,34,2,1,4,3,2,0,2,0.994872055273969,1.05307558646981
"245",28,40,2,1,5,2,1,1,4,0.573362599594723,0.547018117564579
"246",28,38,2,1,6,1,1,1,4,0.466316549498131,0.438035535192808
"247",28,33,2,2,7,1,2,1,5,0.423248291782582,0.478834867455161
"248",28,37,2,2,8,2,1,0,2,0.48834655341069,0.521833600682041
"249",28,23,2,1,9,1,1,1,4,0.393811552992959,0.377826112460387
"250",28,36,2,1,10,1,1,1,5,0.466624139002048,0.512480918513659
"251",28,23,2,1,11,1,1,1,4,0.507627494055794,0.552232551156928
"252",28,40,2,2,12,1,1,0,4,0.556412076077364,0.601960132356393
"253",28,38,2,2,13,2,1,0,2,0.479448802078884,0.531392018117702
"254",28,34,2,1,14,2,2,0,3,0.878038442865458,0.858084785167201
"255",28,40,2,1,15,2,2,0,3,0.90028308273333,0.98486486275866
"256",28,38,2,1,16,1,2,0,4,0.332119741453864,0.333411001001136
"257",28,33,2,1,17,3,1,1,3,0.925613186941832,0.91045447752721
"258",28,37,2,1,18,3,2,0,2,0.823897170379233,0.899362386607059
"259",28,23,2,2,19,1,2,1,5,0.462583529737357,0.449341356555351
"260",28,36,2,2,20,2,2,1,3,0.487402168805008,0.512112376214975
"261",28,23,2,2,21,3,1,0,2,1.18406908082874,1.18473720680844
"262",28,40,2,2,22,2,2,1,3,0.569997687931821,0.587142549930713
"263",28,38,2,1,23,2,1,1,3,0.661271581739622,0.672684014941558
"264",28,34,2,1,24,2,2,0,2,0.644102562431053,0.581163599699936
"265",28,40,2,1,25,1,2,0,4,0.592159811423329,0.736673102081208
"266",28,38,2,2,26,2,2,1,4,0.547703962147307,0.464141152926728
"267",28,33,2,2,27,3,2,1,2,0.545045923906176,0.612561355688912
"268",28,37,2,1,28,3,2,0,2,0.634790039209133,0.616676380715197
"269",28,23,2,2,29,2,1,0,2,0.481035675497891,0.420575439583691
"270",28,36,2,1,30,1,1,1,5,0.444728247431198,0.441510477563529
"271",28,23,2,1,31,2,1,1,3,0.404172544699146,0.360049132010187
"272",28,40,2,2,32,3,1,0,2,0.552707749783484,0.564557523104929
"273",28,38,2,2,33,3,1,0,2,0.99190234441242,1.00401474946101
"274",28,34,2,1,34,2,1,1,3,0.643942546100225,0.616358033548441
"275",28,40,2,2,35,3,1,0,1,0.784660297085003,0.72990587912123
"276",28,38,2,2,36,3,2,1,2,0.467215102647681,0.363579507581807
"277",28,33,2,1,37,2,1,1,3,0.633921577405484,0.614558491400558
"278",28,37,2,1,38,3,2,0,2,0.798321865189128,0.801017513581856
"279",28,23,2,2,39,2,1,0,3,0.75551174124425,0.774553204389973
"280",28,36,2,2,40,1,2,1,5,0.460193989547557,0.540529610264461
"281",28,23,2,1,41,2,1,1,3,0.342210254008524,0.339777131953826
"282",28,40,2,2,42,3,2,1,3,0.73150942610509,0.732400058333696
"283",28,38,2,2,43,2,2,1,3,0.540612457033736,0.444565607142702
"284",28,34,2,2,44,3,1,0,2,0.374479012723661,0.403379446170555
"285",28,40,2,1,45,2,2,0,2,0.641076307488465,0.664317118531594
"286",28,38,2,2,46,1,2,1,5,0.314231021148057,0.279576767517488
"287",28,33,2,2,47,3,1,0,1,1.04457371473124,1.08846816911532
"288",28,37,2,1,48,2,1,1,3,0.690967370671428,0.65061298491204
"289",28,23,2,1,49,1,1,1,5,0.374554484785656,0.375148467863866
"290",28,36,2,1,50,2,1,1,4,0.865677742517055,0.826193332562589
"291",28,23,2,2,51,2,2,1,4,0.780261226528694,0.756355629472528
"292",28,40,2,2,52,2,2,1,4,0.328880122505903,0.41906101259867
"293",28,38,2,2,53,3,1,0,1,1.5784035170391,1.53153271035447
"294",28,34,2,2,54,2,2,1,4,0.44268003109288,0.373121640568293
"295",28,40,2,1,55,3,2,0,2,0.350448849581453,0.307079729228353
"296",28,38,2,2,56,2,1,0,3,0.609671787826985,0.56888085613665
"297",28,33,2,1,57,2,1,1,3,0.531037146192969,0.565149817416351
"298",28,37,2,2,58,1,2,1,4,0.57431029521079,0.557961254407677
"299",28,23,2,1,59,1,1,1,4,0.404792735453614,0.478730130972037
"300",28,36,2,2,60,3,1,0,2,1.21125973867519,1.24417925095229
"301",28,23,2,1,61,2,2,0,2,0.92167466089603,0.971092959841295
"302",28,40,2,2,62,3,2,1,3,0.747060809612276,0.838704116936248
"303",28,38,2,1,63,2,1,1,4,0.652483816657078,0.630554513706951
"304",28,34,2,1,64,1,2,0,3,0.725616981526415,0.669990141051831
"305",28,40,2,2,65,2,2,1,3,0.560737536010496,0.54957838859255
"306",28,38,2,1,66,3,1,1,2,0.898744198110197,0.994487672827696
"307",28,33,2,1,67,2,2,0,2,0.306691649461966,0.34757592891039
"308",28,37,2,1,68,1,2,0,3,0.578687468840032,0.558180160935148
"309",28,23,2,1,69,1,1,1,4,0.404248583787735,0.427863139811376
"310",28,36,2,2,70,2,1,0,3,0.683294765148399,0.677831126101698
"311",28,23,2,2,71,2,2,1,3,0.671013245951846,0.663678611188249
"312",28,40,2,1,72,2,1,1,4,0.590513316270938,0.550101762360878
"313",28,38,2,2,73,1,2,1,5,0.387861033724029,0.349097826870074
"314",28,34,2,1,74,1,1,1,5,0.442026627710878,0.417867398602302
"315",28,40,2,2,75,3,1,0,2,0.897184504999593,0.902465801023637
"316",28,38,2,1,76,2,1,1,3,0.501919264763489,0.544943205743378
"317",28,33,2,1,77,3,2,0,1,1.28081004520283,1.28878385219102
"318",28,37,2,1,78,2,1,1,3,0.514971515691912,0.49499468084958
"319",28,23,2,2,79,1,2,1,4,0.404045425804345,0.309714760087566
"320",28,36,2,2,80,3,2,1,2,0.516843488427097,0.601793576891825
"321",28,23,2,1,81,1,1,1,4,0.478184875221616,0.388404075402652
"322",28,40,2,2,82,1,2,1,4,0.403440106721129,0.352081123532763
"323",28,38,2,2,83,2,2,1,3,0.74910624469033,0.798166051288544
"324",28,34,2,1,84,3,1,1,3,0.482132702094201,0.406197855190461
"325",28,40,2,1,85,1,1,1,4,0.430299749485416,0.45097552841365
"326",28,38,2,1,86,2,2,0,2,0.820984566445269,0.795615355878219
"327",28,33,2,1,87,1,1,1,4,0.514373721933933,0.537868032644119
"328",28,37,2,1,88,2,2,0,2,0.78239912687318,0.800796648821947
"329",28,23,2,1,89,1,1,1,5,0.365944157643609,0.358225077168315
"330",28,36,2,2,90,3,1,0,1,1.33185203501171,1.25757340779167
"331",28,23,2,1,91,2,2,0,3,0.795081335625445,0.849352649412706
"332",28,40,2,1,92,3,1,1,2,0.482721154678555,0.445555838312177
"333",28,38,2,2,93,3,2,1,3,0.874937728299017,0.89491718678039
"334",28,34,2,2,94,2,2,1,4,0.344923318992929,0.367304968269029
"335",28,40,2,1,95,1,1,1,5,0.497743209641883,0.488915524002984
"336",28,38,2,1,96,2,2,0,3,0.698100427888413,0.682350898471226
"337",28,33,2,1,97,1,1,1,4,0.408278129257648,0.438115469554204
"338",28,37,2,2,98,3,2,1,2,0.580041845762825,0.590951434570927
"339",28,23,2,2,99,2,1,0,3,0.506392953456802,0.491180591985355
"340",28,36,2,2,100,2,1,0,3,0.559399609515311,0.410133986619914
"341",28,23,2,1,101,2,1,1,3,0.487049108613196,0.478403744866411
"342",28,40,2,1,102,1,1,1,5,0.264156115773031,0.198995390719902
"343",28,38,2,2,103,3,2,1,3,0.74576632982005,0.748287179483361
"344",28,34,2,1,104,3,1,1,3,0.929217305611188,0.844850810022506
"345",28,40,2,1,105,2,1,1,4,0.820263003754473,0.836597402734078
"346",28,38,2,2,106,1,1,0,3,0.59564434277978,0.617237408723217
"347",28,33,2,2,107,2,2,1,4,0.620305365786726,0.53727872868282
"348",28,37,2,1,108,3,1,1,3,0.96320937095386,0.953617575485958
"349",28,23,2,2,109,3,2,1,2,0.694003862087279,0.692413943057568
"350",28,36,2,1,110,2,1,1,3,0.631595045973808,0.52895679337312
"351",28,23,2,2,111,1,2,1,5,0.537098175522657,0.463040681477158
"352",28,40,2,2,112,1,2,1,4,0.367301185801752,0.319575965172523
"353",28,38,2,2,113,3,1,0,2,1.1768224604239,1.11817923808824
"354",28,34,2,2,114,1,2,1,4,0.241980094448616,0.274445312441758
"355",28,40,2,1,115,3,1,1,2,1.03758748961156,1.06745110714497
"356",28,38,2,1,116,1,1,1,5,0.341333290777567,0.418775473964697
"357",28,33,2,2,117,2,2,1,4,0.540427517596599,0.551236840411996
"358",28,37,2,2,118,2,2,1,3,0.551723342463617,0.549361958784941
"359",28,23,2,1,119,3,1,1,3,1.05716681787428,1.01262520258745
"360",28,36,2,2,120,1,2,1,5,0.520090238081046,0.494667538430592
"361",28,23,2,2,121,3,1,0,2,1.24955246648578,1.30549357458769
"362",28,40,2,2,122,3,2,1,3,0.754866437169631,0.700338206296089
"363",28,38,2,1,123,3,1,1,3,0.601724677331693,0.557857976445391
"364",28,34,2,1,124,3,2,0,1,0.845770664459983,0.813189544771377
"365",28,40,2,2,125,2,2,1,4,0.951760769552121,0.897250186743226
"366",28,38,2,2,126,2,2,1,3,0.484822276799,0.523615814948809
"367",28,33,2,2,127,2,2,1,3,0.669971792491617,0.729340147641605
"368",28,37,2,2,128,1,2,1,4,0.42476444790083,0.420201866882969
"369",28,23,2,1,129,3,2,0,2,1.09224307509872,1.06998362190836
"370",28,36,2,2,130,1,1,0,3,0.64855333707624,0.623645309971792
"371",28,23,2,2,131,1,2,1,4,0.24134460357257,0.135644844752823
"372",28,40,2,2,132,1,2,1,5,0.461119093810528,0.410466441604017
"373",28,38,2,1,133,1,1,1,5,0.356214559227014,0.349711029137504
"374",28,34,2,1,134,1,1,1,4,0.428559624741893,0.323750371047399
"375",28,40,2,1,135,3,2,0,1,1.11345273794926,1.1026070044642
"376",28,38,2,1,136,3,2,0,2,1.17710206906528,1.23539421636489
"377",28,33,2,2,137,3,1,0,2,0.716099126016932,0.684809811408437
"378",28,37,2,2,138,1,2,1,5,0.275853941718645,0.297448695820579
"379",28,23,2,1,139,1,1,1,4,0.466008233512168,0.499851847581775
"380",28,36,2,1,140,1,2,0,4,0.543306038172959,0.590518694301116
"381",28,23,2,1,141,2,2,0,3,0.692369908640004,0.694880149879777
"382",28,40,2,2,142,2,1,0,2,0.832729091885343,0.800301512309121
"383",28,38,2,2,143,1,1,0,4,0.710095354198152,0.673107806435229
"384",28,34,2,2,144,3,1,0,2,0.83811795259902,0.830152402387327
"385",28,40,2,2,145,3,1,0,2,0.383224615819465,0.375641031830689
"386",28,38,2,2,146,2,2,1,3,0.565142170849541,0.550213383534648
"387",28,33,2,2,147,1,2,1,4,0.393539269301044,0.453809940397731
"388",28,37,2,2,148,2,1,0,3,0.593277434067651,0.617289113598955
"389",28,23,2,1,149,1,1,1,4,0.268794959782718,0.271960328991705
"390",28,36,2,2,150,2,1,0,3,0.717251545341755,0.712194324385845
"391",28,23,2,2,151,1,1,0,3,0.468005902259247,0.429516181740995
"392",28,40,2,1,152,2,2,0,2,0.624553222860239,0.656341582545338
"393",28,38,2,2,153,3,1,0,1,0.833725472086397,0.878420809472028
"394",28,34,2,2,154,3,1,0,1,1.55207925924776,1.54607704888279
"395",28,40,2,2,155,3,2,1,3,0.784650135390494,0.802658020781533
"396",28,38,2,1,156,2,2,0,3,0.567440031216388,0.592589528075058
"397",28,33,2,1,157,2,2,0,3,0.630636699690137,0.648694042833604
"398",28,37,2,1,158,2,1,1,3,0.631440978154651,0.627522622998811
"399",28,23,2,1,159,1,1,1,4,0.409375953789651,0.510940496748596
"400",28,36,2,2,160,1,2,1,4,0.437558328983375,0.437822572785295
"401",28,23,2,1,161,2,1,1,3,0.567141614440278,0.554450011373458
"402",28,40,2,1,162,3,2,0,2,0.371420854399532,0.367100269148098
"403",28,38,2,2,163,3,2,1,2,1.1314871459139,1.09633074819368
"404",28,34,2,2,164,1,2,1,5,0.47461140890247,0.517858258205965
"405",28,40,2,1,165,3,2,0,1,0.947246474417281,0.912583424256669
"406",28,38,2,1,166,1,2,0,4,0.523085112167514,0.581942911799112
"407",28,33,2,1,167,1,1,1,5,0.350811884728122,0.403316095898991
"408",28,37,2,2,168,1,2,1,4,0.396740373063275,0.415067714032088
"409",28,23,2,2,169,3,1,0,1,0.779013871365872,0.708827428582603
"410",28,36,2,2,170,2,1,0,3,0.755380766532113,0.778177827916168
"411",28,23,2,1,171,1,1,1,4,0.397870919549935,0.450053234442656
"412",28,40,2,2,172,1,2,1,5,0.369536501641546,0.328680529519508
"413",28,38,2,2,173,1,1,0,3,0.55567702946879,0.53022400014698
"414",28,34,2,1,174,1,1,1,4,0.429906537272091,0.515940176162621
"415",28,40,2,2,175,1,1,0,3,0.574472276149309,0.564893999292905
"416",28,38,2,2,176,2,1,0,3,0.498611035858075,0.498651450724379
"417",28,33,2,1,177,3,1,1,3,0.75574985405112,0.741795005538033
"418",28,37,2,1,178,3,2,0,1,0.66167613524953,0.690225056639869
"419",28,23,2,1,179,2,1,1,3,0.483940786374632,0.550295421210911
"420",28,36,2,1,180,2,1,1,3,0.645879436819572,0.718552690515127
"421",28,23,2,1,181,3,1,1,2,0.753221316076461,0.710431858540716
"422",28,40,2,2,182,1,2,1,4,0.527334367595181,0.564179800623711
"423",28,38,2,2,183,1,2,1,4,0.34371274197432,0.360115372930527
"424",28,34,2,1,184,1,1,1,4,0.526008167099172,0.543023838276107
"425",28,40,2,2,185,1,1,0,4,0.433776731473013,0.476333778634343
"426",28,38,2,1,186,3,2,0,1,0.489718651501363,0.481893933969679
"427",28,33,2,1,187,3,2,0,2,0.969363305825733,0.933871115088076
"428",28,37,2,2,188,2,1,0,2,0.794585831630889,0.774399288876494
"429",28,23,2,1,189,1,1,1,5,0.509609588927668,0.488587853081889
"430",28,36,2,2,190,1,2,1,5,0.418380113222638,0.393385496881036
"431",28,23,2,1,191,1,1,1,5,0.338659644032889,0.403365426882891
"432",28,40,2,2,192,3,2,1,3,0.668440153357127,0.656201913757235
"433",28,38,2,2,193,3,1,0,1,1.16023805806707,1.08558053553053
"434",28,34,2,2,194,1,1,0,4,0.47887344505139,0.496377532608068
"435",28,40,2,1,195,3,1,1,3,0.660884280605729,0.651144434038714
"436",28,38,2,2,196,3,1,0,2,1.15423876736034,1.05675641696963
"437",28,33,2,1,197,3,2,0,1,1.01008130383616,1.00535226730156
"438",28,37,2,1,198,2,1,1,4,0.65253018152611,0.581371706441366
"439",28,23,2,2,199,3,1,0,2,0.910653649217896,0.885769190122284
"440",28,36,2,2,200,1,2,1,5,0.401174361306861,0.353685117707043
"441",28,23,2,2,201,1,2,1,5,0.381039677632305,0.510868411514665
"442",28,40,2,2,202,3,2,1,3,1.01997193196218,0.988662952499932
"443",28,38,2,1,203,3,2,0,2,0.753208728036328,0.727686814062655
"444",28,34,2,2,204,2,2,1,4,0.510976805290123,0.503609954236459
"445",28,40,2,2,205,3,1,0,1,0.739212170081243,0.725703065864431
"446",28,38,2,1,206,2,2,0,3,0.608080776910365,0.582533301975837
"447",28,33,2,2,207,3,1,0,2,0.716485961111381,0.702806270188473
"448",28,37,2,1,208,1,1,1,4,0.474035525091453,0.467261744579299
"449",28,23,2,1,209,1,1,1,5,0.435996937005483,0.328025995171937
"450",28,36,2,2,210,1,2,1,5,0.43636879869306,0.496079315256452
"451",28,23,2,2,211,3,2,1,2,0.670105485406802,0.678416905475694
"452",28,40,2,2,212,1,2,1,4,0.425897411290891,0.407222729095457
"453",28,38,2,1,213,3,1,1,3,0.429472850275501,0.419337385062054
"454",28,34,2,1,214,2,2,0,3,0.947829435951752,1.06400756520807
"455",28,40,2,1,215,3,1,1,3,0.606418900000777,0.609821286115149
"456",28,38,2,1,216,3,2,0,1,0.645416876573242,0.671509109607198
"457",28,33,2,2,217,1,2,1,4,0.360404454495861,0.338358672915154
"458",28,37,2,1,218,3,1,1,3,0.674373983840154,0.651544386338644
"459",28,23,2,2,219,2,2,1,4,0.598210516600797,0.605783144991017
"460",28,36,2,1,220,2,2,0,3,0.690773718927742,0.702381270201889
"461",28,23,2,2,221,1,2,1,5,0.427598932927715,0.467844006296603
"462",28,40,2,2,222,3,2,1,3,0.817331052808539,0.811845838176186
"463",28,38,2,2,223,3,1,0,2,0.423287478150769,0.579480483038105
"464",28,34,2,1,224,1,1,1,5,0.472251713126066,0.482735416764106
"465",28,40,2,1,225,2,2,0,3,0.734568747454663,0.672703504063844
"466",28,38,2,1,226,2,2,0,3,0.660191716001777,0.556688282947323
"467",28,33,2,2,227,3,1,0,2,1.22203418013782,1.2504548461657
"468",28,37,2,2,228,2,2,1,3,0.810383796001016,0.790667446048807
"469",28,23,2,1,229,1,1,1,4,0.304222152071533,0.368586923272548
"470",28,36,2,1,230,2,1,1,3,0.761860026337061,0.687786368599053
"471",28,23,2,1,231,2,2,0,3,0.994856214857084,1.09260160598818
"472",28,40,2,2,232,1,2,1,5,0.431738262050331,0.498553322781548
"473",28,38,2,1,233,2,1,1,4,0.499642418910231,0.425969636279721
"474",28,34,2,1,234,2,1,1,3,0.538101592700067,0.654794133252836
"475",28,40,2,2,235,3,2,1,3,0.764861760626791,0.827954055108357
"476",28,38,2,1,236,3,1,1,3,0.888862524396246,0.857250999937243
"477",28,33,2,2,237,2,2,1,3,0.651413974774578,0.643154245559816
"478",28,37,2,2,238,1,2,1,4,0.438215683023158,0.394372969957306
"479",28,23,2,1,239,3,1,1,2,0.787768581071912,0.766089499229241
"480",28,36,2,1,240,3,1,1,3,0.971316068417144,0.879377879457395
"481",27,25,1,1,1,2,2,0,3,0.939298698398282,0.953219321851019
"482",27,31,1,1,2,1,1,1,4,0.318372027483652,0.280992528495976
"483",27,27,1,2,3,1,2,1,5,0.515325696154003,0.568565710791299
"484",27,37,1,1,4,2,1,1,3,0.65715362549688,0.694216685326828
"485",27,39,1,2,5,3,2,1,2,1.03119633075904,1.05834173908998
"486",27,40,1,1,6,3,2,0,1,0.875310917582259,0.911782163919528
"487",27,22,1,2,7,3,2,1,2,0.891183349388994,0.894102539399112
"488",27,30,1,2,8,1,2,1,5,0.306543988111433,0.333869848625295
"489",27,24,1,1,9,3,1,1,3,0.708721006723383,0.632370335461155
"490",27,22,1,1,10,2,1,1,4,0.756819732169651,0.828315385521117
"491",27,25,1,2,11,2,2,1,3,0.709371209490815,0.808693892174755
"492",27,31,1,2,12,3,2,1,2,1.04635721567326,1.07420975268232
"493",27,27,1,2,13,2,2,1,4,0.684993180190361,0.657215853959128
"494",27,37,1,2,14,2,2,1,4,0.707370616505126,0.640411004858116
"495",27,39,1,1,15,1,1,1,5,0.37799270312916,0.454710337668092
"496",27,40,1,1,16,2,2,0,3,0.848415372864849,0.810969932126846
"497",27,22,1,2,17,3,2,1,2,1.29088226345588,1.26309899476331
"498",27,30,1,1,18,1,1,1,5,0.419643487613601,0.335697184627153
"499",27,24,1,2,19,1,2,1,4,0.467283310198841,0.421443895355882
"500",27,22,1,2,20,2,2,1,3,0.825183921099073,0.823687065418125
"501",27,25,1,1,21,3,2,0,1,1.29481953758349,1.23349123720576
"502",27,31,1,2,22,3,2,1,3,0.636934170096504,0.710134944299264
"503",27,27,1,2,23,1,2,1,5,0.280972629882071,0.274156994456859
"504",27,37,1,2,24,3,1,0,1,1.35809502266647,1.29623019097945
"505",27,39,1,1,25,1,1,1,5,0.485303820755257,0.463944468777288
"506",27,40,1,1,26,1,1,1,4,0.459761691360924,0.619658370199169
"507",27,22,1,1,27,2,1,1,4,0.781636573056347,0.744987453213019
"508",27,30,1,1,28,2,2,0,2,0.611132548844047,0.642624460329219
"509",27,24,1,2,29,1,2,1,4,0.402709216485408,0.379655847539197
"510",27,22,1,2,30,2,2,1,3,0.51596108715723,0.514190372508476
"511",27,25,1,1,31,1,2,0,4,0.647616124265027,0.716134565607583
"512",27,31,1,2,32,2,2,1,4,0.522784719842341,0.546231102157597
"513",27,27,1,1,33,3,1,1,2,0.647896740199011,0.559931716463764
"514",27,37,1,1,34,3,1,1,2,0.993275263706906,0.973670198686284
"515",27,39,1,1,35,1,1,1,4,0.520956501953335,0.550875563995173
"516",27,40,1,1,36,2,2,0,3,0.830430203424238,0.836265603102003
"517",27,22,1,1,37,1,1,1,5,0.392786783281097,0.400371378843112
"518",27,30,1,2,38,1,2,1,4,0.280449693317788,0.234848407117836
"519",27,24,1,2,39,1,2,1,5,0.579952837091949,0.652736700365645
"520",27,22,1,2,40,2,2,1,4,0.626349691153568,0.627467497862917
"521",27,25,1,2,41,1,2,1,5,0.428465173538803,0.41028757202311
"522",27,31,1,2,42,1,2,1,5,0.436159688906187,0.502062386361276
"523",27,27,1,1,43,1,1,1,5,0.375278396490581,0.393688911046382
"524",27,37,1,1,44,2,1,1,3,0.529906336988746,0.494468803401339
"525",27,39,1,2,45,1,2,1,4,0.449444808451581,0.424920706963833
"526",27,40,1,1,46,3,2,0,1,1.09731691199141,1.18250275866091
"527",27,22,1,1,47,1,1,1,4,0.462559020397235,0.573147547496106
"528",27,30,1,1,48,1,2,0,3,0.523092832613281,0.467245271041607
"529",27,24,1,2,49,3,1,0,1,1.19429480629188,1.22934807282478
"530",27,22,1,2,50,2,1,0,2,1.12751629638622,1.26664503666112
"531",27,25,1,1,51,3,1,1,2,0.973051156721351,0.883607403184878
"532",27,31,1,2,52,3,2,1,2,1.04833124107556,1.04557205878419
"533",27,27,1,1,53,1,1,1,5,0.390653161731765,0.446639040528094
"534",27,37,1,1,54,3,2,0,2,0.818093090357281,0.828917946483481
"535",27,39,1,2,55,3,1,0,1,0.909481417371011,0.856342445783592
"536",27,40,1,1,56,2,1,1,3,0.626863981839195,0.695819625259562
"537",27,22,1,2,57,1,2,1,5,0.404635105964427,0.384660235916072
"538",27,30,1,2,58,1,1,0,3,0.449830331699003,0.401132384193501
"539",27,24,1,2,59,3,2,1,3,0.392647538608452,0.278200382120649
"540",27,22,1,2,60,3,2,1,2,1.16986075411934,1.17124944091231
"541",27,25,1,2,61,3,1,0,2,0.612186057906056,0.716199374337129
"542",27,31,1,2,62,3,1,0,1,0.688087499461323,0.70178108018346
"543",27,27,1,1,63,1,2,0,4,0.508850435150578,0.529312892572655
"544",27,37,1,2,64,1,2,1,4,0.367066239905981,0.368196950908432
"545",27,39,1,1,65,2,1,1,4,0.955057543875756,1.00655577289028
"546",27,40,1,2,66,3,2,1,2,0.896537257208622,0.937804587520531
"547",27,22,1,1,67,2,1,1,4,0.582085080970661,0.611061508192962
"548",27,30,1,2,68,3,2,1,2,1.20391461605008,1.18760148744343
"549",27,24,1,2,69,1,1,0,4,0.642284679518438,0.639204392197825
"550",27,22,1,1,70,2,1,1,4,0.445723569507259,0.355005721073051
"551",27,25,1,2,71,3,1,0,1,0.896670636280763,0.838350469416067
"552",27,31,1,1,72,2,2,0,2,0.459709710230204,0.434369594638812
"553",27,27,1,2,73,3,1,0,2,0.815192150753188,0.89818044790808
"554",27,37,1,1,74,2,1,1,4,0.331115940887558,0.381552314299496
"555",27,39,1,2,75,3,1,0,2,0.890894621066351,0.902663726311005
"556",27,40,1,1,76,3,2,0,2,0.55062871073681,0.421443703159989
"557",27,22,1,1,77,2,2,0,2,0.735466147546535,0.687806761351376
"558",27,30,1,2,78,1,2,1,4,0.590021164425022,0.486058639204125
"559",27,24,1,2,79,3,1,0,1,1.1527952397558,1.08569679715966
"560",27,22,1,2,80,1,2,1,4,0.439066431005885,0.444004697772874
"561",27,25,1,1,81,1,1,1,4,0.463788930685532,0.516925877905363
"562",27,31,1,1,82,3,1,1,2,0.903479985969743,0.890667860142316
"563",27,27,1,2,83,2,2,1,3,0.639510174852603,0.56445495293477
"564",27,37,1,2,84,2,2,1,4,0.678108629892658,0.658306013995917
"565",27,39,1,1,85,2,1,1,4,0.591737664760067,0.614126949022175
"566",27,40,1,1,86,1,1,1,5,0.330642071764409,0.300920416861678
"567",27,22,1,1,87,3,2,0,2,1.10725217087423,1.07592691366409
"568",27,30,1,1,88,3,1,1,3,0.960463666334746,0.943258759446944
"569",27,24,1,1,89,3,1,1,3,0.499989268141344,0.515153530600605
"570",27,22,1,1,90,3,2,0,2,1.6760135791028,1.75997119359914
"571",27,25,1,2,91,2,1,0,2,0.645217457450758,0.617985491430685
"572",27,31,1,1,92,3,1,1,3,0.6006612723351,0.631867508274439
"573",27,27,1,1,93,3,2,0,1,1.02477498480218,0.946362823296938
"574",27,37,1,1,94,1,1,1,4,0.500226817716059,0.442591928765357
"575",27,39,1,1,95,1,1,1,4,0.430334787247629,0.392246851781044
"576",27,40,1,2,96,3,1,0,2,0.604494162761777,0.554763067762947
"577",27,22,1,1,97,1,1,1,5,0.415580582435802,0.419893070034011
"578",27,30,1,2,98,1,2,1,5,0.575909187702438,0.549183110612584
"579",27,24,1,2,99,2,1,0,3,0.673198888369111,0.611588209506111
"580",27,22,1,2,100,2,2,1,3,0.553833130720589,0.541944169213536
"581",27,25,1,1,101,1,1,1,4,0.258199492238338,0.234456498979913
"582",27,31,1,2,102,3,1,0,1,1.1522416200077,1.15658447582461
"583",27,27,1,2,103,2,2,1,4,0.612766553185744,0.644605438801934
"584",27,37,1,1,104,3,2,0,2,1.02118908260329,1.01266294589282
"585",27,39,1,2,105,3,1,0,2,1.44916228227511,1.50877855048913
"586",27,40,1,2,106,1,2,1,4,0.475455056006168,0.594487598764561
"587",27,22,1,2,107,1,2,1,5,0.388077816901157,0.252225058710889
"588",27,30,1,1,108,1,1,1,5,0.504327570501931,0.460286913853592
"589",27,24,1,2,109,2,1,0,3,0.671838783491154,0.694364834987178
"590",27,22,1,1,110,1,1,1,5,0.482461620878904,0.484636957008517
"591",27,25,1,2,111,1,2,1,5,0.385459588880904,0.403190812763089
"592",27,31,1,2,112,2,1,0,3,0.574281750888178,0.552150768884849
"593",27,27,1,1,113,2,1,1,3,0.633580060462285,0.660990069372896
"594",27,37,1,2,114,1,2,1,5,0.431079375366849,0.47734441498711
"595",27,39,1,2,115,1,2,1,5,0.419459087836081,0.403486194598809
"596",27,40,1,2,116,1,2,1,5,0.244513419151503,0.196378803485493
"597",27,22,1,2,117,1,2,1,4,0.431658141395776,0.371307213138973
"598",27,30,1,1,118,1,1,1,5,0.38061747420666,0.327988563042758
"599",27,24,1,2,119,2,1,0,2,0.749442792395405,0.723545025641196
"600",27,22,1,1,120,1,2,0,3,0.512432765420446,0.519664103565701
"601",27,25,1,2,121,3,2,1,3,0.598693363308907,0.614710266446047
"602",27,31,1,1,122,2,1,1,3,0.743265589825818,0.740380055354804
"603",27,27,1,2,123,1,2,1,5,0.361129070032434,0.360782603406991
"604",27,37,1,2,124,3,1,0,1,0.967979053119883,1.02190568116846
"605",27,39,1,1,125,3,1,1,2,1.06084981625038,1.07019189115547
"606",27,40,1,1,126,2,1,1,3,0.770693159555276,0.657642981717682
"607",27,22,1,2,127,1,2,1,5,0.522833489155656,0.46409620655457
"608",27,30,1,2,128,2,2,1,4,0.521501402108969,0.547057602969431
"609",27,24,1,1,129,1,1,1,4,0.381180782694087,0.342013469849319
"610",27,22,1,2,130,2,2,1,4,0.761942709998091,0.783564592817306
"611",27,25,1,2,131,3,1,0,1,0.552310847291883,0.508260617446201
"612",27,31,1,2,132,1,2,1,5,0.492423848186282,0.447329298191629
"613",27,27,1,2,133,1,1,0,3,0.50474683497791,0.591396281812274
"614",27,37,1,1,134,1,1,1,5,0.360243438023714,0.317966544713767
"615",27,39,1,1,135,2,1,1,4,0.826066153871945,0.787462347389237
"616",27,40,1,1,136,2,1,1,4,0.536402565042822,0.579418690952895
"617",27,22,1,1,137,3,1,1,2,0.546070278438515,0.592327134856476
"618",27,30,1,2,138,3,2,1,2,0.946743473485155,0.990614297040778
"619",27,24,1,1,139,3,1,1,2,0.786862845742848,0.81183829118625
"620",27,22,1,2,140,3,1,0,2,1.13877017775179,1.23269114353944
"621",27,25,1,2,141,1,2,1,5,0.565264334537916,0.612813120041625
"622",27,31,1,1,142,2,2,0,3,0.858131576644814,0.793952116432391
"623",27,27,1,1,143,2,1,1,3,0.458182416932003,0.48010198106516
"624",27,37,1,2,144,2,1,0,3,0.97276532460203,0.914557350173243
"625",27,39,1,2,145,3,1,0,2,0.446591710038992,0.402287844101155
"626",27,40,1,1,146,3,1,1,2,0.806015965071433,0.809248835938658
"627",27,22,1,2,147,2,1,0,2,0.847147637705211,0.806791647542993
"628",27,30,1,2,148,2,1,0,2,0.628698955032686,0.597762129564826
"629",27,24,1,1,149,2,1,1,3,0.665789899921712,0.680234805637962
"630",27,22,1,2,150,3,2,1,2,1.03715678344931,0.950522096026783
"631",27,25,1,1,151,3,2,0,1,0.413309940955472,0.480879678101155
"632",27,31,1,2,152,2,1,0,2,0.894732951927057,0.973513146654279
"633",27,27,1,2,153,3,2,1,3,0.847653335027786,0.88895178164897
"634",27,37,1,1,154,1,1,1,4,0.331229628935361,0.325683903545032
"635",27,39,1,1,155,3,2,0,2,1.09344785272546,1.08810714127849
"636",27,40,1,1,156,3,2,0,1,1.69331134571384,1.76575217573734
"637",27,22,1,2,157,3,2,1,3,0.799819951207574,0.789305488523941
"638",27,30,1,2,158,3,2,1,2,0.770576830333463,0.768834588487375
"639",27,24,1,1,159,3,2,0,1,0.540303583777072,0.457624835154412
"640",27,22,1,1,160,3,1,1,3,0.842905097972752,0.928670883480625
"641",27,25,1,2,161,3,1,0,2,0.664424153435828,0.623038562347886
"642",27,31,1,1,162,3,1,1,3,0.691353508353292,0.651107915181906
"643",27,27,1,1,163,2,2,0,2,0.602138023260426,0.684730703282956
"644",27,37,1,1,164,3,1,1,3,0.976630095469429,1.03008900494596
"645",27,39,1,2,165,1,2,1,4,0.333685379749909,0.324174262459507
"646",27,40,1,2,166,2,2,1,3,0.668662146326463,0.712099353313932
"647",27,22,1,1,167,2,1,1,4,0.611488892089516,0.568688438173285
"648",27,30,1,1,168,3,2,0,1,0.814517121986239,0.780496542987178
"649",27,24,1,1,169,2,1,1,4,0.730342726093785,0.727395512380743
"650",27,22,1,1,170,3,2,0,1,0.500284351367357,0.511919016606726
"651",27,25,1,1,171,3,2,0,2,1.5989011189114,1.55509017205455
"652",27,31,1,1,172,2,1,1,3,0.433803355256253,0.524074174368714
"653",27,27,1,1,173,1,1,1,4,0.45293005633816,0.443013552497508
"654",27,37,1,1,174,3,2,0,2,0.995458967196643,0.926519813894466
"655",27,39,1,1,175,2,1,1,3,0.783973222566866,0.782447882847919
"656",27,40,1,1,176,2,1,1,3,0.570350976479151,0.60045831871102
"657",27,22,1,1,177,1,2,0,3,0.527693689042935,0.542806454855896
"658",27,30,1,2,178,2,2,1,4,0.486433566713251,0.481499604196634
"659",27,24,1,2,179,1,1,0,4,0.608981125968059,0.594364145133597
"660",27,22,1,2,180,2,2,1,4,0.636339402870941,0.612538478659689
"661",27,25,1,2,181,2,1,0,3,0.826444894770647,0.849258809155227
"662",27,31,1,1,182,3,1,1,3,0.675261878942597,0.727105558194146
"663",27,27,1,1,183,2,1,1,4,0.529828653607372,0.581214045248527
"664",27,37,1,1,184,1,1,1,5,0.296574236713584,0.250526703027037
"665",27,39,1,1,185,2,2,0,3,0.661247929857893,0.63084998272522
"666",27,40,1,1,186,3,2,0,2,0.47625388150192,0.496741866845711
"667",27,22,1,1,187,1,1,1,5,0.42658200778659,0.448115203345487
"668",27,30,1,2,188,2,1,0,2,0.561954397769776,0.520559242620006
"669",27,24,1,2,189,2,2,1,3,0.536193652833851,0.641316025370902
"670",27,22,1,2,190,3,1,0,2,0.895832581367222,0.943174805268966
"671",27,25,1,2,191,2,2,1,3,0.621219617312617,0.669406147274863
"672",27,31,1,2,192,3,1,0,2,1.21780212769492,1.20186355491931
"673",27,27,1,2,193,1,1,0,4,0.4030901255404,0.377928499774521
"674",27,37,1,2,194,3,1,0,1,0.937802395662771,1.01047122765428
"675",27,39,1,2,195,2,1,0,3,0.953761794374542,0.947671582664993
"676",27,40,1,1,196,3,1,1,2,0.930616741848314,1.01859328667445
"677",27,22,1,2,197,2,2,1,3,0.816786353209263,0.813055742140643
"678",27,30,1,2,198,3,2,1,3,0.927531728240912,0.960668810315998
"679",27,24,1,1,199,3,1,1,2,0.650614662439533,0.720247553417749
"680",27,22,1,1,200,2,1,1,4,0.627239443653718,0.589541478207928
"681",27,25,1,1,201,2,1,1,3,0.353393386825523,0.343237114276738
"682",27,31,1,2,202,3,2,1,3,0.874739109719016,0.850359777529668
"683",27,27,1,1,203,2,2,0,2,0.783043475144916,0.8381623419067
"684",27,37,1,1,204,1,1,1,4,0.406004268422392,0.372956162236216
"685",27,39,1,1,205,2,2,0,3,0.630378640094423,0.595302727115135
"686",27,40,1,1,206,2,1,1,4,0.739707999303672,0.708153146341481
"687",27,22,1,1,207,1,1,1,5,0.345451527494652,0.313763763418944
"688",27,30,1,2,208,3,2,1,2,1.00614976787528,0.973111255971651
"689",27,24,1,1,209,1,1,1,5,0.544310213396776,0.498331312136355
"690",27,22,1,2,210,2,1,0,3,0.628018413529334,0.587817714238393
"691",27,25,1,2,211,2,2,1,3,0.590552006270339,0.599044686923954
"692",27,31,1,1,212,1,1,1,5,0.484976560650272,0.432797688269578
"693",27,27,1,2,213,1,2,1,5,0.232033753629294,0.257484583116415
"694",27,37,1,2,214,1,2,1,5,0.323259761688099,0.385059152369998
"695",27,39,1,2,215,1,2,1,5,0.32031670944964,0.315918844671439
"696",27,40,1,2,216,1,2,1,5,0.602303478240167,0.477142260752299
"697",27,22,1,2,217,1,2,1,4,0.472480407834105,0.55220955753387
"698",27,30,1,1,218,1,1,1,4,0.496412219502093,0.572527933785328
"699",27,24,1,1,219,2,1,1,3,0.399764761758942,0.435669376140965
"700",27,22,1,2,220,2,1,0,3,0.556252556173016,0.596952643577569
"701",27,25,1,1,221,2,1,1,4,0.617230598399788,0.684698452545242
"702",27,31,1,1,222,3,2,0,1,1.33929259686323,1.31858646785814
"703",27,27,1,1,223,1,2,0,4,0.553613565752957,0.550707519701055
"704",27,37,1,1,224,2,2,0,2,0.680980766657953,0.676925472679039
"705",27,39,1,2,225,1,1,0,3,0.462965653136524,0.453668231657245
"706",27,40,1,1,226,2,1,1,3,0.668165092243057,0.718738455816864
"707",27,22,1,2,227,1,2,1,5,0.412665280655361,0.392766800982099
"708",27,30,1,1,228,1,1,1,5,0.495357432596458,0.476309886238832
"709",27,24,1,2,229,2,2,1,3,0.665869456843715,0.642146932193083
"710",27,22,1,2,230,3,1,0,1,0.514725162447855,0.601782247410758
"711",27,25,1,2,231,1,2,1,5,0.455319090603933,0.476378929980005
"712",27,31,1,2,232,3,1,0,2,0.608788627525191,0.651887892446477
"713",27,27,1,1,233,3,2,0,1,1.42488751263933,1.38587467060547
"714",27,37,1,1,234,1,1,1,4,0.459584316481784,0.474038317830083
"715",27,39,1,2,235,3,2,1,2,0.898093748208419,0.953390760203405
"716",27,40,1,2,236,2,1,0,2,0.820093378619214,0.743484505335996
"717",27,22,1,1,237,2,1,1,4,0.578124270487223,0.598595347626295
"718",27,30,1,1,238,2,2,0,2,0.718444179331132,0.741056602278896
"719",27,24,1,1,239,1,1,1,5,0.379926741644086,0.32792917202562
"720",27,22,1,2,240,1,2,1,4,0.192788518889308,0.170759293175359
"721",26,33,2,2,1,3,1,0,2,1.21217282098451,1.20674457200049
"722",26,32,2,1,2,3,1,1,3,1.20174832507335,1.16409347671695
"723",26,35,2,2,3,3,1,0,2,-0.405198607446584,-0.39562868051124
"724",26,27,2,1,4,2,2,0,2,0.50056376952164,0.4628869003573
"725",26,25,2,2,5,3,1,0,2,1.63183394123412,1.63369156431567
"726",26,32,2,2,6,3,2,1,2,1.08296438290549,1.03741090916372
"727",26,30,2,2,7,3,1,0,2,1.38760152745229,1.39770225191405
"728",26,30,2,1,8,1,1,1,5,0.3863431093424,0.350034443876084
"729",26,24,2,2,9,3,2,1,3,0.824290616088376,0.824628582155244
"730",26,32,2,1,10,1,1,1,5,0.325689554996056,0.297629002705427
"731",26,33,2,2,11,1,1,0,4,0.4775569818244,0.559084619022501
"732",26,32,2,1,12,2,2,0,3,0.988519764548895,0.932849414037094
"733",26,35,2,2,13,1,2,1,4,0.328399383732017,0.35121359426466
"734",26,27,2,2,14,2,1,0,2,0.741045386461972,0.717606057774293
"735",26,25,2,2,15,1,1,0,4,0.581108215912744,0.586541968075419
"736",26,32,2,2,16,3,2,1,2,0.976059192738724,0.952431605578556
"737",26,30,2,2,17,1,2,1,4,0.344580239198593,0.293142321026453
"738",26,30,2,1,18,1,2,0,3,0.872185329701073,0.844928058626822
"739",26,24,2,2,19,1,2,1,5,0.371193642795168,0.321948767648325
"740",26,32,2,2,20,1,2,1,4,0.565819892853177,0.611286330345258
"741",26,33,2,2,21,3,2,1,2,1.13841158271477,1.09199216578018
"742",26,32,2,2,22,1,2,1,5,0.390194821950476,0.396619264273871
"743",26,35,2,1,23,2,2,0,2,0.799670132694442,0.835277470972857
"744",26,27,2,2,24,3,2,1,3,0.94475422353555,0.896474291333543
"745",26,25,2,2,25,2,2,1,3,0.759242642857382,0.750689064056515
"746",26,32,2,2,26,1,2,1,4,0.406536693051884,0.522572962919241
"747",26,30,2,1,27,1,1,1,4,0.378556139457291,0.36333224033903
"748",26,30,2,2,28,3,1,0,2,1.33312970487061,1.29305940626041
"749",26,24,2,2,29,3,2,1,3,0.59944965797774,0.534958740665048
"750",26,32,2,2,30,2,1,0,2,0.909675991557323,0.856939397855579
"751",26,33,2,2,31,3,1,0,1,0.764953689113665,0.807449787665516
"752",26,32,2,1,32,3,2,0,2,1.21744104543251,1.27025843578054
"753",26,35,2,2,33,3,1,0,2,0.855453861852686,0.892412171010617
"754",26,27,2,1,34,1,1,1,4,0.367213654209825,0.342695019200888
"755",26,25,2,2,35,1,1,0,3,0.589774467746083,0.575992640772013
"756",26,32,2,1,36,1,1,1,5,0.362612637578332,0.371654617440093
"757",26,30,2,1,37,3,2,0,2,1.09779449794177,1.12609443340076
"758",26,30,2,1,38,2,1,1,4,0.699261364003403,0.728535570049937
"759",26,24,2,2,39,3,1,0,1,0.592296592770313,0.558330339610737
"760",26,32,2,1,40,2,2,0,2,0.7048240275935,0.656196985155287
"761",26,33,2,2,41,3,2,1,3,0.5361775750149,0.459345212532068
"762",26,32,2,2,42,1,1,0,3,0.713687353722507,0.661253265831101
"763",26,35,2,1,43,3,1,1,3,0.7201919198661,0.688485317514152
"764",26,27,2,1,44,3,1,1,3,1.07443888154993,1.10535475453101
"765",26,25,2,1,45,3,2,0,2,0.422910539682404,0.402952747488442
"766",26,32,2,1,46,1,1,1,4,0.385011031611713,0.465161169621579
"767",26,30,2,1,47,1,1,1,5,0.398040574675662,0.415845857074875
"768",26,30,2,1,48,3,1,1,3,0.740715487149139,0.849005927170457
"769",26,24,2,2,49,3,1,0,2,0.589369288363323,0.617707397959611
"770",26,32,2,2,50,2,1,0,3,0.722416358454501,0.78619391062444
"771",26,33,2,1,51,2,1,1,3,0.419520413591171,0.42838607311903
"772",26,32,2,2,52,1,2,1,4,0.301266379587859,0.301643037407295
"773",26,35,2,2,53,3,2,1,3,0.60497566646656,0.555518204140806
"774",26,27,2,2,54,2,2,1,3,0.638074194042579,0.639550728522179
"775",26,25,2,2,55,3,2,1,2,0.715498633480468,0.625541571832194
"776",26,32,2,1,56,2,1,1,3,0.811344930644359,0.723451460153057
"777",26,30,2,2,57,2,2,1,3,0.854568936861912,0.824805871151452
"778",26,30,2,2,58,1,2,1,5,0.458842351730944,0.54999315782443
"779",26,24,2,2,59,3,1,0,1,1.8117778291187,1.79023669046249
"780",26,32,2,2,60,2,1,0,3,0.799195836291296,0.786985449204275
"781",26,33,2,2,61,2,2,1,3,0.610257582276065,0.582379211193304
"782",26,32,2,2,62,1,2,1,4,0.270591980567914,0.218767674670091
"783",26,35,2,2,63,2,1,0,2,0.819407675650553,0.821285340778318
"784",26,27,2,1,64,2,1,1,3,0.366041085855912,0.360375119319682
"785",26,25,2,1,65,1,1,1,5,0.278281233104832,0.285519669754704
"786",26,32,2,2,66,2,2,1,3,0.73089878534016,0.744615389322469
"787",26,30,2,1,67,3,1,1,2,0.787582810614222,0.835183930976915
"788",26,30,2,2,68,1,2,1,5,0.358470379649554,0.41732206065798
"789",26,24,2,2,69,1,1,0,4,0.411236018619288,0.480443436445874
"790",26,32,2,1,70,3,2,0,1,1.33381289584598,1.20896445001299
"791",26,33,2,2,71,1,1,0,4,0.411111319849962,0.391166410780095
"792",26,32,2,2,72,2,2,1,3,0.846650065466159,0.80630504503726
"793",26,35,2,1,73,1,2,0,4,0.794335798647071,0.77537041575489
"794",26,27,2,2,74,2,1,0,3,0.672293368022088,0.652565287567559
"795",26,25,2,1,75,1,1,1,4,0.379929177911479,0.429507219013873
"796",26,32,2,2,76,1,1,0,3,0.613714681329252,0.654957503866783
"797",26,30,2,2,77,3,2,1,2,0.66128182736891,0.730012186927966
"798",26,30,2,2,78,3,1,0,2,0.637061191602452,0.627907771301314
"799",26,24,2,2,79,3,1,0,1,1.01448141581008,1.02490378860256
"800",26,32,2,1,80,3,1,1,2,0.829008584315869,0.829232037915885
"801",26,33,2,1,81,2,2,0,2,0.770311323832344,0.752845248153318
"802",26,32,2,1,82,1,1,1,4,0.434637907757728,0.492773112469269
"803",26,35,2,2,83,1,2,1,5,0.445911407750725,0.464926813564615
"804",26,27,2,2,84,2,1,0,2,0.764403439994887,0.835173201920491
"805",26,25,2,2,85,1,2,1,5,0.424469669486966,0.452224265933006
"806",26,32,2,2,86,3,1,0,1,1.54843959046099,1.49661764595312
"807",26,30,2,2,87,2,2,1,4,0.62732271339504,0.67633276517239
"808",26,30,2,1,88,3,2,0,1,0.696524079222421,0.726599241330326
"809",26,24,2,1,89,2,2,0,2,0.629881221364629,0.631950874764611
"810",26,32,2,2,90,2,1,0,2,0.659407160176442,0.62055865413278
"811",26,33,2,2,91,3,2,1,3,0.993365233368713,1.02719628014773
"812",26,32,2,2,92,2,1,0,3,0.765004726999585,0.804316128451617
"813",26,35,2,2,93,3,1,0,2,0.848402431301686,0.798568394048455
"814",26,27,2,2,94,2,2,1,3,0.520536799066677,0.515076693087658
"815",26,25,2,2,95,2,2,1,4,0.659606100358289,0.68573157659625
"816",26,32,2,2,96,3,2,1,2,0.835161434402791,0.901230733807622
"817",26,30,2,2,97,3,1,0,2,1.38626131743163,1.41731429707648
"818",26,30,2,1,98,2,2,0,3,0.620583744355614,0.598196559562218
"819",26,24,2,1,99,3,2,0,1,1.21566745010652,1.19946332378376
"820",26,32,2,2,100,1,2,1,4,0.353460030316926,0.359728838449027
"821",26,33,2,1,101,1,1,1,5,0.570210288342335,0.579043650666485
"822",26,32,2,1,102,2,1,1,4,0.48128017594036,0.480723340297133
"823",26,35,2,1,103,1,1,1,5,0.338522172322134,0.368255005481282
"824",26,27,2,1,104,3,1,1,2,0.457394458798711,0.482111388427146
"825",26,25,2,2,105,2,1,0,3,0.849169484332965,0.872130710296986
"826",26,32,2,2,106,3,1,0,2,0.881244594158158,0.862821997299263
"827",26,30,2,2,107,1,2,1,4,0.430976585943556,0.533412696732087
"828",26,30,2,1,108,1,1,1,4,0.507543221776898,0.569679089810958
"829",26,24,2,2,109,3,1,0,2,0.832865276498824,0.772856280825267
"830",26,32,2,2,110,2,2,1,3,0.540342869483765,0.575801114554023
"831",26,33,2,2,111,2,2,1,3,0.726724063726242,0.788066391947956
"832",26,32,2,1,112,1,1,1,4,0.45013221160554,0.520850356116105
"833",26,35,2,1,113,1,1,1,5,0.345614733008588,0.322660314066077
"834",26,27,2,2,114,2,2,1,3,0.677425560610789,0.635402032050874
"835",26,25,2,1,115,3,1,1,2,0.898897304559215,0.893191145860013
"836",26,32,2,1,116,1,1,1,4,0.422897203028571,0.341000579989281
"837",26,30,2,1,117,1,1,1,5,0.44747610666775,0.443229519934965
"838",26,30,2,2,118,2,2,1,3,0.726878719453325,0.708232775405563
"839",26,24,2,1,119,3,2,0,1,0.826979501840851,0.950394917679591
"840",26,32,2,2,120,1,2,1,5,0.421303863684618,0.430014217559368
"841",26,33,2,2,121,1,1,0,3,0.491436590033491,0.534507345701004
"842",26,32,2,1,122,1,1,1,4,0.374338442117467,0.442371686545746
"843",26,35,2,1,123,3,2,0,2,0.735192722592426,0.750383072697302
"844",26,27,2,2,124,2,1,0,2,0.659431468247558,0.588462978548453
"845",26,25,2,1,125,3,1,1,3,0.748132958725783,0.765718896485217
"846",26,32,2,2,126,1,1,0,3,0.499439579012873,0.538274476760142
"847",26,30,2,1,127,1,1,1,5,0.473185616756473,0.445866714725168
"848",26,30,2,1,128,3,2,0,1,0.612834327136041,0.583386954634079
"849",26,24,2,2,129,2,1,0,2,0.64425414453686,0.702870137313986
"850",26,32,2,2,130,1,2,1,5,0.271566839103838,0.239592093669797
"851",26,33,2,1,131,3,1,1,2,0.632765907418039,0.603620449870059
"852",26,32,2,1,132,2,2,0,2,0.879679001069143,0.855394413440484
"853",26,35,2,1,133,2,1,1,4,0.277349919501331,0.246121987794024
"854",26,27,2,1,134,3,1,1,3,0.78100501324435,0.758464901167339
"855",26,25,2,1,135,1,1,1,5,0.511883989895339,0.427048853355443
"856",26,32,2,1,136,1,2,0,3,0.597694659885061,0.591948434621971
"857",26,30,2,1,137,3,2,0,2,0.383732664414817,0.366968295495604
"858",26,30,2,2,138,3,1,0,1,0.62795930620425,0.548012298766619
"859",26,24,2,1,139,1,1,1,4,0.331218801643615,0.22112772998623
"860",26,32,2,2,140,2,2,1,3,0.570601427574974,0.477551642753595
"861",26,33,2,1,141,3,2,0,1,1.04857322057303,1.03970014332688
"862",26,32,2,1,142,1,1,1,4,0.259091730936312,0.224130284897372
"863",26,35,2,2,143,1,1,0,4,0.832250925748586,0.812933318030565
"864",26,27,2,2,144,3,1,0,1,2.12928228618921,2.12283912511795
"865",26,25,2,1,145,1,1,1,4,0.310482921437228,0.226495806214897
"866",26,32,2,1,146,3,2,0,1,1.33821536122596,1.23616549945568
"867",26,30,2,1,147,3,1,1,2,0.955716378099989,0.873165598919149
"868",26,30,2,2,148,2,2,1,3,0.405465839167374,0.488797637161589
"869",26,24,2,1,149,1,1,1,5,0.353285011122378,0.326996689247854
"870",26,32,2,2,150,2,1,0,3,0.641074601733519,0.62390521697524
"871",26,33,2,1,151,1,1,1,5,0.529034290862783,0.494379269297981
"872",26,32,2,1,152,2,2,0,3,0.609636015687143,0.656247003279045
"873",26,35,2,2,153,2,2,1,4,0.441218835475654,0.439594468083649
"874",26,27,2,1,154,3,1,1,2,0.876308351473316,0.777185439367704
"875",26,25,2,2,155,2,2,1,4,0.666527989779204,0.745104727412481
"876",26,32,2,1,156,2,2,0,2,0.946852380500072,0.869154808744638
"877",26,30,2,2,157,3,1,0,2,1.44082002806992,1.47767256942854
"878",26,30,2,1,158,3,1,1,3,0.616446863547327,0.564897460106505
"879",26,24,2,2,159,2,2,1,3,0.591313888827171,0.615347333435162
"880",26,32,2,1,160,1,1,1,4,0.364374136668289,0.356584038783603
"881",26,33,2,1,161,2,2,0,3,0.761391296554414,0.721347478643233
"882",26,32,2,1,162,2,1,1,4,0.687364814586905,0.749302045274563
"883",26,35,2,2,163,1,1,0,3,0.539128157118717,0.563744279378694
"884",26,27,2,1,164,2,1,1,3,0.360748628701005,0.290015306307419
"885",26,25,2,2,165,2,1,0,2,0.849124594813021,0.789592803833085
"886",26,32,2,1,166,2,2,0,2,0.73910381653335,0.758470473810221
"887",26,30,2,1,167,2,2,0,2,0.707447040270108,0.689440629676891
"888",26,30,2,2,168,1,2,1,5,0.396126443798874,0.421941743565771
"889",26,24,2,1,169,3,2,0,2,0.390403541359127,0.439505806050496
"890",26,32,2,1,170,1,1,1,5,0.383790821807405,0.296396067780033
"891",26,33,2,2,171,2,2,1,3,0.804455857154693,0.790794754065747
"892",26,32,2,2,172,3,1,0,1,1.08271572385399,1.02985365493548
"893",26,35,2,1,173,3,2,0,1,1.34417528821923,1.36718576295008
"894",26,27,2,1,174,2,1,1,3,0.686159369828264,0.695858518564221
"895",26,25,2,1,175,3,2,0,1,1.81644386844222,1.82625392669747
"896",26,32,2,2,176,3,1,0,2,1.43299599412478,1.35383395548522
"897",26,30,2,1,177,2,2,0,2,1.01197424558756,0.97217683889836
"898",26,30,2,1,178,2,1,1,4,0.475964297319286,0.496567860957695
"899",26,24,2,1,179,2,2,0,3,0.930357390291468,0.915473822012579
"900",26,32,2,2,180,1,2,1,5,0.243074441205917,0.16917748588273
"901",26,33,2,1,181,2,1,1,3,0.360702837282451,0.324860843257956
"902",26,32,2,1,182,3,1,1,3,0.913825378747698,0.925910319346296
"903",26,35,2,1,183,1,1,1,5,0.47170097918873,0.445066640160224
"904",26,27,2,1,184,1,2,0,3,0.499207441951101,0.509677983978116
"905",26,25,2,1,185,1,1,1,5,0.450409116477519,0.417621399335838
"906",26,32,2,1,186,2,2,0,3,0.708229842523607,0.703268815383411
"907",26,30,2,2,187,2,2,1,4,0.585782011280075,0.603499618462647
"908",26,30,2,2,188,3,2,1,2,0.781274111197533,0.803861613806282
"909",26,24,2,2,189,1,2,1,5,0.572056495343,0.575234220626343
"910",26,32,2,1,190,3,2,0,2,1.01136796250682,1.07949484486506
"911",26,33,2,2,191,1,2,1,5,0.338608701874922,0.313343008090477
"912",26,32,2,1,192,3,1,1,3,0.829811947781825,0.889764357275257
"913",26,35,2,2,193,1,2,1,5,0.481010553232838,0.526485492100181
"914",26,27,2,1,194,3,2,0,2,0.625809614841143,0.590074212855315
"915",26,25,2,1,195,2,1,1,3,0.567937176210503,0.601416284099535
"916",26,32,2,1,196,2,1,1,3,0.715340157235963,0.660551337720164
"917",26,30,2,1,197,3,1,1,3,0.587797457054324,0.58395696221073
"918",26,30,2,1,198,2,2,0,2,0.654571203559904,0.658531741271089
"919",26,24,2,1,199,2,1,1,3,0.595738519694128,0.586270099791101
"920",26,32,2,1,200,1,1,1,4,0.501349780307618,0.557526978650121
"921",26,33,2,1,201,1,1,1,4,0.363209207189183,0.376581858779398
"922",26,32,2,1,202,1,1,1,4,0.521016271071501,0.538903083277035
"923",26,35,2,1,203,3,2,0,1,1.05053252641171,0.985295832437443
"924",26,27,2,1,204,1,1,1,5,0.379443941444031,0.351871774698564
"925",26,25,2,2,205,1,1,0,4,0.69100513290611,0.683531093845949
"926",26,32,2,2,206,1,2,1,5,0.51341433309346,0.474804178741428
"927",26,30,2,1,207,2,2,0,3,0.412092543237604,0.465550109839698
"928",26,30,2,2,208,3,2,1,2,0.580256523616308,0.548379243381642
"929",26,24,2,2,209,2,1,0,3,0.8955214084375,0.886982106996377
"930",26,32,2,2,210,1,2,1,5,0.46866946513782,0.485450554535961
"931",26,33,2,1,211,1,1,1,5,0.435822230718181,0.384558380637166
"932",26,32,2,1,212,3,1,1,2,1.26709597046261,1.37856663769703
"933",26,35,2,2,213,2,2,1,3,0.652066982997073,0.61769289991907
"934",26,27,2,1,214,1,1,1,4,0.501677706112997,0.471837991283159
"935",26,25,2,1,215,1,1,1,4,0.277899143517743,0.351787165626043
"936",26,32,2,2,216,2,2,1,4,0.949353133812621,0.939107215461771
"937",26,30,2,1,217,1,1,1,5,0.465550573894732,0.430007671055657
"938",26,30,2,2,218,2,2,1,3,0.447570463128256,0.412088873465212
"939",26,24,2,2,219,1,2,1,5,0.220775559798465,0.169269926914601
"940",26,32,2,1,220,3,2,0,1,0.913655153905544,1.01533531150442
"941",26,33,2,1,221,2,1,1,3,0.461239461738317,0.483053950709167
"942",26,32,2,1,222,2,1,1,3,0.647001795499687,0.677331509641907
"943",26,35,2,1,223,2,2,0,2,0.705736574355906,0.768958190130309
"944",26,27,2,2,224,1,2,1,4,0.394265382250213,0.347711271112958
"945",26,25,2,1,225,3,1,1,2,0.85059224107062,0.829617961157777
"946",26,32,2,2,226,2,2,1,3,0.822626116026468,0.792460747464237
"947",26,30,2,2,227,2,2,1,4,0.666463681614854,0.663970976816243
"948",26,30,2,1,228,1,1,1,4,0.391976061810795,0.445311240955567
"949",26,24,2,2,229,3,2,1,2,0.966067391414825,1.0938047941796
"950",26,32,2,1,230,2,1,1,3,0.44720268176894,0.366135366099
"951",26,33,2,1,231,3,1,1,3,0.823602265242048,0.765492605133571
"952",26,32,2,2,232,3,2,1,2,0.818815844829024,0.772818801580526
"953",26,35,2,2,233,3,2,1,2,0.965583172994755,0.954231482692022
"954",26,27,2,1,234,2,1,1,4,0.488399131497278,0.49965746635131
"955",26,25,2,2,235,2,2,1,3,0.731511579002178,0.775830864339115
"956",26,32,2,2,236,3,1,0,2,0.659070741670665,0.567893113387305
"957",26,30,2,1,237,2,1,1,3,0.655139918604189,0.678857015181346
"958",26,30,2,2,238,2,2,1,3,0.447862494940819,0.510134590247884
"959",26,24,2,2,239,1,2,1,5,0.336486244768259,0.416338970835268
"960",26,32,2,1,240,3,2,0,2,0.99275614509125,0.959103004426489
"961",25,31,1,2,1,2,2,1,3,0.67805154528474,0.711624653794656
"962",25,26,1,1,2,2,1,1,3,0.383679322290283,0.315455508475476
"963",25,28,1,2,3,1,2,1,5,0.514014256695182,0.442554786039049
"964",25,21,1,1,4,2,1,1,3,0.711955088643423,0.796769443006193
"965",25,26,1,2,5,3,1,0,1,1.15844276984974,1.07667952568262
"966",25,27,1,1,6,1,1,1,5,0.380229223788286,0.394711179331731
"967",25,35,1,1,7,1,1,1,5,0.275163883338054,0.252478951648638
"968",25,29,1,1,8,1,1,1,4,0.492166232629775,0.519439131515032
"969",25,27,1,1,9,2,2,0,2,0.820884492952669,0.799510863468827
"970",25,30,1,1,10,1,1,1,5,0.421557866378046,0.425698154798183
"971",25,31,1,2,11,2,2,1,4,0.430862054716731,0.442907372257997
"972",25,26,1,2,12,2,1,0,3,0.554567169400177,0.537254909803747
"973",25,28,1,1,13,2,2,0,3,0.730742784484471,0.654061852827709
"974",25,21,1,1,14,1,1,1,4,0.406726394894324,0.4528301363779
"975",25,26,1,1,15,3,2,0,1,1.92124978792158,1.95092791212625
"976",25,27,1,2,16,1,1,0,3,0.487349863211348,0.552416512772826
"977",25,35,1,1,17,2,1,1,4,0.701097149428262,0.696538997354488
"978",25,29,1,1,18,2,1,1,4,0.605004680555311,0.556013078342424
"979",25,27,1,2,19,1,2,1,4,0.474018464033637,0.467818746168913
"980",25,30,1,1,20,2,1,1,3,0.562308227922782,0.546448877565318
"981",25,31,1,2,21,1,2,1,4,0.210444414535001,0.236386827878457
"982",25,26,1,2,22,1,2,1,5,0.448676627456429,0.380900829013447
"983",25,28,1,2,23,1,2,1,5,0.476128136854205,0.395773581275444
"984",25,21,1,1,24,2,1,1,3,0.524826654902373,0.507355551861197
"985",25,26,1,1,25,3,2,0,1,1.61221913416179,1.6391298663242
"986",25,27,1,2,26,2,1,0,3,0.828045612467319,0.855245812139426
"987",25,35,1,1,27,3,1,1,3,0.986633065212446,0.989991342978852
"988",25,29,1,2,28,3,2,1,3,0.892466162081646,0.935086969237812
"989",25,27,1,2,29,3,1,0,1,0.690904212754827,0.724228338744472
"990",25,30,1,1,30,2,1,1,4,0.493495063358907,0.383487040305466
"991",25,31,1,2,31,3,2,1,3,1.02590465067875,0.978128814333739
"992",25,26,1,2,32,1,2,1,4,0.297556839624658,0.262213053863107
"993",25,28,1,1,33,3,1,1,2,0.751924308446656,0.80349700022085
"994",25,21,1,2,34,3,1,0,2,1.48467542946604,1.57394871697952
"995",25,26,1,1,35,2,1,1,3,0.662467864976735,0.771582391989772
"996",25,27,1,2,36,3,2,1,2,1.04914249150769,1.05312439324032
"997",25,35,1,2,37,1,2,1,5,0.484809543841334,0.544981389986427
"998",25,29,1,1,38,3,1,1,2,0.72987690242809,0.785620925166249
"999",25,27,1,1,39,3,2,0,1,0.820236612103195,0.824732972887241
"1000",25,30,1,1,40,1,1,1,4,0.427273116815416,0.499709064356774
"1001",25,31,1,2,41,2,1,0,2,0.84901827957421,0.827548616443934
"1002",25,26,1,1,42,2,1,1,4,0.815769810286225,0.798446449773762
"1003",25,28,1,2,43,1,2,1,4,0.268660186669823,0.216854673452907
"1004",25,21,1,2,44,3,1,0,1,1.0373957952377,1.05891766501619
"1005",25,26,1,2,45,1,2,1,5,0.362650272693509,0.406129627266942
"1006",25,27,1,1,46,3,2,0,2,0.652645359730803,0.648353554473123
"1007",25,35,1,2,47,3,1,0,1,0.789429919129715,0.819747521020572
"1008",25,29,1,1,48,2,2,0,2,0.531931011205576,0.53584610032803
"1009",25,27,1,1,49,2,1,1,4,0.620935822571754,0.582307460488641
"1010",25,30,1,2,50,2,2,1,4,0.494167412415488,0.593785058353029
"1011",25,31,1,2,51,3,1,0,1,1.25422848145847,1.26366184602268
"1012",25,26,1,1,52,1,1,1,4,0.467105861828716,0.528534792908783
"1013",25,28,1,1,53,3,1,1,2,0.892697666689584,0.85247107656544
"1014",25,21,1,1,54,1,1,1,5,0.464740210657972,0.451190308043001
"1015",25,26,1,1,55,3,2,0,2,1.26300473317268,1.2229005737235
"1016",25,27,1,1,56,3,2,0,1,0.927952741342898,0.92333233838959
"1017",25,35,1,2,57,2,2,1,3,0.541474688946605,0.566605502309343
"1018",25,29,1,1,58,1,1,1,4,0.418134513083979,0.46196675180341
"1019",25,27,1,1,59,3,2,0,2,1.23713606331609,1.22423224300759
"1020",25,30,1,2,60,3,2,1,3,0.737448524018961,0.744830345723805
"1021",25,31,1,1,61,3,1,1,2,0.710309212829576,0.672971886364206
"1022",25,26,1,2,62,2,2,1,4,0.547189894003891,0.550295559490292
"1023",25,28,1,1,63,2,2,0,3,0.507626348986023,0.588363859312615
"1024",25,21,1,1,64,1,1,1,4,0.538790073400698,0.483934615389866
"1025",25,26,1,1,65,2,1,1,3,0.398042346155647,0.409640737417104
"1026",25,27,1,1,66,1,1,1,4,0.501423238171359,0.497766985222277
"1027",25,35,1,1,67,3,2,0,2,0.926977798030949,0.972415901984672
"1028",25,29,1,2,68,2,2,1,4,0.522550222516415,0.452906580138855
"1029",25,27,1,2,69,3,2,1,2,0.808165056766505,0.782314395789522
"1030",25,30,1,1,70,1,1,1,4,0.39446681574444,0.3805761751357
"1031",25,31,1,1,71,2,1,1,4,0.77610770380651,0.751842607179982
"1032",25,26,1,2,72,1,2,1,4,0.323889641309548,0.325945387002456
"1033",25,28,1,1,73,1,2,0,4,0.576104896501543,0.552741756905069
"1034",25,21,1,1,74,3,1,1,2,1.24244693837559,1.25838960039052
"1035",25,26,1,1,75,3,1,1,2,0.996739634239172,1.09229920648602
"1036",25,27,1,2,76,3,1,0,1,1.18091914050442,1.0963348385337
"1037",25,35,1,1,77,1,1,1,5,0.369492725596444,0.409943263360509
"1038",25,29,1,2,78,2,2,1,4,0.644174790214127,0.601476406235456
"1039",25,27,1,1,79,1,1,1,4,0.372159701780923,0.352177446289422
"1040",25,30,1,2,80,3,1,0,2,0.717997045576531,0.797270488228965
"1041",25,31,1,1,81,3,1,1,3,0.897535809145022,0.757496036501642
"1042",25,26,1,2,82,3,1,0,2,1.06148810714347,1.07366177791777
"1043",25,28,1,1,83,2,1,1,3,0.578684449510251,0.637027119027773
"1044",25,21,1,1,84,1,1,1,5,0.40912617500333,0.459441615245639
"1045",25,26,1,2,85,1,2,1,5,0.435406547100882,0.314651347213669
"1046",25,27,1,2,86,2,2,1,3,0.527329007871557,0.550179981352295
"1047",25,35,1,2,87,2,2,1,4,0.475401571055409,0.408902462743332
"1048",25,29,1,1,88,3,2,0,1,0.897032719707736,0.884090876906257
"1049",25,27,1,1,89,1,1,1,4,0.486942701225585,0.446694115402076
"1050",25,30,1,2,90,1,2,1,4,0.275808017697868,0.323899436545326
"1051",25,31,1,2,91,2,2,1,3,0.700922550250969,0.673282436295107
"1052",25,26,1,2,92,1,2,1,4,0.509672446123704,0.503206310343626
"1053",25,28,1,1,93,1,1,1,4,0.40356992010374,0.355785847803635
"1054",25,21,1,2,94,2,2,1,3,0.822820577363644,0.816935301771237
"1055",25,26,1,2,95,2,2,1,3,0.559695774293056,0.529774772072448
"1056",25,27,1,2,96,2,2,1,3,0.408208371532483,0.390372643417489
"1057",25,35,1,1,97,3,1,1,3,0.592514685542784,0.576725923817412
"1058",25,29,1,1,98,2,2,0,3,0.922700675581131,0.938718004820606
"1059",25,27,1,2,99,1,2,1,5,0.254588299072052,0.27940328936516
"1060",25,30,1,2,100,2,2,1,4,0.518745579043453,0.580034967916479
"1061",25,31,1,2,101,3,2,1,3,0.494475766742269,0.56590759935202
"1062",25,26,1,2,102,2,2,1,3,0.70163052679514,0.745416494356352
"1063",25,28,1,2,103,3,1,0,2,0.949901495971569,0.99037856850522
"1064",25,21,1,2,104,2,2,1,3,0.348930677196049,0.35453996345337
"1065",25,26,1,2,105,1,1,0,3,0.557411634630831,0.473639670178577
"1066",25,27,1,2,106,2,1,0,2,0.79589542815878,0.83792027997852
"1067",25,35,1,2,107,3,1,0,1,1.18159932042202,1.20480569637446
"1068",25,29,1,2,108,3,2,1,2,1.07096529141466,1.06306853526817
"1069",25,27,1,2,109,1,1,0,4,0.593491050957185,0.503761026835584
"1070",25,30,1,2,110,1,1,0,3,0.489452515649142,0.448982476583485
"1071",25,31,1,1,111,3,1,1,2,1.11616686305667,1.19803143184467
"1072",25,26,1,2,112,2,2,1,4,0.657016486178227,0.680802126894566
"1073",25,28,1,1,113,1,1,1,4,0.441092332817738,0.369711653125778
"1074",25,21,1,1,114,1,2,0,3,0.515667675202262,0.415196529698772
"1075",25,26,1,1,115,2,2,0,2,0.77185843356328,0.850162519425746
"1076",25,27,1,1,116,3,1,1,3,0.716449663193091,0.661297729644024
"1077",25,35,1,1,117,3,1,1,3,0.701254016494804,0.622631745264687
"1078",25,29,1,1,118,1,1,1,5,0.480157108730148,0.536414044177745
"1079",25,27,1,2,119,3,2,1,2,0.931401324033934,0.89869666883693
"1080",25,30,1,2,120,1,2,1,4,0.525506479020399,0.459120726957295
"1081",25,31,1,2,121,2,2,1,4,0.535972567714917,0.530658717945714
"1082",25,26,1,2,122,2,1,0,3,0.684666014408054,0.723175178355696
"1083",25,28,1,2,123,2,2,1,4,0.640941571976295,0.609850063233773
"1084",25,21,1,1,124,2,2,0,3,0.697043628135338,0.729986700635883
"1085",25,26,1,2,125,1,2,1,4,0.300265389407376,0.225915035246468
"1086",25,27,1,2,126,3,2,1,2,0.990796382751742,0.990997433136409
"1087",25,35,1,2,127,3,1,0,1,1.17277912951791,1.1565343874458
"1088",25,29,1,1,128,1,1,1,5,0.464526973476712,0.414312229305207
"1089",25,27,1,1,129,3,1,1,3,1.14392384712861,1.15983834715458
"1090",25,30,1,2,130,1,2,1,4,0.365284183763973,0.343550493085779
"1091",25,31,1,2,131,2,1,0,3,0.780892896617206,0.743914044580374
"1092",25,26,1,1,132,3,1,1,2,1.09128210232493,1.08648184880399
"1093",25,28,1,2,133,1,2,1,4,0.312661587495194,0.252122594016607
"1094",25,21,1,1,134,3,1,1,2,1.00618432432695,1.00242240913908
"1095",25,26,1,1,135,2,1,1,4,0.848233724147461,0.852813054659
"1096",25,27,1,1,136,2,1,1,4,0.616485338119067,0.546813489313067
"1097",25,35,1,1,137,3,1,1,3,1.12395441999558,1.1213734035022
"1098",25,29,1,1,138,3,1,1,3,0.268913938338068,0.371977849085656
"1099",25,27,1,1,139,1,1,1,5,0.458589156441307,0.463154933319849
"1100",25,30,1,2,140,1,2,1,5,0.37778209295879,0.349109579649879
"1101",25,31,1,1,141,1,1,1,5,0.462627429575352,0.423355572582621
"1102",25,26,1,2,142,3,2,1,2,0.721340852726712,0.698689220093045
"1103",25,28,1,2,143,1,2,1,4,0.549024948888398,0.536434072407439
"1104",25,21,1,2,144,1,2,1,4,0.426901594431658,0.472952758200028
"1105",25,26,1,2,145,3,2,1,2,1.02466211856069,0.985890729259215
"1106",25,27,1,2,146,3,2,1,2,0.842510593264342,0.800879373197739
"1107",25,35,1,2,147,1,2,1,5,0.366799207877264,0.450793877795188
"1108",25,29,1,2,148,1,1,0,4,0.610854283851738,0.598632042538835
"1109",25,27,1,2,149,3,1,0,2,1.27051463544969,1.28758382705392
"1110",25,30,1,2,150,2,1,0,2,0.928998668249975,1.00029130890997
"1111",25,31,1,1,151,1,1,1,5,0.348903048174305,0.473046844966447
"1112",25,26,1,2,152,2,2,1,3,0.605789460235423,0.575112448016502
"1113",25,28,1,1,153,2,1,1,4,0.605306362727094,0.585804926307637
"1114",25,21,1,1,154,2,1,1,4,0.634578853436371,0.683323511789957
"1115",25,26,1,2,155,2,2,1,4,0.579526141494763,0.603987369210909
"1116",25,27,1,1,156,1,1,1,4,0.326409063872899,0.401103228714394
"1117",25,35,1,2,157,1,2,1,5,0.381024555783372,0.378834669056974
"1118",25,29,1,2,158,2,1,0,2,0.861864894923682,0.830505890745461
"1119",25,27,1,1,159,1,1,1,5,0.359160287005183,0.514084576347291
"1120",25,30,1,1,160,2,1,1,3,0.691149864979052,0.700645313052981
"1121",25,31,1,2,161,3,1,0,2,1.48177384251248,1.57825830690946
"1122",25,26,1,1,162,2,1,1,3,0.466499814912217,0.39717817376238
"1123",25,28,1,1,163,1,2,0,3,0.527743122296506,0.551968981293797
"1124",25,21,1,1,164,3,2,0,1,1.11105718425735,1.16453310894064
"1125",25,26,1,1,165,3,2,0,2,1.002123055807,1.05061773986009
"1126",25,27,1,2,166,3,2,1,2,0.756537403911586,0.712119639164534
"1127",25,35,1,1,167,2,2,0,2,0.640971056590693,0.607165287520296
"1128",25,29,1,2,168,3,2,1,2,0.587950291314487,0.609196056224349
"1129",25,27,1,2,169,2,1,0,2,0.853926303971535,0.858186749430789
"1130",25,30,1,2,170,1,1,0,3,0.478658246372911,0.442421919274801
"1131",25,31,1,2,171,2,2,1,4,0.689283349943206,0.740066456479578
"1132",25,26,1,1,172,3,1,1,3,1.01056249380987,0.973002985451708
"1133",25,28,1,1,173,1,1,1,5,0.303535535686358,0.308272177682859
"1134",25,21,1,2,174,3,2,1,2,0.929957856058007,0.886234121308986
"1135",25,26,1,1,175,1,1,1,4,0.397182128443358,0.439022095039593
"1136",25,27,1,1,176,3,1,1,2,0.651356379920326,0.659907784754106
"1137",25,35,1,2,177,3,2,1,3,0.582962082200979,0.522294314851772
"1138",25,29,1,2,178,2,1,0,2,0.57835635412662,0.551578778496862
"1139",25,27,1,2,179,1,2,1,5,0.429507842165664,0.475592941649888
"1140",25,30,1,1,180,2,2,0,3,0.744037300543219,0.697921587620625
"1141",25,31,1,2,181,3,1,0,2,1.48070887892728,1.43013277725634
"1142",25,26,1,1,182,3,1,1,2,0.775010815858805,0.818995037161316
"1143",25,28,1,2,183,1,2,1,4,0.455460544094849,0.514533806054635
"1144",25,21,1,1,184,3,1,1,3,0.707980257926956,0.730463709651737
"1145",25,26,1,2,185,2,2,1,4,0.436482469566404,0.464040531867371
"1146",25,27,1,2,186,2,2,1,4,0.482481906536181,0.477494826757255
"1147",25,35,1,1,187,3,1,1,2,0.919337227547558,0.936912589613175
"1148",25,29,1,1,188,3,2,0,1,0.587253057298664,0.610214130649293
"1149",25,27,1,2,189,1,1,0,3,0.645426176872471,0.67664759058749
"1150",25,30,1,2,190,3,2,1,2,1.18635450563946,1.27622489066033
"1151",25,31,1,1,191,1,1,1,5,0.438193258179979,0.416001282022276
"1152",25,26,1,2,192,2,1,0,3,0.650250260587904,0.680718131982942
"1153",25,28,1,1,193,3,1,1,2,0.491546764134334,0.529032354006948
"1154",25,21,1,1,194,1,1,1,5,0.29519571619716,0.220196746604917
"1155",25,26,1,2,195,1,2,1,5,0.458318715317918,0.475649451747432
"1156",25,27,1,1,196,3,2,0,2,0.64083470713556,0.642363149985715
"1157",25,35,1,1,197,2,1,1,3,0.485240579420292,0.50863565923302
"1158",25,29,1,2,198,2,2,1,3,0.699156902873091,0.727362856865952
"1159",25,27,1,1,199,1,1,1,5,0.479534742021014,0.470399159030734
"1160",25,30,1,2,200,3,1,0,1,0.824836959962666,0.880994335275832
"1161",25,31,1,1,201,3,1,1,2,0.859438130169703,0.968073839496994
"1162",25,26,1,2,202,3,2,1,3,0.720445144717864,0.750971548713215
"1163",25,28,1,1,203,1,1,1,5,0.357486424295334,0.409494202800494
"1164",25,21,1,1,204,1,1,1,4,0.470947086036055,0.531818919445837
"1165",25,26,1,2,205,3,2,1,3,0.824765905747808,0.83385459681089
"1166",25,27,1,2,206,2,1,0,2,0.92648650517807,0.901977769405176
"1167",25,35,1,1,207,3,1,1,3,1.10359831176444,1.09294013121066
"1168",25,29,1,2,208,2,2,1,4,0.60308798217008,0.573145978632312
"1169",25,27,1,2,209,3,2,1,2,0.852454970235792,0.883172961604275
"1170",25,30,1,1,210,1,1,1,5,0.566837871390213,0.620988529153858
"1171",25,31,1,2,211,1,2,1,5,0.489869551327989,0.461288001763297
"1172",25,26,1,2,212,2,1,0,3,0.822967699216446,0.840063571842649
"1173",25,28,1,2,213,3,2,1,2,0.56949123880513,0.55562033375237
"1174",25,21,1,1,214,2,2,0,2,0.714084004632914,0.703257623048332
"1175",25,26,1,1,215,1,1,1,4,0.430081840420867,0.404199213888234
"1176",25,27,1,1,216,2,1,1,4,0.501979560305004,0.423769654019978
"1177",25,35,1,1,217,1,1,1,5,0.465565097554482,0.497386250082524
"1178",25,29,1,1,218,2,1,1,3,0.452660664429632,0.409148636160041
"1179",25,27,1,1,219,2,2,0,2,0.886735200285116,0.963268028684339
"1180",25,30,1,1,220,1,2,0,4,0.689280666847143,0.603782329063674
"1181",25,31,1,1,221,3,2,0,1,0.287271964787634,0.251393028062598
"1182",25,26,1,1,222,2,1,1,3,0.620239574374462,0.502655263695875
"1183",25,28,1,1,223,1,2,0,4,0.620304370096945,0.646847108069333
"1184",25,21,1,1,224,3,2,0,2,1.18882134641984,1.11763701699003
"1185",25,26,1,1,225,2,2,0,3,0.706439077719364,0.711228227659549
"1186",25,27,1,1,226,2,1,1,4,0.831882257270084,0.896908179893136
"1187",25,35,1,2,227,1,2,1,4,0.32020899685152,0.243104617030345
"1188",25,29,1,1,228,2,2,0,2,0.629965051236546,0.60779558965649
"1189",25,27,1,1,229,2,2,0,3,0.555513808026035,0.639615859334103
"1190",25,30,1,2,230,2,2,1,4,0.475829911094988,0.473158198112825
"1191",25,31,1,2,231,1,2,1,4,0.380964820090329,0.381185716506439
"1192",25,26,1,1,232,3,2,0,1,1.46026516413424,1.39585796142498
"1193",25,28,1,2,233,3,1,0,2,1.55581659865787,1.54838886510167
"1194",25,21,1,1,234,1,1,1,4,0.447701247981902,0.481127446214778
"1195",25,26,1,2,235,1,2,1,5,0.402050438910493,0.439355232869367
"1196",25,27,1,2,236,2,2,1,4,0.573114499498493,0.577140884419123
"1197",25,35,1,2,237,2,2,1,3,0.530334791109074,0.48888745349702
"1198",25,29,1,2,238,1,2,1,4,0.34302279178365,0.323762662844703
"1199",25,27,1,2,239,1,2,1,5,0.467808294010816,0.413866498824538
"1200",25,30,1,2,240,3,2,1,3,0.872528161075346,0.841275847666084
"1201",24,35,2,2,1,3,2,1,3,0.958276133201179,1.02691340268305
"1202",24,19,2,1,2,1,2,0,3,0.488198710740249,0.464633136168439
"1203",24,31,2,1,3,3,1,1,2,0.514728305360232,0.504621834995294
"1204",24,37,2,2,4,1,2,1,5,0.407667181405587,0.403241608973869
"1205",24,26,2,1,5,1,1,1,4,0.414818899957519,0.386016230301218
"1206",24,29,2,1,6,2,1,1,3,0.729353572439048,0.807430976495917
"1207",24,29,2,2,7,2,2,1,3,0.553767316439423,0.509370940991831
"1208",24,21,2,2,8,1,2,1,4,0.336144863794399,0.392082163066872
"1209",24,27,2,1,9,3,1,1,3,0.791080119508274,0.788765914356179
"1210",24,18,2,1,10,3,2,0,2,1.06748300919567,1.16779526516878
"1211",24,35,2,1,11,3,2,0,1,1.5901727965242,1.6777932464556
"1212",24,19,2,2,12,2,2,1,3,0.759178515992319,0.750145991652302
"1213",24,31,2,2,13,1,2,1,4,0.363812771495956,0.274110547158077
"1214",24,37,2,2,14,1,1,0,3,0.560436733338382,0.483283727757429
"1215",24,26,2,2,15,2,1,0,2,0.711210949487094,0.642048421427802
"1216",24,29,2,2,16,3,2,1,2,0.713601366089005,0.665208282752241
"1217",24,29,2,2,17,3,1,0,2,1.34000944472361,1.28056193294601
"1218",24,21,2,1,18,3,2,0,2,0.588598414882229,0.580350463111105
"1219",24,27,2,2,19,1,2,1,5,0.448591924872706,0.43735964639237
"1220",24,18,2,1,20,2,2,0,3,0.672851410294554,0.719662395521044
"1221",24,35,2,1,21,2,2,0,2,0.829508760452288,0.818391326437367
"1222",24,19,2,1,22,3,2,0,1,0.98236962442517,1.00170728435939
"1223",24,31,2,1,23,3,1,1,2,0.545428466406285,0.522966106374845
"1224",24,37,2,2,24,1,2,1,5,0.348335291767228,0.43874398809096
"1225",24,26,2,2,25,1,2,1,5,0.446865492579081,0.432397899088711
"1226",24,29,2,1,26,2,1,1,3,0.642446802313359,0.61425333661475
"1227",24,29,2,1,27,3,2,0,2,1.64132860933973,1.58536997856126
"1228",24,21,2,2,28,2,1,0,2,0.855803671662049,0.842168948825265
"1229",24,27,2,2,29,2,2,1,3,0.803517142593732,0.896797259508732
"1230",24,18,2,1,30,1,1,1,5,0.44917804327806,0.415249293472097
"1231",24,35,2,1,31,3,1,1,3,0.365980692213544,0.425337234575143
"1232",24,19,2,1,32,3,1,1,2,0.926945552096229,0.940782789742779
"1233",24,31,2,2,33,1,2,1,4,0.408683976311549,0.449244870157429
"1234",24,37,2,1,34,3,2,0,1,0.712756093293213,0.700081988221183
"1235",24,26,2,2,35,1,2,1,4,0.321537328324045,0.2921231672653
"1236",24,29,2,1,36,2,1,1,4,0.512751234379294,0.484728667701809
"1237",24,29,2,1,37,1,1,1,5,0.403649160565428,0.518721499515712
"1238",24,21,2,2,38,2,2,1,4,0.420257080102043,0.435907698175539
"1239",24,27,2,2,39,1,2,1,5,0.435681140462703,0.485513157312485
"1240",24,18,2,2,40,2,2,1,4,0.526783932633223,0.508101089773302
"1241",24,35,2,1,41,1,1,1,5,0.450505024697492,0.410327415337564
"1242",24,19,2,2,42,1,2,1,4,0.261064413958543,0.319304793425084
"1243",24,31,2,2,43,2,1,0,3,0.733279146007851,0.69035031543003
"1244",24,37,2,1,44,1,2,0,4,0.499241390835475,0.473160249235062
"1245",24,26,2,2,45,3,2,1,2,0.921380939824698,0.926919207413539
"1246",24,29,2,1,46,3,1,1,3,0.531758958681774,0.501887368920283
"1247",24,29,2,1,47,3,2,0,2,0.382737621584257,0.321984101295418
"1248",24,21,2,1,48,1,1,1,4,0.260635057358052,0.188086459670204
"1249",24,27,2,1,49,3,2,0,1,0.82788419347674,0.866140462545207
"1250",24,18,2,2,50,2,1,0,2,0.504672295391817,0.464027282224314
"1251",24,35,2,1,51,3,1,1,2,1.04768076036531,1.10793137352747
"1252",24,19,2,2,52,1,2,1,5,0.425264651108038,0.369290658538313
"1253",24,31,2,2,53,2,1,0,2,0.638291683431518,0.590154208742894
"1254",24,37,2,2,54,1,2,1,4,0.40821697025612,0.378307831432649
"1255",24,26,2,2,55,2,1,0,2,0.791352846356739,0.799949523230971
"1256",24,29,2,1,56,3,1,1,3,0.954442367099691,0.969825831895375
"1257",24,29,2,1,57,1,2,0,3,0.425181337978963,0.408161707357439
"1258",24,21,2,1,58,1,1,1,4,0.409552995189006,0.396942340951723
"1259",24,27,2,1,59,2,1,1,3,0.441725526330564,0.417566080480167
"1260",24,18,2,1,60,3,2,0,2,0.384229925880944,0.340796250873589
"1261",24,35,2,2,61,3,1,0,1,1.22747123794057,1.28751039610895
"1262",24,19,2,1,62,3,1,1,3,1.27451226592245,1.23005911741911
"1263",24,31,2,1,63,2,1,1,4,0.66114812111072,0.732432032980098
"1264",24,37,2,2,64,1,2,1,4,0.388803333847535,0.374291327054586
"1265",24,26,2,2,65,1,2,1,4,0.360669152550665,0.35519958306544
"1266",24,29,2,2,66,1,2,1,5,0.373192995370357,0.379692716313989
"1267",24,29,2,2,67,1,1,0,3,0.572943700675576,0.637090731608046
"1268",24,21,2,1,68,1,1,1,4,0.449410508345964,0.398944942630101
"1269",24,27,2,1,69,3,1,1,3,0.730849231810496,0.766867799025006
"1270",24,18,2,2,70,3,2,1,2,0.693686000979097,0.830008729096181
"1271",24,35,2,1,71,2,2,0,3,0.724150503746356,0.735695676048301
"1272",24,19,2,1,72,2,1,1,4,0.654451196782753,0.680668504912697
"1273",24,31,2,2,73,1,2,1,5,0.430689534185605,0.359945507009979
"1274",24,37,2,2,74,3,2,1,2,0.95964505695222,0.927575429283402
"1275",24,26,2,1,75,3,1,1,2,0.94662926581329,0.951217848550524
"1276",24,29,2,1,76,2,2,0,2,0.388828418025859,0.384574002440081
"1277",24,29,2,2,77,2,2,1,3,0.87023604499299,0.894349405804496
"1278",24,21,2,1,78,1,1,1,5,0.413027535418333,0.418934905259357
"1279",24,27,2,1,79,1,1,1,4,0.427542020354029,0.429066986297092
"1280",24,18,2,1,80,3,1,1,3,0.758753743982896,0.701313884026957
"1281",24,35,2,2,81,2,2,1,3,0.829019353104957,0.790161969500426
"1282",24,19,2,1,82,3,1,1,3,1.0501615922033,1.05318220504229
"1283",24,31,2,2,83,3,2,1,3,1.183504600583,1.1288862443378
"1284",24,37,2,1,84,2,2,0,2,0.457218759610208,0.428190218510265
"1285",24,26,2,1,85,3,1,1,2,0.701952018880335,0.774188355806463
"1286",24,29,2,1,86,1,1,1,4,0.466706442543658,0.515518957875322
"1287",24,29,2,2,87,2,2,1,3,0.700972831234425,0.698464211052192
"1288",24,21,2,2,88,2,2,1,3,0.552908005151073,0.529535670253619
"1289",24,27,2,2,89,1,2,1,4,0.393057531070867,0.432827388957617
"1290",24,18,2,1,90,2,2,0,2,0.535531508603414,0.501159423796862
"1291",24,35,2,2,91,1,2,1,4,0.358910688879797,0.38609061939764
"1292",24,19,2,2,92,1,2,1,4,0.528563064447155,0.553395782353556
"1293",24,31,2,2,93,3,1,0,1,1.20830982699058,1.23419499864414
"1294",24,37,2,2,94,1,2,1,4,0.440653908142,0.360974786939437
"1295",24,26,2,1,95,1,1,1,4,0.397321303641628,0.284299332347195
"1296",24,29,2,2,96,3,1,0,2,1.19534114792412,1.24832911961436
"1297",24,29,2,1,97,3,1,1,2,0.979821237756924,0.853608521937101
"1298",24,21,2,1,98,1,1,1,4,0.364212730087787,0.42607801823564
"1299",24,27,2,2,99,1,1,0,3,0.554184734214856,0.574062260474255
"1300",24,18,2,2,100,2,2,1,3,0.387067254196896,0.376760557507729
"1301",24,35,2,2,101,3,2,1,2,0.576256037490362,0.516668757928393
"1302",24,19,2,2,102,2,1,0,3,0.91198228883753,0.94194750977516
"1303",24,31,2,2,103,3,2,1,2,0.637673853637645,0.58690040341136
"1304",24,37,2,2,104,2,1,0,2,0.714146509136133,0.713196780250332
"1305",24,26,2,2,105,1,2,1,4,0.352023514855545,0.330745863929336
"1306",24,29,2,2,106,3,1,0,2,0.804171725698226,0.885602449408507
"1307",24,29,2,2,107,2,2,1,3,0.493445451149265,0.571467245892008
"1308",24,21,2,2,108,3,1,0,2,0.597390904577822,0.5270138661633
"1309",24,27,2,1,109,2,2,0,2,0.806573735652791,0.807101111613729
"1310",24,18,2,2,110,1,2,1,4,0.314384492257463,0.258947947615237
"1311",24,35,2,2,111,3,2,1,2,0.936609109830183,0.99568754161035
"1312",24,19,2,1,112,1,1,1,4,0.599345955383635,0.656026044117922
"1313",24,31,2,2,113,1,2,1,4,0.501226662878477,0.570168529386527
"1314",24,37,2,2,114,3,1,0,2,0.811846120706649,0.902490276670278
"1315",24,26,2,2,115,2,1,0,2,0.645292523764508,0.714373713990583
"1316",24,29,2,1,116,1,2,0,3,0.561541115247963,0.633356964924255
"1317",24,29,2,1,117,2,2,0,2,0.624731732382831,0.618076514383909
"1318",24,21,2,1,118,2,1,1,4,0.401187641885226,0.323342215122747
"1319",24,27,2,1,119,3,2,0,1,1.08508911057105,1.01809806016455
"1320",24,18,2,2,120,3,1,0,1,0.58923875013878,0.600341530191149
"1321",24,35,2,2,121,3,1,0,1,0.873999396853663,0.844533526158715
"1322",24,19,2,1,122,2,2,0,3,0.894198950138154,0.814910093846801
"1323",24,31,2,1,123,1,1,1,4,0.344307093984743,0.293022789468366
"1324",24,37,2,1,124,1,1,1,5,0.28595149141892,0.296457252876646
"1325",24,26,2,2,125,3,1,0,1,1.0426692563468,1.03166691765843
"1326",24,29,2,2,126,2,2,1,4,0.418864255934788,0.451653869057942
"1327",24,29,2,2,127,3,2,1,2,1.16014936996638,1.24185919669005
"1328",24,21,2,1,128,3,2,0,1,1.29994707472654,1.32540400436053
"1329",24,27,2,2,129,3,2,1,2,0.779171729255797,0.723150498118199
"1330",24,18,2,1,130,2,1,1,3,0.557785924280651,0.540969071090108
"1331",24,35,2,2,131,3,2,1,3,0.947984041355437,0.895905424906249
"1332",24,19,2,1,132,2,1,1,4,0.635690020867472,0.64219513798103
"1333",24,31,2,2,133,3,2,1,3,0.665305501342542,0.715358211928987
"1334",24,37,2,1,134,1,1,1,5,0.395201370648371,0.41859119953846
"1335",24,26,2,1,135,2,1,1,4,0.624769140398397,0.560657808144925
"1336",24,29,2,1,136,2,2,0,3,0.695223357319822,0.732812032169569
"1337",24,29,2,2,137,1,2,1,4,0.509730677951313,0.51859862419963
"1338",24,21,2,1,138,3,1,1,2,0.941295073577213,0.883787206042554
"1339",24,27,2,1,139,1,1,1,5,0.349907825125265,0.354387028701081
"1340",24,18,2,1,140,2,2,0,2,0.604411449690747,0.59994518148666
"1341",24,35,2,1,141,1,1,1,5,0.375799881612456,0.342809756760789
"1342",24,19,2,2,142,3,2,1,2,0.649433077025951,0.713753558824106
"1343",24,31,2,2,143,1,2,1,5,0.330994051639018,0.387414091819921
"1344",24,37,2,2,144,1,2,1,5,0.343788145211712,0.329123023276811
"1345",24,26,2,2,145,2,1,0,2,0.704685857245631,0.722037081769266
"1346",24,29,2,2,146,2,1,0,2,0.940401535885493,0.911082900933366
"1347",24,29,2,1,147,1,2,0,4,0.529642489255351,0.585058254691906
"1348",24,21,2,1,148,1,1,1,4,0.384094183549743,0.363041980430331
"1349",24,27,2,1,149,3,2,0,1,1.60910779628698,1.49874131816
"1350",24,18,2,2,150,2,2,1,3,0.651122607486751,0.591971749820481
"1351",24,35,2,1,151,2,1,1,3,0.644090246406888,0.626197442986563
"1352",24,19,2,1,152,2,1,1,3,0.531455596035966,0.618902144936638
"1353",24,31,2,1,153,2,1,1,3,0.575695932976462,0.616412713770304
"1354",24,37,2,1,154,3,1,1,3,0.635785152753296,0.625462561865619
"1355",24,26,2,1,155,3,2,0,1,0.647538204112147,0.711632160022655
"1356",24,29,2,1,156,1,1,1,4,0.379126399379507,0.39625443293799
"1357",24,29,2,1,157,3,1,1,2,0.875110565615532,0.94060710602381
"1358",24,21,2,1,158,2,2,0,3,1.08917230363809,1.10184765047207
"1359",24,27,2,2,159,2,1,0,3,0.906193565935412,0.908250622907726
"1360",24,18,2,1,160,2,1,1,4,0.504832575492227,0.529067985883227
"1361",24,35,2,2,161,1,2,1,4,0.405353377044687,0.45669535871901
"1362",24,19,2,2,162,2,1,0,3,0.654977714222119,0.612589025097994
"1363",24,31,2,1,163,2,2,0,2,0.738206827017693,0.758730739355281
"1364",24,37,2,1,164,2,2,0,3,0.561583287710309,0.583310657912779
"1365",24,26,2,2,165,3,1,0,1,1.17942400041781,1.28287886115199
"1366",24,29,2,1,166,2,1,1,3,0.620507962748351,0.586611799065826
"1367",24,29,2,1,167,1,2,0,4,0.825997044052188,0.866427813553141
"1368",24,21,2,1,168,3,1,1,3,0.812757301007913,0.748678220607723
"1369",24,27,2,2,169,2,2,1,4,0.449941553496156,0.443295675587379
"1370",24,18,2,2,170,2,2,1,3,0.575052094771547,0.488628210155724
"1371",24,35,2,1,171,1,2,0,4,0.469728265167588,0.511693680276103
"1372",24,19,2,1,172,3,1,1,2,0.977000459853064,1.00195724230471
"1373",24,31,2,1,173,2,1,1,4,0.52596376402281,0.496054255685057
"1374",24,37,2,2,174,1,2,1,5,0.418314995803489,0.415471893667548
"1375",24,26,2,1,175,1,2,0,3,0.480945199681669,0.395549314839083
"1376",24,29,2,2,176,1,2,1,4,0.458966246733166,0.391484973770145
"1377",24,29,2,2,177,1,2,1,4,0.352753251236594,0.360771707671339
"1378",24,21,2,2,178,3,1,0,2,0.490195478286639,0.470853458744851
"1379",24,27,2,2,179,1,2,1,5,0.429396182832813,0.480817600638659
"1380",24,18,2,2,180,1,2,1,5,0.365625046646851,0.291701541419117
"1381",24,35,2,2,181,3,1,0,1,0.606660195783547,0.650310030173792
"1382",24,19,2,1,182,3,2,0,1,1.02219756379808,1.00156418945474
"1383",24,31,2,2,183,1,2,1,5,0.444289637306622,0.481288216109519
"1384",24,37,2,1,184,3,2,0,2,1.11806977727774,1.23628487224304
"1385",24,26,2,2,185,2,2,1,4,0.612445521891924,0.714535109556654
"1386",24,29,2,1,186,1,1,1,4,0.422857591080747,0.322562301266489
"1387",24,29,2,1,187,3,2,0,1,1.27457271027532,1.30039477351285
"1388",24,21,2,2,188,2,1,0,2,0.541853971893687,0.571380933850727
"1389",24,27,2,1,189,2,2,0,2,0.634716607204967,0.619930615936833
"1390",24,18,2,2,190,2,2,1,3,0.609018765607019,0.507139457269414
"1391",24,35,2,2,191,2,2,1,3,0.727384329498161,0.76451847464507
"1392",24,19,2,1,192,1,1,1,4,0.401645613493381,0.453354987129307
"1393",24,31,2,2,193,2,2,1,3,0.582264486126301,0.52868094590606
"1394",24,37,2,2,194,1,1,0,4,0.526934890951227,0.577008944290282
"1395",24,26,2,1,195,3,1,1,2,0.356532202625648,0.402456288558885
"1396",24,29,2,1,196,1,1,1,5,0.457202996169877,0.467849559937904
"1397",24,29,2,1,197,1,2,0,3,0.564440576400317,0.61526089529605
"1398",24,21,2,1,198,2,1,1,3,0.587390867229343,0.550794389860683
"1399",24,27,2,2,199,3,2,1,2,0.949289914164812,0.971555408795831
"1400",24,18,2,2,200,3,1,0,2,0.906475636464138,0.855829572342483
"1401",24,35,2,2,201,2,1,0,2,0.679192609454889,0.767293260739653
"1402",24,19,2,2,202,3,1,0,2,1.41850044048814,1.40814015993467
"1403",24,31,2,2,203,3,1,0,2,1.02297561997402,1.00653133577431
"1404",24,37,2,2,204,3,1,0,1,0.512784103142503,0.511418492871793
"1405",24,26,2,1,205,3,1,1,2,1.14822827217921,1.09814546765199
"1406",24,29,2,1,206,1,1,1,5,0.308906483094699,0.405297383180972
"1407",24,29,2,1,207,2,1,1,4,0.657556997279488,0.639389558743546
"1408",24,21,2,2,208,1,2,1,4,0.353799048890216,0.355686821261578
"1409",24,27,2,1,209,1,1,1,4,0.388909128522771,0.368386421978434
"1410",24,18,2,1,210,1,2,0,4,0.470620912530338,0.518929220595483
"1411",24,35,2,2,211,3,1,0,1,0.824282645113854,0.930350310228144
"1412",24,19,2,2,212,2,1,0,3,0.397595277143439,0.379214842207597
"1413",24,31,2,1,213,1,2,0,3,0.455263373521754,0.477684705868893
"1414",24,37,2,2,214,2,1,0,2,1.01314877195441,0.991015354623666
"1415",24,26,2,2,215,2,2,1,4,0.680894638242921,0.682980059692798
"1416",24,29,2,1,216,2,2,0,3,0.621102553135012,0.588478956764953
"1417",24,29,2,1,217,3,2,0,2,1.07282778682224,1.17790147983501
"1418",24,21,2,1,218,2,1,1,4,0.5583472838111,0.540915404983596
"1419",24,27,2,2,219,3,2,1,3,0.940161099735192,0.929316589102142
"1420",24,18,2,2,220,3,1,0,1,0.630668517097199,0.592760778654298
"1421",24,35,2,2,221,1,1,0,3,0.555243497355975,0.567940764354637
"1422",24,19,2,1,222,1,2,0,3,0.475124729326247,0.44440847606395
"1423",24,31,2,2,223,1,2,1,4,0.33119468599517,0.367400957200661
"1424",24,37,2,2,224,2,1,0,3,0.531681129903853,0.616857060875396
"1425",24,26,2,2,225,2,1,0,2,0.764206106047849,0.764895205601444
"1426",24,29,2,1,226,3,2,0,1,1.40382154079159,1.41974398446994
"1427",24,29,2,2,227,1,2,1,4,0.354291308773893,0.353955894713981
"1428",24,21,2,1,228,2,1,1,4,0.881403851234532,0.831057336743556
"1429",24,27,2,2,229,2,2,1,3,0.598706118508051,0.582947207475245
"1430",24,18,2,1,230,2,1,1,3,0.628459183104399,0.650594637298496
"1431",24,35,2,2,231,3,2,1,2,0.80545595089089,0.846775987747508
"1432",24,19,2,1,232,2,2,0,3,0.371379676864896,0.434115090257761
"1433",24,31,2,1,233,3,1,1,3,0.600481462660886,0.636458337950914
"1434",24,37,2,2,234,2,2,1,3,0.768523016413156,0.775997057108797
"1435",24,26,2,2,235,3,2,1,2,0.915288583379386,0.796313349106283
"1436",24,29,2,2,236,1,2,1,4,0.440788067758968,0.376498401455876
"1437",24,29,2,1,237,1,1,1,5,0.408438261435643,0.392994212299736
"1438",24,21,2,1,238,3,2,0,2,0.712586432507679,0.671055736549032
"1439",24,27,2,1,239,3,1,1,2,0.74365329648909,0.805965478212654
"1440",24,18,2,1,240,2,2,0,2,0.49922633126452,0.43849952412528
"1441",23,32,1,2,1,1,1,0,3,0.609397121867317,0.711024182387038
"1442",23,18,1,1,2,1,1,1,5,0.403307123412471,0.386952724407756
"1443",23,39,1,2,3,3,1,0,2,1.13493109315224,1.1065761447016
"1444",23,25,1,2,4,3,1,0,1,0.832538134338265,0.859734885806064
"1445",23,25,1,1,5,2,1,1,4,0.560808193405609,0.602870744942694
"1446",23,37,1,1,6,3,1,1,3,0.668914714106144,0.591239675402403
"1447",23,33,1,2,7,1,2,1,4,0.381894213428192,0.443577079201171
"1448",23,19,1,1,8,2,1,1,4,0.674818548053177,0.563532298975041
"1449",23,19,1,2,9,2,2,1,3,0.623478508797501,0.624421759260106
"1450",23,25,1,2,10,3,1,0,1,0.950175695193688,0.960405462383419
"1451",23,32,1,1,11,3,2,0,1,1.42681322903816,1.49523937000082
"1452",23,18,1,2,12,2,1,0,3,0.833977494872017,0.877182461064239
"1453",23,39,1,2,13,3,1,0,2,0.696557676891385,0.731212620145866
"1454",23,25,1,2,14,3,1,0,1,0.741526982733391,0.72460176102999
"1455",23,25,1,2,15,1,1,0,4,0.380895395354307,0.342610799782295
"1456",23,37,1,1,16,1,1,1,4,0.325755141578916,0.364680406945987
"1457",23,33,1,1,17,3,1,1,3,0.876042771242136,0.840001847907317
"1458",23,19,1,1,18,3,2,0,1,1.64550532451718,1.65180185787715
"1459",23,19,1,1,19,1,2,0,3,0.558898219111513,0.608928807629401
"1460",23,25,1,1,20,1,1,1,4,0.495577471812511,0.503650441316138
"1461",23,32,1,1,21,2,2,0,2,0.69247877726721,0.695172719083165
"1462",23,18,1,2,22,1,2,1,4,0.460164994174161,0.462086472629172
"1463",23,39,1,2,23,2,1,0,2,1.13148108108242,1.13535284465244
"1464",23,25,1,1,24,1,2,0,4,0.446451299659337,0.403325495720507
"1465",23,25,1,2,25,2,2,1,4,0.512171051534236,0.581530287895906
"1466",23,37,1,2,26,2,1,0,2,0.762372107059159,0.788291508513283
"1467",23,33,1,1,27,1,1,1,4,0.423909052655664,0.45092489903843
"1468",23,19,1,1,28,2,1,1,3,0.438690835543373,0.451473407305732
"1469",23,19,1,2,29,3,2,1,3,0.800510966781081,0.888673233686278
"1470",23,25,1,2,30,3,2,1,2,0.988616939100536,1.10561518645222
"1471",23,32,1,1,31,1,1,1,5,0.417935861919077,0.528751552819217
"1472",23,18,1,2,32,2,1,0,3,0.833135087622838,0.800633656832447
"1473",23,39,1,1,33,3,1,1,3,0.575705959942523,0.561175572246485
"1474",23,25,1,1,34,1,2,0,4,0.56092614069463,0.628115277967924
"1475",23,25,1,2,35,1,2,1,4,0.462326692675412,0.510695643662814
"1476",23,37,1,1,36,3,2,0,1,1.5033994096089,1.52545698184999
"1477",23,33,1,1,37,2,2,0,2,0.662220487018445,0.594414020620419
"1478",23,19,1,1,38,3,2,0,1,1.227622038899,1.18083559645226
"1479",23,19,1,1,39,3,2,0,1,1.26353206584409,1.28040134691354
"1480",23,25,1,2,40,2,2,1,4,0.633489704232084,0.637128291205614
"1481",23,32,1,1,41,2,1,1,3,0.609238552661468,0.63779914801682
"1482",23,18,1,2,42,1,2,1,4,0.318223414808699,0.295659866542338
"1483",23,39,1,2,43,1,1,0,4,0.589164095918976,0.619628745276944
"1484",23,25,1,1,44,2,1,1,4,0.450886640312356,0.428433000836975
"1485",23,25,1,2,45,2,1,0,2,0.853999628499832,0.909442918148277
"1486",23,37,1,1,46,3,2,0,2,1.03114688359372,0.915060637228659
"1487",23,33,1,2,47,2,2,1,4,0.342337617223124,0.330403131274435
"1488",23,19,1,1,48,3,1,1,2,0.604595764320879,0.685130505098157
"1489",23,19,1,2,49,2,2,1,3,0.413068370509455,0.469241476242431
"1490",23,25,1,2,50,3,2,1,3,0.726309936093666,0.759796592355633
"1491",23,32,1,2,51,3,2,1,2,0.756696711308754,0.763658265756245
"1492",23,18,1,1,52,3,1,1,3,0.888333993192393,0.906688561305959
"1493",23,39,1,1,53,1,1,1,5,0.33538053558341,0.310724845431696
"1494",23,25,1,2,54,2,1,0,2,0.664221228912931,0.689669098086241
"1495",23,25,1,2,55,2,2,1,3,0.64624690504463,0.671199661714295
"1496",23,37,1,1,56,3,1,1,3,0.854991543619029,0.932333531873629
"1497",23,33,1,2,57,3,1,0,1,0.957822209750376,1.01393597630571
"1498",23,19,1,2,58,1,2,1,4,0.3503618531935,0.397816194562064
"1499",23,19,1,1,59,2,2,0,3,1.00161553560911,0.921005853071317
"1500",23,25,1,2,60,1,1,0,3,0.419033787241166,0.342034640767369
"1501",23,32,1,2,61,1,2,1,5,0.379345172727812,0.391527417100501
"1502",23,18,1,2,62,1,2,1,4,0.502153864508609,0.541687653014111
"1503",23,39,1,1,63,1,1,1,5,0.416226906851874,0.396234701675247
"1504",23,25,1,2,64,3,1,0,2,1.05957582492542,1.03076447874214
"1505",23,25,1,2,65,3,1,0,1,1.27029030517212,1.24731742020713
"1506",23,37,1,1,66,1,1,1,5,0.467792409448054,0.465504173407563
"1507",23,33,1,1,67,3,1,1,2,0.728135828266192,0.758231495385108
"1508",23,19,1,2,68,2,2,1,3,0.506480641213443,0.505836716661982
"1509",23,19,1,1,69,2,2,0,2,0.541291694438261,0.47715379898086
"1510",23,25,1,1,70,3,1,1,3,0.681868310237943,0.718897774662049
"1511",23,32,1,1,71,2,1,1,4,0.671291699851579,0.696183216451773
"1512",23,18,1,2,72,1,2,1,4,0.437247260271609,0.416392251317175
"1513",23,39,1,2,73,3,2,1,3,0.708166117602741,0.678979444920247
"1514",23,25,1,2,74,3,1,0,1,0.611008717458646,0.57813717876446
"1515",23,25,1,1,75,1,1,1,5,0.342434670276906,0.309477828430458
"1516",23,37,1,1,76,1,1,1,4,0.330060279459421,0.365831999546885
"1517",23,33,1,2,77,3,1,0,1,0.955773074703878,0.97491587262621
"1518",23,19,1,1,78,3,1,1,2,0.779184356257622,0.757849765119555
"1519",23,19,1,2,79,1,2,1,5,0.548957256653867,0.470472216146093
"1520",23,25,1,1,80,1,1,1,5,0.408297953830863,0.324047988117467
"1521",23,32,1,2,81,1,2,1,4,0.177852189771687,0.183659517415451
"1522",23,18,1,1,82,1,2,0,4,0.539766681254658,0.661637684869641
"1523",23,39,1,1,83,3,2,0,2,0.972976663689688,0.947386955367569
"1524",23,25,1,1,84,1,1,1,5,0.442833295671066,0.447717590341347
"1525",23,25,1,2,85,3,2,1,3,0.900156604694302,0.988576591436449
"1526",23,37,1,2,86,1,2,1,5,0.373977881455736,0.353255368439206
"1527",23,33,1,2,87,3,1,0,2,0.459966468996961,0.443216349201732
"1528",23,19,1,2,88,2,1,0,2,0.729230705443854,0.736797581341992
"1529",23,19,1,1,89,2,1,1,4,0.5425955618072,0.540503443842197
"1530",23,25,1,1,90,1,2,0,3,0.504832520440681,0.464021324569842
"1531",23,32,1,2,91,1,2,1,5,0.365139770412184,0.39781225418044
"1532",23,18,1,2,92,1,1,0,4,0.532256665724886,0.558923472340326
"1533",23,39,1,2,93,2,2,1,4,0.589500283930681,0.627217518042401
"1534",23,25,1,2,94,1,2,1,4,0.404326190367509,0.351779834254309
"1535",23,25,1,1,95,2,1,1,4,0.73419045983362,0.697058711619064
"1536",23,37,1,1,96,3,2,0,2,0.624024129175199,0.585619486515762
"1537",23,33,1,2,97,1,2,1,4,0.272682939174276,0.326495829840955
"1538",23,19,1,2,98,2,2,1,3,0.627845407321657,0.568304197293583
"1539",23,19,1,2,99,3,2,1,2,0.818148941863996,0.908106689943592
"1540",23,25,1,1,100,2,1,1,3,0.49383460407,0.613004179210809
"1541",23,32,1,2,101,1,2,1,4,0.234952047974174,0.269835368020633
"1542",23,18,1,1,102,2,2,0,3,0.455931769961067,0.407652516186436
"1543",23,39,1,2,103,2,2,1,3,0.537949766285664,0.489970458357872
"1544",23,25,1,1,104,2,1,1,3,0.424659862906374,0.381248612326473
"1545",23,25,1,1,105,1,1,1,5,0.37280180738439,0.375842876228728
"1546",23,37,1,1,106,1,1,1,4,0.322317429418706,0.2907598965242
"1547",23,33,1,1,107,1,1,1,4,0.383510485404639,0.378296689217792
"1548",23,19,1,1,108,2,1,1,4,0.486743531629113,0.583695900827344
"1549",23,19,1,1,109,3,1,1,2,1.06563901220798,1.03500873807059
"1550",23,25,1,1,110,1,1,1,5,0.195436304252713,0.15446065254114
"1551",23,32,1,1,111,3,2,0,1,0.881998253754879,0.906202946159135
"1552",23,18,1,2,112,2,2,1,4,0.611468405484209,0.569000689042026
"1553",23,39,1,1,113,1,1,1,4,0.488152189609693,0.40580879483694
"1554",23,25,1,2,114,1,2,1,4,0.354123575390989,0.368903074521764
"1555",23,25,1,1,115,3,2,0,1,0.769174046635183,0.706800178318512
"1556",23,37,1,2,116,3,1,0,1,0.869724164402907,0.935263184288096
"1557",23,33,1,2,117,2,2,1,4,0.62649969054092,0.632414619800101
"1558",23,19,1,2,118,1,1,0,4,0.579305585430633,0.635323573932832
"1559",23,19,1,1,119,2,2,0,2,0.85844764032836,0.868102746398501
"1560",23,25,1,1,120,2,2,0,3,0.810016796873799,0.883958899992353
"1561",23,32,1,1,121,2,2,0,3,0.73962540730968,0.780775651869615
"1562",23,18,1,1,122,2,1,1,3,0.46839279633614,0.446265180006681
"1563",23,39,1,2,123,3,1,0,1,0.793992321366047,0.804793623406694
"1564",23,25,1,1,124,1,1,1,4,0.412999113821066,0.467368501327553
"1565",23,25,1,1,125,2,2,0,3,0.69274816704257,0.709385333943648
"1566",23,37,1,2,126,1,2,1,5,0.468607925407077,0.56738722640312
"1567",23,33,1,1,127,2,1,1,3,0.691515029090618,0.632770422257315
"1568",23,19,1,1,128,1,1,1,5,0.41268896320546,0.464625896405091
"1569",23,19,1,1,129,2,1,1,3,0.652877934607324,0.717770270090927
"1570",23,25,1,1,130,2,1,1,4,0.481101352172122,0.433592442890255
"1571",23,32,1,1,131,3,1,1,2,0.988913010388627,0.961478780401059
"1572",23,18,1,2,132,2,2,1,3,0.636036368443023,0.629037790620971
"1573",23,39,1,1,133,3,2,0,1,0.853829489269057,0.811031455529116
"1574",23,25,1,2,134,1,2,1,4,0.326026279889203,0.388084111387672
"1575",23,25,1,2,135,3,2,1,2,0.831119747915932,0.845369670956801
"1576",23,37,1,2,136,2,1,0,2,0.530781084271862,0.540208217885032
