"","subj_no","age","group","stim","trial","difficulty","resp","corr","conf","RT_day1","RT_day2"
"1",30,33,2,1,1,2,2,0,2,0.727858766188425,0.761275605921261
"2",30,34,2,1,2,3,2,0,2,1.48397929116957,1.50585086637306
"3",30,27,2,2,3,1,2,1,5,0.523575857031506,0.477948649077708
"4",30,20,2,2,4,3,1,0,1,1.26504795580157,1.27914098660242
"5",30,18,2,2,5,3,1,0,1,1.70212307089747,1.6355243753274
"6",30,18,2,2,6,2,2,1,3,0.630659920614686,0.729145270781512
"7",30,37,2,1,7,1,1,1,4,0.268960215624396,0.1387770314374
"8",30,28,2,2,8,1,2,1,5,0.478085675113666,0.413926137522448
"9",30,26,2,2,9,1,2,1,5,0.326910135781256,0.366737657767244
"10",30,21,2,1,10,3,1,1,2,0.759800329153404,0.718775580630754
"11",30,33,2,1,11,1,1,1,4,0.360050442094358,0.191054138105676
"12",30,34,2,1,12,1,1,1,4,0.347035900607325,0.425631747327213
"13",30,27,2,2,13,1,2,1,4,0.32410887814543,0.291858701342158
"14",30,20,2,2,14,1,2,1,5,0.252007812257521,0.199197407473179
"15",30,18,2,2,15,1,2,1,4,0.470894486853069,0.519560318997932
"16",30,18,2,2,16,2,1,0,3,0.707336624464473,0.665355560051531
"17",30,37,2,1,17,3,1,1,2,1.00042274324816,1.02369281313092
"18",30,28,2,1,18,2,1,1,4,0.612341167954418,0.608522989208855
"19",30,26,2,2,19,1,2,1,5,0.405362245189961,0.458937245624103
"20",30,21,2,2,20,2,2,1,4,0.781084449309112,0.794340166351435
"21",30,33,2,1,21,3,1,1,2,0.888221012518438,0.877860277921932
"22",30,34,2,1,22,2,2,0,2,0.855282696081123,0.862284580881085
"23",30,27,2,1,23,1,1,1,5,0.361332230269072,0.335373823053151
"24",30,20,2,1,24,3,2,0,2,1.04591287541593,1.06947942362252
"25",30,18,2,1,25,2,1,1,3,0.83499328056424,0.832716328673495
"26",30,18,2,2,26,3,1,0,2,1.08984137599612,0.992700685404726
"27",30,37,2,2,27,2,1,0,3,0.603145512583453,0.556437076504927
"28",30,28,2,2,28,1,2,1,5,0.300422705792418,0.292009151409761
"29",30,26,2,2,29,2,1,0,2,0.650002997284921,0.680153463461004
"30",30,21,2,2,30,1,2,1,4,0.314757975338155,0.378194942126842
"31",30,33,2,2,31,1,2,1,4,0.465330858763247,0.462942165904599
"32",30,34,2,2,32,3,2,1,3,0.874807317768356,0.789465906803686
"33",30,27,2,1,33,3,2,0,2,1.24127693132033,1.26138419519787
"34",30,20,2,1,34,2,2,0,3,0.528149303746894,0.516486737894061
"35",30,18,2,2,35,2,2,1,4,0.73316523742862,0.748024939071181
"36",30,18,2,2,36,1,2,1,5,0.451379464459355,0.431371553563354
"37",30,37,2,1,37,3,1,1,3,0.80844654174609,0.778227471495374
"38",30,28,2,1,38,1,1,1,4,0.410315249361329,0.362525327982417
"39",30,26,2,2,39,2,1,0,2,0.615845509172086,0.594187783877099
"40",30,21,2,2,40,2,1,0,2,0.96634446628685,1.00375013275243
"41",30,33,2,1,41,2,1,1,3,0.839361732686242,0.910860305282014
"42",30,34,2,1,42,3,1,1,3,0.980147786325011,0.998448898684731
"43",30,27,2,1,43,1,1,1,4,0.478871481839813,0.483522690804471
"44",30,20,2,1,44,3,2,0,1,0.994049786487619,0.934514002362543
"45",30,18,2,1,45,3,2,0,2,0.992836335213123,1.00961724167239
"46",30,18,2,1,46,2,1,1,3,0.701548349486478,0.630917245601956
"47",30,37,2,2,47,3,1,0,2,1.14994961127324,1.12780830980663
"48",30,28,2,1,48,2,2,0,2,0.621025776901127,0.512991884459901
"49",30,26,2,1,49,2,1,1,4,0.511604137724059,0.480364428039718
"50",30,21,2,2,50,2,1,0,3,0.668298685518681,0.674140953490527
"51",30,33,2,1,51,1,1,1,5,0.372196941644749,0.432914348193998
"52",30,34,2,2,52,2,2,1,4,0.525383390429834,0.622925109938461
"53",30,27,2,1,53,2,1,1,3,0.836061086830987,0.896517759339667
"54",30,20,2,1,54,1,1,1,4,0.353656848813853,0.215013246085907
"55",30,18,2,1,55,2,1,1,4,0.653368453371115,0.729282423820214
"56",30,18,2,1,56,2,1,1,4,0.710821589627131,0.658984867989401
"57",30,37,2,2,57,3,1,0,2,1.05158715032718,1.12600521038384
"58",30,28,2,1,58,1,1,1,5,0.38281672987436,0.425923288620574
"59",30,26,2,2,59,3,2,1,2,0.860565740049099,0.790648783095118
"60",30,21,2,2,60,2,1,0,3,0.634319592198023,0.683151190729854
"61",30,33,2,1,61,1,1,1,5,0.410771979183895,0.435852969517334
"62",30,34,2,2,62,3,2,1,2,1.17734071784382,1.22303038887716
"63",30,27,2,1,63,3,1,1,2,0.956378030206296,0.955182591272224
"64",30,20,2,2,64,3,1,0,1,1.00263087498447,1.01670082299444
"65",30,18,2,2,65,1,2,1,5,0.383113263176902,0.370616775831822
"66",30,18,2,1,66,3,1,1,3,0.792157054093256,0.887288950485115
"67",30,37,2,1,67,1,1,1,5,0.397054931840874,0.38114954921611
"68",30,28,2,2,68,3,2,1,3,0.680131860475445,0.644717293664027
"69",30,26,2,2,69,1,2,1,5,0.394021207129453,0.350570564657684
"70",30,21,2,2,70,2,1,0,2,0.676378275084862,0.739086906200181
"71",30,33,2,2,71,2,2,1,4,0.51910864851843,0.547490177245973
"72",30,34,2,2,72,3,1,0,1,0.951153737087458,0.888227902621516
"73",30,27,2,2,73,2,2,1,4,0.621475588454695,0.621383816723972
"74",30,20,2,2,74,2,1,0,2,0.673586570754657,0.630849981241007
"75",30,18,2,2,75,2,1,0,2,0.704430933790293,0.651897138265324
"76",30,18,2,1,76,1,1,1,5,0.19172291051711,0.141511653828338
"77",30,37,2,2,77,3,2,1,2,0.742681009426022,0.740292409608593
"78",30,28,2,1,78,2,1,1,3,0.540489389667198,0.504564386844374
"79",30,26,2,2,79,3,1,0,1,0.979355277326524,1.00030754043619
"80",30,21,2,2,80,3,1,0,2,0.921881600101019,0.879102617270598
"81",30,33,2,2,81,2,2,1,3,0.69218890830271,0.832325483531822
"82",30,34,2,1,82,1,1,1,5,0.347279310873754,0.355241741568474
"83",30,27,2,2,83,1,1,0,3,0.800001036036942,0.797288147054703
"84",30,20,2,2,84,3,2,1,2,0.736389124294314,0.714835183025645
"85",30,18,2,1,85,2,2,0,2,0.7378097057445,0.790611187098621
"86",30,18,2,1,86,2,1,1,4,0.678054653045776,0.706179558909851
"87",30,37,2,2,87,3,2,1,2,1.00378922854669,0.980197973082524
"88",30,28,2,2,88,1,2,1,5,0.632229635164744,0.749515834190398
"89",30,26,2,2,89,3,2,1,2,1.09860792562632,1.04122053650308
"90",30,21,2,2,90,2,2,1,4,0.544118508785659,0.582348752448197
"91",30,33,2,1,91,1,1,1,4,0.384739943691529,0.390479897804231
"92",30,34,2,1,92,1,1,1,5,0.473906230548919,0.439928789166652
"93",30,27,2,2,93,2,1,0,3,0.75247442661175,0.717996837249805
"94",30,20,2,1,94,1,1,1,5,0.408143389316739,0.322066002890776
"95",30,18,2,1,95,2,1,1,3,0.67030834227171,0.619057562261817
"96",30,18,2,1,96,3,2,0,2,0.432603773488633,0.404036568993687
"97",30,37,2,1,97,2,2,0,2,0.679438533840509,0.60323774671245
"98",30,28,2,1,98,3,2,0,2,0.575897580348443,0.648190582732307
"99",30,26,2,1,99,2,1,1,3,0.524845205269873,0.463233666653144
"100",30,21,2,1,100,2,1,1,4,0.622969503890827,0.679654621927518
"101",30,33,2,1,101,2,1,1,4,0.485400807537028,0.502909198500655
"102",30,34,2,1,102,2,1,1,3,0.855571676780641,0.81538510818653
"103",30,27,2,1,103,3,1,1,3,0.957305972363378,1.06129834519771
"104",30,20,2,2,104,2,2,1,3,0.813565305142781,0.796763488325363
"105",30,18,2,2,105,2,2,1,3,0.518194755419521,0.508894108605005
"106",30,18,2,1,106,1,1,1,5,0.35690406055887,0.321395415443645
"107",30,37,2,1,107,3,2,0,2,1.13993559710891,1.23468628406374
"108",30,28,2,2,108,1,2,1,4,0.411434908278965,0.360433457791005
"109",30,26,2,1,109,1,1,1,4,0.439312812322247,0.469721093284184
"110",30,21,2,2,110,2,1,0,2,0.629862918088198,0.656649250078678
"111",30,33,2,1,111,1,1,1,4,0.259569268931678,0.274165378013937
"112",30,34,2,2,112,3,2,1,2,0.862538042336041,0.898492643680293
"113",30,27,2,2,113,1,2,1,4,0.300958344467846,0.328057795475659
"114",30,20,2,1,114,3,1,1,3,0.826974732458428,0.83334874088482
"115",30,18,2,1,115,2,1,1,4,0.455009847303328,0.419170230826833
"116",30,18,2,1,116,2,2,0,2,0.723309554762283,0.713017859273903
"117",30,37,2,2,117,1,1,0,4,0.45212475439985,0.469894752845352
"118",30,28,2,1,118,3,2,0,2,0.060583248551265,0.0885745027399142
"119",30,26,2,2,119,1,2,1,4,0.369769357521156,0.389802150138696
"120",30,21,2,1,120,2,2,0,3,0.875008289886322,0.846293605703833
"121",30,33,2,1,121,1,2,0,3,0.636916583834775,0.67900142466708
"122",30,34,2,1,122,1,1,1,5,0.358819821658244,0.373328615294419
"123",30,27,2,1,123,2,2,0,2,0.906201183511469,0.86983722453358
"124",30,20,2,2,124,2,2,1,3,0.949647682993134,0.891811147763215
"125",30,18,2,2,125,2,1,0,2,0.809663557351965,0.83056935220733
"126",30,18,2,2,126,2,2,1,3,0.744525835895752,0.775545441306739
"127",30,37,2,2,127,2,1,0,2,0.758096266950657,0.668252743123768
"128",30,28,2,1,128,2,1,1,3,0.589429492339733,0.64745581030822
"129",30,26,2,1,129,1,2,0,3,0.607580242974765,0.604337501481799
"130",30,21,2,1,130,1,1,1,5,0.413271302077946,0.395316067845205
"131",30,33,2,2,131,2,2,1,3,0.309722519127304,0.261521835854097
"132",30,34,2,1,132,2,1,1,3,0.352596391936357,0.346518347943642
"133",30,27,2,2,133,3,2,1,3,0.874261627357226,0.855533915075288
"134",30,20,2,2,134,1,1,0,3,0.524090214338543,0.464762424311257
"135",30,18,2,2,135,3,2,1,2,0.949921710452155,0.999516920734706
"136",30,18,2,1,136,3,2,0,2,1.45585677684205,1.3818523923018
"137",30,37,2,1,137,2,1,1,4,0.691609580820344,0.64744807646535
"138",30,28,2,1,138,1,1,1,4,0.407029501544916,0.347899664622946
"139",30,26,2,2,139,3,2,1,2,0.642693647373194,0.656709863110769
"140",30,21,2,2,140,3,1,0,1,1.15305846366858,1.18036680162764
"141",30,33,2,2,141,3,2,1,3,0.904434974807129,1.01683337480445
"142",30,34,2,1,142,3,1,1,3,0.589887140911061,0.562827053040787
"143",30,27,2,2,143,1,2,1,4,0.501031652071747,0.508620499538611
"144",30,20,2,1,144,1,1,1,4,0.411646451534511,0.382981804547712
"145",30,18,2,2,145,2,1,0,3,0.47692693347395,0.428088225642255
"146",30,18,2,1,146,3,1,1,2,1.01914340495778,1.03429890388397
"147",30,37,2,2,147,2,1,0,3,0.868613567477578,0.930912635502317
"148",30,28,2,1,148,3,2,0,2,1.59150648716607,1.6489736335288
"149",30,26,2,2,149,1,2,1,5,0.386971206500015,0.339234778351287
"150",30,21,2,2,150,3,1,0,2,0.842332063126134,0.844638102465741
"151",30,33,2,2,151,1,2,1,5,0.366994298782974,0.398218177140514
"152",30,34,2,2,152,1,2,1,4,0.336209785856931,0.313780105409948
"153",30,27,2,1,153,1,1,1,5,0.191683884399817,0.217767730564124
"154",30,20,2,1,154,2,1,1,4,0.778770198999979,0.751898593869958
"155",30,18,2,2,155,2,1,0,3,0.559804117651621,0.649046692710384
"156",30,18,2,2,156,3,2,1,2,0.831685795566269,0.788795846894876
"157",30,37,2,2,157,1,2,1,5,0.372922373722782,0.448257681975753
"158",30,28,2,1,158,3,1,1,2,0.95000340732531,0.838498974030558
"159",30,26,2,2,159,3,1,0,2,0.805833436497431,0.844605091678219
"160",30,21,2,2,160,2,1,0,2,0.642017773411161,0.648525473720937
"161",30,33,2,1,161,3,2,0,2,0.980702499106504,1.0132754131837
"162",30,34,2,2,162,3,2,1,3,0.695504252702571,0.661683174958832
"163",30,27,2,2,163,3,2,1,2,0.918702060386645,0.933739062624343
"164",30,20,2,1,164,3,1,1,2,0.852375801406904,0.821815995361228
"165",30,18,2,2,165,1,2,1,4,0.473010666149863,0.467709075325567
"166",30,18,2,1,166,1,2,0,3,0.392664046925962,0.420869374538223
"167",30,37,2,2,167,3,1,0,2,0.697163215001998,0.728559274922832
"168",30,28,2,2,168,2,2,1,3,0.353863770696532,0.376739527422832
"169",30,26,2,1,169,1,1,1,4,0.418920607785869,0.423216436936959
"170",30,21,2,1,170,3,1,1,3,0.740560683634074,0.683644125810133
"171",30,33,2,2,171,1,2,1,5,0.375024778180788,0.340488324897767
"172",30,34,2,1,172,3,1,1,2,1.03205923009766,1.04251525064981
"173",30,27,2,1,173,1,1,1,4,0.256442412866498,0.271367637763401
"174",30,20,2,1,174,1,1,1,5,0.561753354737638,0.590500397912589
"175",30,18,2,1,175,3,2,0,1,1.0316069305633,1.05099813643017
"176",30,18,2,2,176,3,1,0,1,1.29208015100643,1.30236329840085
"177",30,37,2,1,177,1,1,1,4,0.395720132454928,0.340498606443453
"178",30,28,2,2,178,3,2,1,2,1.07837985019539,1.04434933230107
"179",30,26,2,1,179,3,2,0,1,0.641759855197899,0.740439370318788
"180",30,21,2,1,180,3,2,0,1,0.644790598958422,0.574918619646069
"181",30,33,2,2,181,3,1,0,1,1.03441188208232,1.05034274731977
"182",30,34,2,1,182,2,1,1,3,0.723269439103522,0.736551938202125
"183",30,27,2,1,183,2,2,0,3,0.604587539168944,0.626479928617942
"184",30,20,2,1,184,1,1,1,4,0.391321412834478,0.390643825570584
"185",30,18,2,2,185,3,1,0,2,0.485318846391798,0.453431342641997
"186",30,18,2,2,186,3,1,0,2,0.883259781038851,0.901352838232143
"187",30,37,2,2,187,3,1,0,1,1.3316655651152,1.356574547226
"188",30,28,2,2,188,2,2,1,3,0.71074751084744,0.704566160717851
"189",30,26,2,1,189,2,2,0,2,0.66869426480067,0.711661850211806
"190",30,21,2,2,190,2,1,0,2,0.568845020281831,0.646748772523728
"191",30,33,2,1,191,3,1,1,2,0.782317642523198,0.824027979248639
"192",30,34,2,1,192,2,2,0,2,0.912866355622215,0.981530663597273
"193",30,27,2,2,193,2,1,0,3,0.814306432428746,0.871087686871015
"194",30,20,2,2,194,2,2,1,4,0.739580765454107,0.751558613068638
"195",30,18,2,2,195,3,1,0,2,0.658243834299014,0.66668859240724
"196",30,18,2,1,196,3,1,1,3,0.775601940746262,0.796239187809586
"197",30,37,2,1,197,2,1,1,4,0.7087805215734,0.736982238292641
"198",30,28,2,2,198,3,2,1,3,0.768096356292589,0.810832441581575
"199",30,26,2,2,199,3,2,1,2,0.739445795996938,0.743039310466819
"200",30,21,2,2,200,2,2,1,4,0.903968559937422,0.929053369186644
"201",30,33,2,1,201,3,1,1,2,0.839647648841397,0.865821219840665
"202",30,34,2,1,202,2,1,1,3,0.596572622769489,0.62042564622527
"203",30,27,2,1,203,2,2,0,3,0.487860257452946,0.476010912463949
"204",30,20,2,1,204,1,1,1,5,0.293190866146737,0.280115436827023
"205",30,18,2,1,205,1,1,1,5,0.465484974586054,0.465643072552964
"206",30,18,2,2,206,1,1,0,3,0.56278543655493,0.577645569606648
"207",30,37,2,1,207,1,1,1,4,0.446665780654619,0.421207120572783
"208",30,28,2,1,208,1,1,1,4,0.405487836229331,0.399564550195488
"209",30,26,2,2,209,2,2,1,3,0.630846140430518,0.572524124044124
"210",30,21,2,2,210,1,2,1,4,0.394995099857376,0.455515863822783
"211",30,33,2,1,211,1,1,1,5,0.425783613122018,0.465876489361251
"212",30,34,2,1,212,3,1,1,2,0.92822733372538,0.89895252178238
"213",30,27,2,1,213,2,1,1,3,0.806684490668615,0.832606001676001
"214",30,20,2,1,214,1,1,1,4,0.416002944075669,0.438471807764297
"215",30,18,2,1,215,2,2,0,2,0.808203563326223,0.769473226977773
"216",30,18,2,1,216,3,1,1,3,0.81346755035686,0.754531858434271
"217",30,37,2,2,217,2,1,0,2,0.843713996463791,0.865514109542331
"218",30,28,2,1,218,1,1,1,5,0.355321456555864,0.340105378697704
"219",30,26,2,2,219,1,2,1,5,0.286331021258189,0.361786634620377
"220",30,21,2,2,220,1,2,1,4,0.461072819795057,0.451548326160615
"221",30,33,2,2,221,3,2,1,3,0.722442167130283,0.769178420314113
"222",30,34,2,1,222,1,1,1,5,0.369072822146682,0.341264400535491
"223",30,27,2,1,223,1,1,1,4,0.253636762291561,0.276406259127452
"224",30,20,2,1,224,3,1,1,2,0.916877440425531,1.00373445611621
"225",30,18,2,2,225,3,2,1,2,0.91352543504501,0.853434725415354
"226",30,18,2,2,226,3,1,0,1,1.69350777877571,1.67243273042364
"227",30,37,2,2,227,1,2,1,4,0.515606643068449,0.456011908477941
"228",30,28,2,2,228,1,2,1,4,0.43873806576722,0.440113175924911
"229",30,26,2,2,229,1,2,1,4,0.4850559105849,0.439595471762939
"230",30,21,2,2,230,2,2,1,3,0.350612900861475,0.336899907190707
"231",30,33,2,1,231,3,1,1,2,1.17393997064416,1.26030179363043
"232",30,34,2,2,232,2,1,0,2,0.936047806422969,0.872371373354753
"233",30,27,2,1,233,1,2,0,3,0.43706677408505,0.425172179910748
"234",30,20,2,1,234,3,2,0,2,1.07721896448262,1.01151684119264
"235",30,18,2,1,235,3,2,0,2,0.676623193168112,0.746671714251939
"236",30,18,2,2,236,1,2,1,4,0.328458603860397,0.351180375280368
"237",30,37,2,2,237,2,2,1,4,0.627800615415035,0.644197194226092
"238",30,28,2,2,238,1,2,1,4,0.470673122628302,0.437815039233612
"239",30,26,2,2,239,1,2,1,4,0.292444666312994,0.275430046953486
"240",30,21,2,1,240,1,1,1,5,0.444001332001913,0.501090836153187
"241",29,30,1,2,1,3,2,1,2,0.729144241443875,0.752850710425862
"242",29,38,1,2,2,3,1,0,2,1.62741749818824,1.60520936693523
"243",29,35,1,1,3,1,1,1,5,0.471166270813021,0.339095234494554
"244",29,36,1,2,4,1,1,0,4,0.732097062687971,0.809777533630179
"245",29,20,1,1,5,1,1,1,4,0.3091604877554,0.273223109302683
"246",29,33,1,2,6,1,2,1,4,0.359534632591077,0.395112325560319
"247",29,37,1,2,7,2,1,0,3,0.65248354529194,0.635145038965586
"248",29,38,1,1,8,3,1,1,2,0.902519204149112,0.927810824549896
"249",29,38,1,1,9,3,1,1,2,0.526720233387621,0.563974762218966
"250",29,39,1,2,10,3,2,1,2,0.936649358292018,0.887267867697697
"251",29,30,1,2,11,3,1,0,1,1.2261280524263,1.23145688978868
"252",29,38,1,2,12,2,2,1,3,0.326163331275522,0.316067165544688
"253",29,35,1,2,13,3,2,1,3,0.975821209642398,0.922295441034528
"254",29,36,1,1,14,1,1,1,5,0.285342445857507,0.289085576856559
"255",29,20,1,2,15,3,1,0,2,0.165870060647573,0.0532667690724729
"256",29,33,1,1,16,1,2,0,3,0.513629451035835,0.551487998774512
"257",29,37,1,2,17,1,2,1,5,0.39594387553363,0.322206365210684
"258",29,38,1,1,18,3,2,0,2,0.527052947150303,0.503894092454147
"259",29,38,1,2,19,1,2,1,5,0.394679529501213,0.368056859787631
"260",29,39,1,2,20,2,2,1,4,0.644048129067717,0.637526634543963
"261",29,30,1,2,21,2,2,1,3,0.537247754033246,0.549305867622278
"262",29,38,1,1,22,1,1,1,4,0.388989165427193,0.387313533363521
"263",29,35,1,2,23,1,1,0,3,0.458879154194548,0.453939373996888
"264",29,36,1,1,24,3,2,0,2,0.572688931291743,0.583260340825283
"265",29,20,1,2,25,3,1,0,1,1.24057975317214,1.32814349707599
"266",29,33,1,1,26,1,1,1,5,0.4466673900651,0.377208421340633
"267",29,37,1,1,27,2,2,0,3,0.986699510225785,1.03742388594695
"268",29,38,1,1,28,2,1,1,4,0.527953645076783,0.50673011200719
"269",29,38,1,2,29,2,1,0,3,0.54716099614336,0.544367604679237
"270",29,39,1,1,30,3,1,1,2,0.82347121483236,0.85387304504798
"271",29,30,1,1,31,1,1,1,5,0.558458890505858,0.552009117749051
"272",29,38,1,1,32,3,1,1,3,0.755546599102935,0.764285154858559
"273",29,35,1,2,33,1,1,0,3,0.50701587859407,0.443626056191075
"274",29,36,1,1,34,3,1,1,2,1.02370794765822,1.01332623928681
"275",29,20,1,2,35,1,2,1,5,0.400076502486223,0.453778276606576
"276",29,33,1,2,36,2,2,1,4,0.528175914510548,0.506338362307915
"277",29,37,1,2,37,2,1,0,2,0.432302028794616,0.430169798521398
"278",29,38,1,1,38,3,2,0,2,0.955380197254785,0.919429081919659
"279",29,38,1,2,39,2,2,1,3,0.687655637187633,0.634472563015069
"280",29,39,1,1,40,2,2,0,3,0.596590732513743,0.630987261252454
"281",29,30,1,1,41,1,2,0,4,0.584314034519271,0.588621017325568
"282",29,38,1,2,42,1,2,1,4,0.34510138170068,0.244520800101582
"283",29,35,1,1,43,3,2,0,1,1.47898057033306,1.53476258068532
"284",29,36,1,2,44,2,2,1,3,0.718055418841965,0.712213761077074
"285",29,20,1,1,45,1,1,1,5,0.43685954339576,0.399375204609993
"286",29,33,1,2,46,2,1,0,2,0.371968986546729,0.346441723681844
"287",29,37,1,1,47,3,1,1,3,0.612022516823588,0.626632727175455
"288",29,38,1,1,48,2,2,0,2,0.732415259519259,0.704898601854287
"289",29,38,1,1,49,1,1,1,5,0.390491964835402,0.314568736359905
"290",29,39,1,2,50,1,2,1,5,0.377415915375663,0.273108616607438
"291",29,30,1,1,51,3,1,1,2,1.15438756311077,1.13313443990173
"292",29,38,1,2,52,2,1,0,3,0.620578402352746,0.64576596624141
"293",29,35,1,1,53,1,1,1,4,0.343473734811345,0.271093210859218
"294",29,36,1,1,54,2,1,1,4,0.59322190429074,0.532998585168985
"295",29,20,1,2,55,1,2,1,4,0.586734073902304,0.51842672341854
"296",29,33,1,2,56,3,2,1,2,0.48153274751189,0.450787067630806
"297",29,37,1,1,57,2,2,0,2,0.781098070625595,0.783958695600003
"298",29,38,1,2,58,2,2,1,4,0.603175234217704,0.61250165526934
"299",29,38,1,2,59,1,2,1,5,0.517142472332891,0.567021229285604
"300",29,39,1,1,60,2,1,1,3,0.842323747123391,0.863690714791592
"301",29,30,1,2,61,2,1,0,3,0.905006795440407,0.850389812089873
"302",29,38,1,1,62,3,1,1,2,0.571274122256829,0.567723719817064
"303",29,35,1,2,63,3,2,1,3,0.862960241346227,0.907905127573156
"304",29,36,1,2,64,3,1,0,1,0.87468659380311,0.892647583790559
"305",29,20,1,1,65,1,2,0,4,0.600404101369549,0.453678379822578
"306",29,33,1,2,66,2,1,0,2,0.601913781772628,0.632955965663613
"307",29,37,1,1,67,2,1,1,4,0.45826869005363,0.436620955057429
"308",29,38,1,1,68,2,1,1,3,0.437873088351414,0.494221465059121
"309",29,38,1,2,69,3,1,0,1,1.35981539610761,1.38474157729201
"310",29,39,1,1,70,2,2,0,2,0.74897107675622,0.747644167410891
"311",29,30,1,2,71,2,2,1,4,0.573151103501466,0.581908255169664
"312",29,38,1,1,72,2,2,0,3,0.793427723885127,0.717016383215167
"313",29,35,1,1,73,3,2,0,2,1.50220038364994,1.5891203554529
"314",29,36,1,1,74,3,2,0,2,0.92433534871158,0.970637311259751
"315",29,20,1,2,75,3,2,1,2,0.943974767648594,0.954022552840933
"316",29,33,1,2,76,2,2,1,3,0.542590027668554,0.592306133035191
"317",29,37,1,1,77,1,1,1,4,0.338123562420813,0.331418168423222
"318",29,38,1,2,78,3,1,0,1,1.00463661078969,1.019433029433
"319",29,38,1,1,79,1,1,1,5,0.303368289029697,0.3757831122167
"320",29,39,1,1,80,1,1,1,5,0.334602894615581,0.402742720357563
"321",29,30,1,1,81,1,1,1,5,0.296042347363137,0.238810672462801
"322",29,38,1,2,82,2,2,1,4,0.594601522667461,0.547005959727273
"323",29,35,1,1,83,1,2,0,4,0.57583753246914,0.546453605563138
"324",29,36,1,2,84,3,1,0,2,0.251297651660269,0.290949301466554
"325",29,20,1,2,85,1,2,1,4,0.260213772029077,0.307411415746741
"326",29,33,1,2,86,2,1,0,3,0.783497586529362,0.715366480796771
"327",29,37,1,1,87,2,2,0,2,0.754227291804075,0.749196058367088
"328",29,38,1,2,88,3,2,1,3,0.546173858556155,0.534218593136897
"329",29,38,1,2,89,3,1,0,2,1.51703629927839,1.52844065890799
"330",29,39,1,1,90,1,1,1,4,0.579027114407867,0.58110415764807
"331",29,30,1,2,91,1,2,1,4,0.439309851283676,0.473948255967073
"332",29,38,1,2,92,2,1,0,2,0.671127585611516,0.744305765474824
"333",29,35,1,1,93,3,1,1,3,0.976751775057691,0.90461804826911
"334",29,36,1,2,94,3,2,1,2,0.850916814426983,0.848386985625396
"335",29,20,1,1,95,3,2,0,1,0.585046196373903,0.569174121716633
"336",29,33,1,1,96,3,1,1,3,1.10384716717254,1.08058323858491
"337",29,37,1,1,97,1,2,0,4,0.73442621351482,0.728723095065979
"338",29,38,1,1,98,3,2,0,2,0.84450994398547,0.708795490274193
"339",29,38,1,2,99,2,1,0,3,0.602776911853404,0.715462075037014
"340",29,39,1,2,100,2,2,1,3,0.693591533177326,0.644288985971632
"341",29,30,1,1,101,3,2,0,1,-0.353973512460705,-0.359286066046096
"342",29,38,1,1,102,1,1,1,4,0.447647668027314,0.400023844160839
"343",29,35,1,1,103,3,1,1,3,0.650116178506279,0.683293435430905
"344",29,36,1,1,104,3,2,0,1,0.947152376815955,0.983521835867581
"345",29,20,1,1,105,3,2,0,1,0.994047878134363,1.06354761839575
"346",29,33,1,2,106,1,1,0,3,0.461782838879781,0.376984896448792
"347",29,37,1,1,107,3,1,1,2,0.779201383922484,0.786522916129107
"348",29,38,1,1,108,1,1,1,4,0.40892819015141,0.409833301933462
"349",29,38,1,1,109,1,1,1,4,0.405932913910739,0.418562471219329
"350",29,39,1,2,110,3,2,1,3,1.05808349048952,1.05173200954286
"351",29,30,1,1,111,2,2,0,2,0.527028251845489,0.533261601277207
"352",29,38,1,1,112,2,2,0,2,1.07615997441151,1.06988974724149
"353",29,35,1,1,113,1,1,1,5,0.406057892910686,0.438708685972254
"354",29,36,1,1,114,1,1,1,4,0.319548698909617,0.251911733153579
"355",29,20,1,1,115,2,2,0,3,0.664156925522216,0.714213229512876
"356",29,33,1,2,116,2,1,0,2,0.861615812250245,0.899839258618277
"357",29,37,1,1,117,3,1,1,2,0.840921154921052,0.822079011310977
"358",29,38,1,2,118,1,2,1,5,0.457997788052081,0.361420886490713
"359",29,38,1,2,119,1,2,1,5,0.433438314284937,0.421433023302829
"360",29,39,1,2,120,2,2,1,4,0.684890856407887,0.736391380043434
"361",29,30,1,1,121,2,1,1,4,0.662318445612427,0.662100797167423
"362",29,38,1,2,122,1,1,0,4,0.650648182926228,0.686137948576673
"363",29,35,1,2,123,1,2,1,5,0.405271324611274,0.522612463312787
"364",29,36,1,2,124,2,1,0,3,0.818191383107732,0.797344212189005
"365",29,20,1,2,125,2,1,0,2,0.911937442279174,0.943232987601139
"366",29,33,1,1,126,2,2,0,2,0.683223021585091,0.669469391167113
"367",29,37,1,1,127,2,1,1,3,0.467452197030465,0.535033262205748
"368",29,38,1,1,128,2,2,0,2,0.697221933879802,0.722401484164256
"369",29,38,1,1,129,2,1,1,4,0.503626146141368,0.53161206394124
"370",29,39,1,1,130,1,1,1,5,0.332416428617574,0.316369949548569
"371",29,30,1,2,131,3,1,0,1,0.590837002600825,0.612395862469909
"372",29,38,1,2,132,1,2,1,5,0.455572904285046,0.506958979491102
"373",29,35,1,1,133,1,1,1,4,0.362857361692875,0.340783712210988
"374",29,36,1,2,134,2,2,1,3,0.806177801962033,0.842371894600593
"375",29,20,1,1,135,1,2,0,4,0.568622273674487,0.646391407593484
"376",29,33,1,1,136,1,1,1,5,0.365289676465255,0.355410155576964
"377",29,37,1,2,137,2,2,1,4,0.584033776967864,0.501583955705827
"378",29,38,1,1,138,1,1,1,5,0.318318074726632,0.347912798856521
"379",29,38,1,2,139,1,2,1,4,0.465737983176896,0.490293973161097
"380",29,39,1,1,140,3,1,1,3,0.762245800131646,0.767660441606985
"381",29,30,1,2,141,2,1,0,2,0.56539275679283,0.615002180947504
"382",29,38,1,2,142,1,2,1,4,0.285776729293272,0.260979058984694
"383",29,35,1,2,143,3,1,0,1,1.21198813018913,1.14697556443563
"384",29,36,1,1,144,2,1,1,4,0.648557536470013,0.696324910374987
"385",29,20,1,1,145,1,1,1,4,0.548433049491177,0.540155490041714
"386",29,33,1,1,146,1,1,1,4,0.327548440018012,0.332529779101067
"387",29,37,1,2,147,3,2,1,2,0.651906811291548,0.589950141604189
"388",29,38,1,1,148,2,1,1,4,0.806538816433591,0.771742332044416
"389",29,38,1,2,149,2,1,0,2,0.764214148960969,0.802297305189696
"390",29,39,1,2,150,2,2,1,3,0.49735409842217,0.492319794212723
"391",29,30,1,1,151,1,2,0,3,0.637125116586167,0.55995764190757
"392",29,38,1,1,152,2,2,0,2,0.915448549423868,0.864335662646785
"393",29,35,1,1,153,2,2,0,3,0.439080783083959,0.406024987056783
"394",29,36,1,1,154,3,2,0,2,0.575824751476046,0.591785468395439
"395",29,20,1,1,155,3,1,1,2,0.411373847928684,0.507137589615192
"396",29,33,1,2,156,3,1,0,2,1.19396604276655,1.07080222827083
"397",29,37,1,1,157,1,2,0,3,0.455315327778199,0.383791334413759
"398",29,38,1,2,158,3,2,1,2,0.729826222462381,0.74431756553999
"399",29,38,1,1,159,1,1,1,5,0.405333424891686,0.452797107316857
"400",29,39,1,1,160,1,1,1,5,0.367296609951928,0.40509172415033
"401",29,30,1,2,161,3,1,0,2,0.831187323863674,0.820372685417193
"402",29,38,1,1,162,2,2,0,3,0.677376783116306,0.709462947388863
"403",29,35,1,2,163,1,2,1,5,0.490355656382074,0.491034463483227
"404",29,36,1,1,164,3,2,0,1,0.763192464915779,0.756136491636754
"405",29,20,1,1,165,2,2,0,2,0.980818173773086,0.953323540325218
"406",29,33,1,1,166,3,1,1,2,0.702979396771434,0.72418596353027
"407",29,37,1,2,167,1,2,1,4,0.423024959380953,0.387463357418072
"408",29,38,1,1,168,3,1,1,3,0.852946409510398,0.8484317494551
"409",29,38,1,1,169,1,1,1,5,0.438837097212915,0.408101540772237
"410",29,39,1,2,170,2,2,1,4,0.55749170026785,0.53911590329964
"411",29,30,1,1,171,1,1,1,4,0.467974715965659,0.47538950469916
"412",29,38,1,2,172,1,2,1,4,0.34037987115636,0.429498588464487
"413",29,35,1,1,173,1,1,1,4,0.33004807708259,0.323367429399062
"414",29,36,1,2,174,3,2,1,2,0.79160697603526,0.757929804701437
"415",29,20,1,1,175,2,1,1,3,0.527610101886137,0.532056933528574
"416",29,33,1,2,176,2,1,0,3,0.836268012776817,0.919225933257344
"417",29,37,1,1,177,2,1,1,3,0.839722140457375,0.841240359370031
"418",29,38,1,2,178,3,1,0,2,0.495897212117808,0.536419063520538
"419",29,38,1,2,179,3,2,1,3,0.899456709054894,0.974227557903038
"420",29,39,1,2,180,3,1,0,2,1.41322196998259,1.43644701439708
"421",29,30,1,2,181,2,1,0,2,0.733098527277675,0.731679466041786
"422",29,38,1,1,182,3,2,0,1,0.968074440822172,0.988167985827983
"423",29,35,1,2,183,2,1,0,2,0.952605497350468,0.93767344942057
"424",29,36,1,2,184,2,1,0,2,0.68056346225271,0.736526129770062
"425",29,20,1,2,185,2,2,1,4,0.575074270350311,0.569359568617494
"426",29,33,1,1,186,2,2,0,2,0.566645115878278,0.618915068167641
"427",29,37,1,2,187,2,2,1,4,0.637960738161203,0.702541757365121
"428",29,38,1,2,188,2,1,0,2,0.782066247085109,0.754026277449271
"429",29,38,1,2,189,1,1,0,3,0.434808270739612,0.37147959644163
"430",29,39,1,2,190,1,2,1,5,0.400868885064511,0.315936062228544
"431",29,30,1,2,191,1,2,1,5,0.220299636989633,0.323716951611087
"432",29,38,1,2,192,3,2,1,2,0.614445153703149,0.568255068207351
"433",29,35,1,2,193,3,2,1,3,0.902830752481405,0.909800471721008
"434",29,36,1,2,194,3,2,1,3,0.62779208916898,0.581098146619485
"435",29,20,1,2,195,3,1,0,2,0.647834298237636,0.660149370267845
"436",29,33,1,1,196,2,1,1,4,0.618969218883937,0.622590928234633
"437",29,37,1,1,197,1,1,1,5,0.49970447609257,0.498662547240175
"438",29,38,1,2,198,3,1,0,1,1.07483611438005,1.07732703848561
"439",29,38,1,1,199,2,1,1,4,0.65450452473349,0.655964061509308
"440",29,39,1,1,200,1,2,0,4,0.518222481668546,0.495410543795938
"441",29,30,1,2,201,3,1,0,2,0.933392071882054,0.963914940414626
"442",29,38,1,2,202,1,1,0,4,0.542992677650737,0.537913613119572
"443",29,35,1,2,203,1,2,1,5,0.342789037982232,0.358050855589606
"444",29,36,1,2,204,1,2,1,4,0.473411234370771,0.449961372334659
"445",29,20,1,1,205,3,1,1,3,0.671986286596565,0.651482553759449
"446",29,33,1,2,206,2,2,1,4,0.754521143189836,0.770190114876069
"447",29,37,1,1,207,3,1,1,2,0.261679057154817,0.2319151679101
"448",29,38,1,1,208,3,1,1,2,0.504697031887107,0.455724521485479
"449",29,38,1,2,209,3,2,1,2,0.638338444218915,0.644768160905651
"450",29,39,1,2,210,3,1,0,2,0.542125451808866,0.512073156815309
"451",29,30,1,2,211,3,2,1,2,0.872569685416188,0.821754568343247
"452",29,38,1,1,212,1,2,0,3,0.355000801902642,0.410322046576443
"453",29,35,1,2,213,3,2,1,3,0.893831163143388,0.919611189168499
"454",29,36,1,1,214,2,1,1,4,0.751833168705303,0.830314704339468
"455",29,20,1,1,215,1,1,1,4,0.388738709377806,0.374428052214568
"456",29,33,1,1,216,3,2,0,1,1.04149641835828,1.05967255106842
"457",29,37,1,1,217,2,2,0,2,0.859063747527731,0.901486267838988
"458",29,38,1,1,218,1,1,1,4,0.484376450563066,0.428982256700663
"459",29,38,1,2,219,1,1,0,4,0.363778261839401,0.368049026416666
"460",29,39,1,1,220,2,2,0,3,0.591189268164678,0.58700450834768
"461",29,30,1,2,221,3,2,1,3,0.766695924717844,0.900180893612921
"462",29,38,1,1,222,2,2,0,3,0.717935589027483,0.667027791789129
"463",29,35,1,2,223,2,2,1,3,0.680559859765696,0.705032084209325
"464",29,36,1,1,224,2,1,1,4,0.615609429879119,0.649371262209062
"465",29,20,1,1,225,1,2,0,3,0.548521076730904,0.553991770067908
"466",29,33,1,2,226,2,2,1,3,0.61323761684601,0.568529527420373
"467",29,37,1,2,227,1,2,1,4,0.384595359774721,0.384472123625983
"468",29,38,1,1,228,1,2,0,4,0.449936223500284,0.489483634412058
"469",29,38,1,2,229,3,1,0,1,0.653114276917627,0.657851749558341
"470",29,39,1,2,230,3,2,1,3,0.689931416403423,0.6426402258465
"471",29,30,1,1,231,2,2,0,2,0.68372176144001,0.544135200662895
"472",29,38,1,2,232,3,1,0,1,1.56998335139797,1.61035256345156
"473",29,35,1,2,233,1,2,1,5,0.455105131963548,0.370008881840083
"474",29,36,1,1,234,3,1,1,3,1.13554177264726,1.16706633112551
"475",29,20,1,2,235,1,2,1,4,0.405156587714783,0.356752781209241
"476",29,33,1,1,236,2,1,1,4,0.66204445276305,0.650615812712065
"477",29,37,1,2,237,3,2,1,3,0.438314628272517,0.432196799325457
"478",29,38,1,2,238,1,2,1,5,0.428367731248047,0.316688394141202
"479",29,38,1,1,239,3,1,1,3,0.717427480814201,0.729855243871887
"480",29,39,1,2,240,2,1,0,2,0.55519998875095,0.508929545981813
"481",28,23,2,1,1,1,1,1,5,0.387343890952466,0.349009135730153
"482",28,40,2,1,2,3,1,1,3,0.762461055761239,0.694506562332376
"483",28,38,2,2,3,3,2,1,3,0.806950636240506,0.839091438281853
"484",28,34,2,1,4,3,2,0,2,0.994872055273969,1.05307558646981
"485",28,40,2,1,5,2,1,1,4,0.573362599594723,0.547018117564579
"486",28,38,2,1,6,1,1,1,4,0.466316549498131,0.438035535192808
"487",28,33,2,2,7,1,2,1,5,0.423248291782582,0.478834867455161
"488",28,37,2,2,8,2,1,0,2,0.48834655341069,0.521833600682041
"489",28,23,2,1,9,1,1,1,4,0.393811552992959,0.377826112460387
"490",28,36,2,1,10,1,1,1,5,0.466624139002048,0.512480918513659
"491",28,23,2,1,11,1,1,1,4,0.507627494055794,0.552232551156928
"492",28,40,2,2,12,1,1,0,4,0.556412076077364,0.601960132356393
"493",28,38,2,2,13,2,1,0,2,0.479448802078884,0.531392018117702
"494",28,34,2,1,14,2,2,0,3,0.878038442865458,0.858084785167201
"495",28,40,2,1,15,2,2,0,3,0.90028308273333,0.98486486275866
"496",28,38,2,1,16,1,2,0,4,0.332119741453864,0.333411001001136
"497",28,33,2,1,17,3,1,1,3,0.925613186941832,0.91045447752721
"498",28,37,2,1,18,3,2,0,2,0.823897170379233,0.899362386607059
"499",28,23,2,2,19,1,2,1,5,0.462583529737357,0.449341356555351
"500",28,36,2,2,20,2,2,1,3,0.487402168805008,0.512112376214975
"501",28,23,2,2,21,3,1,0,2,1.18406908082874,1.18473720680844
"502",28,40,2,2,22,2,2,1,3,0.569997687931821,0.587142549930713
"503",28,38,2,1,23,2,1,1,3,0.661271581739622,0.672684014941558
"504",28,34,2,1,24,2,2,0,2,0.644102562431053,0.581163599699936
"505",28,40,2,1,25,1,2,0,4,0.592159811423329,0.736673102081208
"506",28,38,2,2,26,2,2,1,4,0.547703962147307,0.464141152926728
"507",28,33,2,2,27,3,2,1,2,0.545045923906176,0.612561355688912
"508",28,37,2,1,28,3,2,0,2,0.634790039209133,0.616676380715197
"509",28,23,2,2,29,2,1,0,2,0.481035675497891,0.420575439583691
"510",28,36,2,1,30,1,1,1,5,0.444728247431198,0.441510477563529
"511",28,23,2,1,31,2,1,1,3,0.404172544699146,0.360049132010187
"512",28,40,2,2,32,3,1,0,2,0.552707749783484,0.564557523104929
"513",28,38,2,2,33,3,1,0,2,0.99190234441242,1.00401474946101
"514",28,34,2,1,34,2,1,1,3,0.643942546100225,0.616358033548441
"515",28,40,2,2,35,3,1,0,1,0.784660297085003,0.72990587912123
"516",28,38,2,2,36,3,2,1,2,0.467215102647681,0.363579507581807
"517",28,33,2,1,37,2,1,1,3,0.633921577405484,0.614558491400558
"518",28,37,2,1,38,3,2,0,2,0.798321865189128,0.801017513581856
"519",28,23,2,2,39,2,1,0,3,0.75551174124425,0.774553204389973
"520",28,36,2,2,40,1,2,1,5,0.460193989547557,0.540529610264461
"521",28,23,2,1,41,2,1,1,3,0.342210254008524,0.339777131953826
"522",28,40,2,2,42,3,2,1,3,0.73150942610509,0.732400058333696
"523",28,38,2,2,43,2,2,1,3,0.540612457033736,0.444565607142702
"524",28,34,2,2,44,3,1,0,2,0.374479012723661,0.403379446170555
"525",28,40,2,1,45,2,2,0,2,0.641076307488465,0.664317118531594
"526",28,38,2,2,46,1,2,1,5,0.314231021148057,0.279576767517488
"527",28,33,2,2,47,3,1,0,1,1.04457371473124,1.08846816911532
"528",28,37,2,1,48,2,1,1,3,0.690967370671428,0.65061298491204
"529",28,23,2,1,49,1,1,1,5,0.374554484785656,0.375148467863866
"530",28,36,2,1,50,2,1,1,4,0.865677742517055,0.826193332562589
"531",28,23,2,2,51,2,2,1,4,0.780261226528694,0.756355629472528
"532",28,40,2,2,52,2,2,1,4,0.328880122505903,0.41906101259867
"533",28,38,2,2,53,3,1,0,1,1.5784035170391,1.53153271035447
"534",28,34,2,2,54,2,2,1,4,0.44268003109288,0.373121640568293
"535",28,40,2,1,55,3,2,0,2,0.350448849581453,0.307079729228353
"536",28,38,2,2,56,2,1,0,3,0.609671787826985,0.56888085613665
"537",28,33,2,1,57,2,1,1,3,0.531037146192969,0.565149817416351
"538",28,37,2,2,58,1,2,1,4,0.57431029521079,0.557961254407677
"539",28,23,2,1,59,1,1,1,4,0.404792735453614,0.478730130972037
"540",28,36,2,2,60,3,1,0,2,1.21125973867519,1.24417925095229
"541",28,23,2,1,61,2,2,0,2,0.92167466089603,0.971092959841295
"542",28,40,2,2,62,3,2,1,3,0.747060809612276,0.838704116936248
"543",28,38,2,1,63,2,1,1,4,0.652483816657078,0.630554513706951
"544",28,34,2,1,64,1,2,0,3,0.725616981526415,0.669990141051831
"545",28,40,2,2,65,2,2,1,3,0.560737536010496,0.54957838859255
"546",28,38,2,1,66,3,1,1,2,0.898744198110197,0.994487672827696
"547",28,33,2,1,67,2,2,0,2,0.306691649461966,0.34757592891039
"548",28,37,2,1,68,1,2,0,3,0.578687468840032,0.558180160935148
"549",28,23,2,1,69,1,1,1,4,0.404248583787735,0.427863139811376
"550",28,36,2,2,70,2,1,0,3,0.683294765148399,0.677831126101698
"551",28,23,2,2,71,2,2,1,3,0.671013245951846,0.663678611188249
"552",28,40,2,1,72,2,1,1,4,0.590513316270938,0.550101762360878
"553",28,38,2,2,73,1,2,1,5,0.387861033724029,0.349097826870074
"554",28,34,2,1,74,1,1,1,5,0.442026627710878,0.417867398602302
"555",28,40,2,2,75,3,1,0,2,0.897184504999593,0.902465801023637
"556",28,38,2,1,76,2,1,1,3,0.501919264763489,0.544943205743378
"557",28,33,2,1,77,3,2,0,1,1.28081004520283,1.28878385219102
"558",28,37,2,1,78,2,1,1,3,0.514971515691912,0.49499468084958
"559",28,23,2,2,79,1,2,1,4,0.404045425804345,0.309714760087566
"560",28,36,2,2,80,3,2,1,2,0.516843488427097,0.601793576891825
"561",28,23,2,1,81,1,1,1,4,0.478184875221616,0.388404075402652
"562",28,40,2,2,82,1,2,1,4,0.403440106721129,0.352081123532763
"563",28,38,2,2,83,2,2,1,3,0.74910624469033,0.798166051288544
"564",28,34,2,1,84,3,1,1,3,0.482132702094201,0.406197855190461
"565",28,40,2,1,85,1,1,1,4,0.430299749485416,0.45097552841365
"566",28,38,2,1,86,2,2,0,2,0.820984566445269,0.795615355878219
"567",28,33,2,1,87,1,1,1,4,0.514373721933933,0.537868032644119
"568",28,37,2,1,88,2,2,0,2,0.78239912687318,0.800796648821947
"569",28,23,2,1,89,1,1,1,5,0.365944157643609,0.358225077168315
"570",28,36,2,2,90,3,1,0,1,1.33185203501171,1.25757340779167
"571",28,23,2,1,91,2,2,0,3,0.795081335625445,0.849352649412706
"572",28,40,2,1,92,3,1,1,2,0.482721154678555,0.445555838312177
"573",28,38,2,2,93,3,2,1,3,0.874937728299017,0.89491718678039
"574",28,34,2,2,94,2,2,1,4,0.344923318992929,0.367304968269029
"575",28,40,2,1,95,1,1,1,5,0.497743209641883,0.488915524002984
"576",28,38,2,1,96,2,2,0,3,0.698100427888413,0.682350898471226
"577",28,33,2,1,97,1,1,1,4,0.408278129257648,0.438115469554204
"578",28,37,2,2,98,3,2,1,2,0.580041845762825,0.590951434570927
"579",28,23,2,2,99,2,1,0,3,0.506392953456802,0.491180591985355
"580",28,36,2,2,100,2,1,0,3,0.559399609515311,0.410133986619914
"581",28,23,2,1,101,2,1,1,3,0.487049108613196,0.478403744866411
"582",28,40,2,1,102,1,1,1,5,0.264156115773031,0.198995390719902
"583",28,38,2,2,103,3,2,1,3,0.74576632982005,0.748287179483361
"584",28,34,2,1,104,3,1,1,3,0.929217305611188,0.844850810022506
"585",28,40,2,1,105,2,1,1,4,0.820263003754473,0.836597402734078
"586",28,38,2,2,106,1,1,0,3,0.59564434277978,0.617237408723217
"587",28,33,2,2,107,2,2,1,4,0.620305365786726,0.53727872868282
"588",28,37,2,1,108,3,1,1,3,0.96320937095386,0.953617575485958
"589",28,23,2,2,109,3,2,1,2,0.694003862087279,0.692413943057568
"590",28,36,2,1,110,2,1,1,3,0.631595045973808,0.52895679337312
"591",28,23,2,2,111,1,2,1,5,0.537098175522657,0.463040681477158
"592",28,40,2,2,112,1,2,1,4,0.367301185801752,0.319575965172523
"593",28,38,2,2,113,3,1,0,2,1.1768224604239,1.11817923808824
"594",28,34,2,2,114,1,2,1,4,0.241980094448616,0.274445312441758
"595",28,40,2,1,115,3,1,1,2,1.03758748961156,1.06745110714497
"596",28,38,2,1,116,1,1,1,5,0.341333290777567,0.418775473964697
"597",28,33,2,2,117,2,2,1,4,0.540427517596599,0.551236840411996
"598",28,37,2,2,118,2,2,1,3,0.551723342463617,0.549361958784941
"599",28,23,2,1,119,3,1,1,3,1.05716681787428,1.01262520258745
"600",28,36,2,2,120,1,2,1,5,0.520090238081046,0.494667538430592
"601",28,23,2,2,121,3,1,0,2,1.24955246648578,1.30549357458769
"602",28,40,2,2,122,3,2,1,3,0.754866437169631,0.700338206296089
"603",28,38,2,1,123,3,1,1,3,0.601724677331693,0.557857976445391
"604",28,34,2,1,124,3,2,0,1,0.845770664459983,0.813189544771377
"605",28,40,2,2,125,2,2,1,4,0.951760769552121,0.897250186743226
"606",28,38,2,2,126,2,2,1,3,0.484822276799,0.523615814948809
"607",28,33,2,2,127,2,2,1,3,0.669971792491617,0.729340147641605
"608",28,37,2,2,128,1,2,1,4,0.42476444790083,0.420201866882969
"609",28,23,2,1,129,3,2,0,2,1.09224307509872,1.06998362190836
"610",28,36,2,2,130,1,1,0,3,0.64855333707624,0.623645309971792
"611",28,23,2,2,131,1,2,1,4,0.24134460357257,0.135644844752823
"612",28,40,2,2,132,1,2,1,5,0.461119093810528,0.410466441604017
"613",28,38,2,1,133,1,1,1,5,0.356214559227014,0.349711029137504
"614",28,34,2,1,134,1,1,1,4,0.428559624741893,0.323750371047399
"615",28,40,2,1,135,3,2,0,1,1.11345273794926,1.1026070044642
"616",28,38,2,1,136,3,2,0,2,1.17710206906528,1.23539421636489
"617",28,33,2,2,137,3,1,0,2,0.716099126016932,0.684809811408437
"618",28,37,2,2,138,1,2,1,5,0.275853941718645,0.297448695820579
"619",28,23,2,1,139,1,1,1,4,0.466008233512168,0.499851847581775
"620",28,36,2,1,140,1,2,0,4,0.543306038172959,0.590518694301116
"621",28,23,2,1,141,2,2,0,3,0.692369908640004,0.694880149879777
"622",28,40,2,2,142,2,1,0,2,0.832729091885343,0.800301512309121
"623",28,38,2,2,143,1,1,0,4,0.710095354198152,0.673107806435229
"624",28,34,2,2,144,3,1,0,2,0.83811795259902,0.830152402387327
"625",28,40,2,2,145,3,1,0,2,0.383224615819465,0.375641031830689
"626",28,38,2,2,146,2,2,1,3,0.565142170849541,0.550213383534648
"627",28,33,2,2,147,1,2,1,4,0.393539269301044,0.453809940397731
"628",28,37,2,2,148,2,1,0,3,0.593277434067651,0.617289113598955
"629",28,23,2,1,149,1,1,1,4,0.268794959782718,0.271960328991705
"630",28,36,2,2,150,2,1,0,3,0.717251545341755,0.712194324385845
"631",28,23,2,2,151,1,1,0,3,0.468005902259247,0.429516181740995
"632",28,40,2,1,152,2,2,0,2,0.624553222860239,0.656341582545338
"633",28,38,2,2,153,3,1,0,1,0.833725472086397,0.878420809472028
"634",28,34,2,2,154,3,1,0,1,1.55207925924776,1.54607704888279
"635",28,40,2,2,155,3,2,1,3,0.784650135390494,0.802658020781533
"636",28,38,2,1,156,2,2,0,3,0.567440031216388,0.592589528075058
"637",28,33,2,1,157,2,2,0,3,0.630636699690137,0.648694042833604
"638",28,37,2,1,158,2,1,1,3,0.631440978154651,0.627522622998811
"639",28,23,2,1,159,1,1,1,4,0.409375953789651,0.510940496748596
"640",28,36,2,2,160,1,2,1,4,0.437558328983375,0.437822572785295
"641",28,23,2,1,161,2,1,1,3,0.567141614440278,0.554450011373458
"642",28,40,2,1,162,3,2,0,2,0.371420854399532,0.367100269148098
"643",28,38,2,2,163,3,2,1,2,1.1314871459139,1.09633074819368
"644",28,34,2,2,164,1,2,1,5,0.47461140890247,0.517858258205965
"645",28,40,2,1,165,3,2,0,1,0.947246474417281,0.912583424256669
"646",28,38,2,1,166,1,2,0,4,0.523085112167514,0.581942911799112
"647",28,33,2,1,167,1,1,1,5,0.350811884728122,0.403316095898991
"648",28,37,2,2,168,1,2,1,4,0.396740373063275,0.415067714032088
"649",28,23,2,2,169,3,1,0,1,0.779013871365872,0.708827428582603
"650",28,36,2,2,170,2,1,0,3,0.755380766532113,0.778177827916168
"651",28,23,2,1,171,1,1,1,4,0.397870919549935,0.450053234442656
"652",28,40,2,2,172,1,2,1,5,0.369536501641546,0.328680529519508
"653",28,38,2,2,173,1,1,0,3,0.55567702946879,0.53022400014698
"654",28,34,2,1,174,1,1,1,4,0.429906537272091,0.515940176162621
"655",28,40,2,2,175,1,1,0,3,0.574472276149309,0.564893999292905
"656",28,38,2,2,176,2,1,0,3,0.498611035858075,0.498651450724379
"657",28,33,2,1,177,3,1,1,3,0.75574985405112,0.741795005538033
"658",28,37,2,1,178,3,2,0,1,0.66167613524953,0.690225056639869
"659",28,23,2,1,179,2,1,1,3,0.483940786374632,0.550295421210911
"660",28,36,2,1,180,2,1,1,3,0.645879436819572,0.718552690515127
"661",28,23,2,1,181,3,1,1,2,0.753221316076461,0.710431858540716
"662",28,40,2,2,182,1,2,1,4,0.527334367595181,0.564179800623711
"663",28,38,2,2,183,1,2,1,4,0.34371274197432,0.360115372930527
"664",28,34,2,1,184,1,1,1,4,0.526008167099172,0.543023838276107
"665",28,40,2,2,185,1,1,0,4,0.433776731473013,0.476333778634343
"666",28,38,2,1,186,3,2,0,1,0.489718651501363,0.481893933969679
"667",28,33,2,1,187,3,2,0,2,0.969363305825733,0.933871115088076
"668",28,37,2,2,188,2,1,0,2,0.794585831630889,0.774399288876494
"669",28,23,2,1,189,1,1,1,5,0.509609588927668,0.488587853081889
"670",28,36,2,2,190,1,2,1,5,0.418380113222638,0.393385496881036
"671",28,23,2,1,191,1,1,1,5,0.338659644032889,0.403365426882891
"672",28,40,2,2,192,3,2,1,3,0.668440153357127,0.656201913757235
"673",28,38,2,2,193,3,1,0,1,1.16023805806707,1.08558053553053
"674",28,34,2,2,194,1,1,0,4,0.47887344505139,0.496377532608068
"675",28,40,2,1,195,3,1,1,3,0.660884280605729,0.651144434038714
"676",28,38,2,2,196,3,1,0,2,1.15423876736034,1.05675641696963
"677",28,33,2,1,197,3,2,0,1,1.01008130383616,1.00535226730156
"678",28,37,2,1,198,2,1,1,4,0.65253018152611,0.581371706441366
"679",28,23,2,2,199,3,1,0,2,0.910653649217896,0.885769190122284
"680",28,36,2,2,200,1,2,1,5,0.401174361306861,0.353685117707043
"681",28,23,2,2,201,1,2,1,5,0.381039677632305,0.510868411514665
"682",28,40,2,2,202,3,2,1,3,1.01997193196218,0.988662952499932
"683",28,38,2,1,203,3,2,0,2,0.753208728036328,0.727686814062655
"684",28,34,2,2,204,2,2,1,4,0.510976805290123,0.503609954236459
"685",28,40,2,2,205,3,1,0,1,0.739212170081243,0.725703065864431
"686",28,38,2,1,206,2,2,0,3,0.608080776910365,0.582533301975837
"687",28,33,2,2,207,3,1,0,2,0.716485961111381,0.702806270188473
"688",28,37,2,1,208,1,1,1,4,0.474035525091453,0.467261744579299
"689",28,23,2,1,209,1,1,1,5,0.435996937005483,0.328025995171937
"690",28,36,2,2,210,1,2,1,5,0.43636879869306,0.496079315256452
"691",28,23,2,2,211,3,2,1,2,0.670105485406802,0.678416905475694
"692",28,40,2,2,212,1,2,1,4,0.425897411290891,0.407222729095457
"693",28,38,2,1,213,3,1,1,3,0.429472850275501,0.419337385062054
"694",28,34,2,1,214,2,2,0,3,0.947829435951752,1.06400756520807
"695",28,40,2,1,215,3,1,1,3,0.606418900000777,0.609821286115149
"696",28,38,2,1,216,3,2,0,1,0.645416876573242,0.671509109607198
"697",28,33,2,2,217,1,2,1,4,0.360404454495861,0.338358672915154
"698",28,37,2,1,218,3,1,1,3,0.674373983840154,0.651544386338644
"699",28,23,2,2,219,2,2,1,4,0.598210516600797,0.605783144991017
"700",28,36,2,1,220,2,2,0,3,0.690773718927742,0.702381270201889
"701",28,23,2,2,221,1,2,1,5,0.427598932927715,0.467844006296603
"702",28,40,2,2,222,3,2,1,3,0.817331052808539,0.811845838176186
"703",28,38,2,2,223,3,1,0,2,0.423287478150769,0.579480483038105
"704",28,34,2,1,224,1,1,1,5,0.472251713126066,0.482735416764106
"705",28,40,2,1,225,2,2,0,3,0.734568747454663,0.672703504063844
"706",28,38,2,1,226,2,2,0,3,0.660191716001777,0.556688282947323
"707",28,33,2,2,227,3,1,0,2,1.22203418013782,1.2504548461657
"708",28,37,2,2,228,2,2,1,3,0.810383796001016,0.790667446048807
"709",28,23,2,1,229,1,1,1,4,0.304222152071533,0.368586923272548
"710",28,36,2,1,230,2,1,1,3,0.761860026337061,0.687786368599053
"711",28,23,2,1,231,2,2,0,3,0.994856214857084,1.09260160598818
"712",28,40,2,2,232,1,2,1,5,0.431738262050331,0.498553322781548
"713",28,38,2,1,233,2,1,1,4,0.499642418910231,0.425969636279721
"714",28,34,2,1,234,2,1,1,3,0.538101592700067,0.654794133252836
"715",28,40,2,2,235,3,2,1,3,0.764861760626791,0.827954055108357
"716",28,38,2,1,236,3,1,1,3,0.888862524396246,0.857250999937243
"717",28,33,2,2,237,2,2,1,3,0.651413974774578,0.643154245559816
"718",28,37,2,2,238,1,2,1,4,0.438215683023158,0.394372969957306
"719",28,23,2,1,239,3,1,1,2,0.787768581071912,0.766089499229241
"720",28,36,2,1,240,3,1,1,3,0.971316068417144,0.879377879457395
"721",27,25,1,1,1,2,2,0,3,0.939298698398282,0.953219321851019
"722",27,31,1,1,2,1,1,1,4,0.318372027483652,0.280992528495976
"723",27,27,1,2,3,1,2,1,5,0.515325696154003,0.568565710791299
"724",27,37,1,1,4,2,1,1,3,0.65715362549688,0.694216685326828
"725",27,39,1,2,5,3,2,1,2,1.03119633075904,1.05834173908998
"726",27,40,1,1,6,3,2,0,1,0.875310917582259,0.911782163919528
"727",27,22,1,2,7,3,2,1,2,0.891183349388994,0.894102539399112
"728",27,30,1,2,8,1,2,1,5,0.306543988111433,0.333869848625295
"729",27,24,1,1,9,3,1,1,3,0.708721006723383,0.632370335461155
"730",27,22,1,1,10,2,1,1,4,0.756819732169651,0.828315385521117
"731",27,25,1,2,11,2,2,1,3,0.709371209490815,0.808693892174755
"732",27,31,1,2,12,3,2,1,2,1.04635721567326,1.07420975268232
"733",27,27,1,2,13,2,2,1,4,0.684993180190361,0.657215853959128
"734",27,37,1,2,14,2,2,1,4,0.707370616505126,0.640411004858116
"735",27,39,1,1,15,1,1,1,5,0.37799270312916,0.454710337668092
"736",27,40,1,1,16,2,2,0,3,0.848415372864849,0.810969932126846
"737",27,22,1,2,17,3,2,1,2,1.29088226345588,1.26309899476331
"738",27,30,1,1,18,1,1,1,5,0.419643487613601,0.335697184627153
"739",27,24,1,2,19,1,2,1,4,0.467283310198841,0.421443895355882
"740",27,22,1,2,20,2,2,1,3,0.825183921099073,0.823687065418125
"741",27,25,1,1,21,3,2,0,1,1.29481953758349,1.23349123720576
"742",27,31,1,2,22,3,2,1,3,0.636934170096504,0.710134944299264
"743",27,27,1,2,23,1,2,1,5,0.280972629882071,0.274156994456859
"744",27,37,1,2,24,3,1,0,1,1.35809502266647,1.29623019097945
"745",27,39,1,1,25,1,1,1,5,0.485303820755257,0.463944468777288
"746",27,40,1,1,26,1,1,1,4,0.459761691360924,0.619658370199169
"747",27,22,1,1,27,2,1,1,4,0.781636573056347,0.744987453213019
"748",27,30,1,1,28,2,2,0,2,0.611132548844047,0.642624460329219
"749",27,24,1,2,29,1,2,1,4,0.402709216485408,0.379655847539197
"750",27,22,1,2,30,2,2,1,3,0.51596108715723,0.514190372508476
"751",27,25,1,1,31,1,2,0,4,0.647616124265027,0.716134565607583
"752",27,31,1,2,32,2,2,1,4,0.522784719842341,0.546231102157597
"753",27,27,1,1,33,3,1,1,2,0.647896740199011,0.559931716463764
"754",27,37,1,1,34,3,1,1,2,0.993275263706906,0.973670198686284
"755",27,39,1,1,35,1,1,1,4,0.520956501953335,0.550875563995173
"756",27,40,1,1,36,2,2,0,3,0.830430203424238,0.836265603102003
"757",27,22,1,1,37,1,1,1,5,0.392786783281097,0.400371378843112
"758",27,30,1,2,38,1,2,1,4,0.280449693317788,0.234848407117836
"759",27,24,1,2,39,1,2,1,5,0.579952837091949,0.652736700365645
"760",27,22,1,2,40,2,2,1,4,0.626349691153568,0.627467497862917
"761",27,25,1,2,41,1,2,1,5,0.428465173538803,0.41028757202311
"762",27,31,1,2,42,1,2,1,5,0.436159688906187,0.502062386361276
"763",27,27,1,1,43,1,1,1,5,0.375278396490581,0.393688911046382
"764",27,37,1,1,44,2,1,1,3,0.529906336988746,0.494468803401339
"765",27,39,1,2,45,1,2,1,4,0.449444808451581,0.424920706963833
"766",27,40,1,1,46,3,2,0,1,1.09731691199141,1.18250275866091
"767",27,22,1,1,47,1,1,1,4,0.462559020397235,0.573147547496106
"768",27,30,1,1,48,1,2,0,3,0.523092832613281,0.467245271041607
"769",27,24,1,2,49,3,1,0,1,1.19429480629188,1.22934807282478
"770",27,22,1,2,50,2,1,0,2,1.12751629638622,1.26664503666112
"771",27,25,1,1,51,3,1,1,2,0.973051156721351,0.883607403184878
"772",27,31,1,2,52,3,2,1,2,1.04833124107556,1.04557205878419
"773",27,27,1,1,53,1,1,1,5,0.390653161731765,0.446639040528094
"774",27,37,1,1,54,3,2,0,2,0.818093090357281,0.828917946483481
"775",27,39,1,2,55,3,1,0,1,0.909481417371011,0.856342445783592
"776",27,40,1,1,56,2,1,1,3,0.626863981839195,0.695819625259562
"777",27,22,1,2,57,1,2,1,5,0.404635105964427,0.384660235916072
"778",27,30,1,2,58,1,1,0,3,0.449830331699003,0.401132384193501
"779",27,24,1,2,59,3,2,1,3,0.392647538608452,0.278200382120649
"780",27,22,1,2,60,3,2,1,2,1.16986075411934,1.17124944091231
"781",27,25,1,2,61,3,1,0,2,0.612186057906056,0.716199374337129
"782",27,31,1,2,62,3,1,0,1,0.688087499461323,0.70178108018346
"783",27,27,1,1,63,1,2,0,4,0.508850435150578,0.529312892572655
"784",27,37,1,2,64,1,2,1,4,0.367066239905981,0.368196950908432
"785",27,39,1,1,65,2,1,1,4,0.955057543875756,1.00655577289028
"786",27,40,1,2,66,3,2,1,2,0.896537257208622,0.937804587520531
"787",27,22,1,1,67,2,1,1,4,0.582085080970661,0.611061508192962
"788",27,30,1,2,68,3,2,1,2,1.20391461605008,1.18760148744343
"789",27,24,1,2,69,1,1,0,4,0.642284679518438,0.639204392197825
"790",27,22,1,1,70,2,1,1,4,0.445723569507259,0.355005721073051
"791",27,25,1,2,71,3,1,0,1,0.896670636280763,0.838350469416067
"792",27,31,1,1,72,2,2,0,2,0.459709710230204,0.434369594638812
"793",27,27,1,2,73,3,1,0,2,0.815192150753188,0.89818044790808
"794",27,37,1,1,74,2,1,1,4,0.331115940887558,0.381552314299496
"795",27,39,1,2,75,3,1,0,2,0.890894621066351,0.902663726311005
"796",27,40,1,1,76,3,2,0,2,0.55062871073681,0.421443703159989
"797",27,22,1,1,77,2,2,0,2,0.735466147546535,0.687806761351376
"798",27,30,1,2,78,1,2,1,4,0.590021164425022,0.486058639204125
"799",27,24,1,2,79,3,1,0,1,1.1527952397558,1.08569679715966
"800",27,22,1,2,80,1,2,1,4,0.439066431005885,0.444004697772874
"801",27,25,1,1,81,1,1,1,4,0.463788930685532,0.516925877905363
"802",27,31,1,1,82,3,1,1,2,0.903479985969743,0.890667860142316
"803",27,27,1,2,83,2,2,1,3,0.639510174852603,0.56445495293477
"804",27,37,1,2,84,2,2,1,4,0.678108629892658,0.658306013995917
"805",27,39,1,1,85,2,1,1,4,0.591737664760067,0.614126949022175
"806",27,40,1,1,86,1,1,1,5,0.330642071764409,0.300920416861678
"807",27,22,1,1,87,3,2,0,2,1.10725217087423,1.07592691366409
"808",27,30,1,1,88,3,1,1,3,0.960463666334746,0.943258759446944
"809",27,24,1,1,89,3,1,1,3,0.499989268141344,0.515153530600605
"810",27,22,1,1,90,3,2,0,2,1.6760135791028,1.75997119359914
"811",27,25,1,2,91,2,1,0,2,0.645217457450758,0.617985491430685
"812",27,31,1,1,92,3,1,1,3,0.6006612723351,0.631867508274439
"813",27,27,1,1,93,3,2,0,1,1.02477498480218,0.946362823296938
"814",27,37,1,1,94,1,1,1,4,0.500226817716059,0.442591928765357
"815",27,39,1,1,95,1,1,1,4,0.430334787247629,0.392246851781044
"816",27,40,1,2,96,3,1,0,2,0.604494162761777,0.554763067762947
"817",27,22,1,1,97,1,1,1,5,0.415580582435802,0.419893070034011
"818",27,30,1,2,98,1,2,1,5,0.575909187702438,0.549183110612584
"819",27,24,1,2,99,2,1,0,3,0.673198888369111,0.611588209506111
"820",27,22,1,2,100,2,2,1,3,0.553833130720589,0.541944169213536
"821",27,25,1,1,101,1,1,1,4,0.258199492238338,0.234456498979913
"822",27,31,1,2,102,3,1,0,1,1.1522416200077,1.15658447582461
"823",27,27,1,2,103,2,2,1,4,0.612766553185744,0.644605438801934
"824",27,37,1,1,104,3,2,0,2,1.02118908260329,1.01266294589282
"825",27,39,1,2,105,3,1,0,2,1.44916228227511,1.50877855048913
"826",27,40,1,2,106,1,2,1,4,0.475455056006168,0.594487598764561
"827",27,22,1,2,107,1,2,1,5,0.388077816901157,0.252225058710889
"828",27,30,1,1,108,1,1,1,5,0.504327570501931,0.460286913853592
"829",27,24,1,2,109,2,1,0,3,0.671838783491154,0.694364834987178
"830",27,22,1,1,110,1,1,1,5,0.482461620878904,0.484636957008517
"831",27,25,1,2,111,1,2,1,5,0.385459588880904,0.403190812763089
"832",27,31,1,2,112,2,1,0,3,0.574281750888178,0.552150768884849
"833",27,27,1,1,113,2,1,1,3,0.633580060462285,0.660990069372896
"834",27,37,1,2,114,1,2,1,5,0.431079375366849,0.47734441498711
"835",27,39,1,2,115,1,2,1,5,0.419459087836081,0.403486194598809
"836",27,40,1,2,116,1,2,1,5,0.244513419151503,0.196378803485493
"837",27,22,1,2,117,1,2,1,4,0.431658141395776,0.371307213138973
"838",27,30,1,1,118,1,1,1,5,0.38061747420666,0.327988563042758
"839",27,24,1,2,119,2,1,0,2,0.749442792395405,0.723545025641196
"840",27,22,1,1,120,1,2,0,3,0.512432765420446,0.519664103565701
"841",27,25,1,2,121,3,2,1,3,0.598693363308907,0.614710266446047
"842",27,31,1,1,122,2,1,1,3,0.743265589825818,0.740380055354804
"843",27,27,1,2,123,1,2,1,5,0.361129070032434,0.360782603406991
"844",27,37,1,2,124,3,1,0,1,0.967979053119883,1.02190568116846
"845",27,39,1,1,125,3,1,1,2,1.06084981625038,1.07019189115547
"846",27,40,1,1,126,2,1,1,3,0.770693159555276,0.657642981717682
"847",27,22,1,2,127,1,2,1,5,0.522833489155656,0.46409620655457
"848",27,30,1,2,128,2,2,1,4,0.521501402108969,0.547057602969431
"849",27,24,1,1,129,1,1,1,4,0.381180782694087,0.342013469849319
"850",27,22,1,2,130,2,2,1,4,0.761942709998091,0.783564592817306
"851",27,25,1,2,131,3,1,0,1,0.552310847291883,0.508260617446201
"852",27,31,1,2,132,1,2,1,5,0.492423848186282,0.447329298191629
"853",27,27,1,2,133,1,1,0,3,0.50474683497791,0.591396281812274
"854",27,37,1,1,134,1,1,1,5,0.360243438023714,0.317966544713767
"855",27,39,1,1,135,2,1,1,4,0.826066153871945,0.787462347389237
"856",27,40,1,1,136,2,1,1,4,0.536402565042822,0.579418690952895
"857",27,22,1,1,137,3,1,1,2,0.546070278438515,0.592327134856476
"858",27,30,1,2,138,3,2,1,2,0.946743473485155,0.990614297040778
"859",27,24,1,1,139,3,1,1,2,0.786862845742848,0.81183829118625
"860",27,22,1,2,140,3,1,0,2,1.13877017775179,1.23269114353944
"861",27,25,1,2,141,1,2,1,5,0.565264334537916,0.612813120041625
"862",27,31,1,1,142,2,2,0,3,0.858131576644814,0.793952116432391
"863",27,27,1,1,143,2,1,1,3,0.458182416932003,0.48010198106516
"864",27,37,1,2,144,2,1,0,3,0.97276532460203,0.914557350173243
"865",27,39,1,2,145,3,1,0,2,0.446591710038992,0.402287844101155
"866",27,40,1,1,146,3,1,1,2,0.806015965071433,0.809248835938658
"867",27,22,1,2,147,2,1,0,2,0.847147637705211,0.806791647542993
"868",27,30,1,2,148,2,1,0,2,0.628698955032686,0.597762129564826
"869",27,24,1,1,149,2,1,1,3,0.665789899921712,0.680234805637962
"870",27,22,1,2,150,3,2,1,2,1.03715678344931,0.950522096026783
"871",27,25,1,1,151,3,2,0,1,0.413309940955472,0.480879678101155
"872",27,31,1,2,152,2,1,0,2,0.894732951927057,0.973513146654279
"873",27,27,1,2,153,3,2,1,3,0.847653335027786,0.88895178164897
"874",27,37,1,1,154,1,1,1,4,0.331229628935361,0.325683903545032
"875",27,39,1,1,155,3,2,0,2,1.09344785272546,1.08810714127849
"876",27,40,1,1,156,3,2,0,1,1.69331134571384,1.76575217573734
"877",27,22,1,2,157,3,2,1,3,0.799819951207574,0.789305488523941
"878",27,30,1,2,158,3,2,1,2,0.770576830333463,0.768834588487375
"879",27,24,1,1,159,3,2,0,1,0.540303583777072,0.457624835154412
"880",27,22,1,1,160,3,1,1,3,0.842905097972752,0.928670883480625
"881",27,25,1,2,161,3,1,0,2,0.664424153435828,0.623038562347886
"882",27,31,1,1,162,3,1,1,3,0.691353508353292,0.651107915181906
"883",27,27,1,1,163,2,2,0,2,0.602138023260426,0.684730703282956
"884",27,37,1,1,164,3,1,1,3,0.976630095469429,1.03008900494596
"885",27,39,1,2,165,1,2,1,4,0.333685379749909,0.324174262459507
"886",27,40,1,2,166,2,2,1,3,0.668662146326463,0.712099353313932
"887",27,22,1,1,167,2,1,1,4,0.611488892089516,0.568688438173285
"888",27,30,1,1,168,3,2,0,1,0.814517121986239,0.780496542987178
"889",27,24,1,1,169,2,1,1,4,0.730342726093785,0.727395512380743
"890",27,22,1,1,170,3,2,0,1,0.500284351367357,0.511919016606726
"891",27,25,1,1,171,3,2,0,2,1.5989011189114,1.55509017205455
"892",27,31,1,1,172,2,1,1,3,0.433803355256253,0.524074174368714
"893",27,27,1,1,173,1,1,1,4,0.45293005633816,0.443013552497508
"894",27,37,1,1,174,3,2,0,2,0.995458967196643,0.926519813894466
"895",27,39,1,1,175,2,1,1,3,0.783973222566866,0.782447882847919
"896",27,40,1,1,176,2,1,1,3,0.570350976479151,0.60045831871102
"897",27,22,1,1,177,1,2,0,3,0.527693689042935,0.542806454855896
"898",27,30,1,2,178,2,2,1,4,0.486433566713251,0.481499604196634
"899",27,24,1,2,179,1,1,0,4,0.608981125968059,0.594364145133597
"900",27,22,1,2,180,2,2,1,4,0.636339402870941,0.612538478659689
"901",27,25,1,2,181,2,1,0,3,0.826444894770647,0.849258809155227
"902",27,31,1,1,182,3,1,1,3,0.675261878942597,0.727105558194146
"903",27,27,1,1,183,2,1,1,4,0.529828653607372,0.581214045248527
"904",27,37,1,1,184,1,1,1,5,0.296574236713584,0.250526703027037
"905",27,39,1,1,185,2,2,0,3,0.661247929857893,0.63084998272522
"906",27,40,1,1,186,3,2,0,2,0.47625388150192,0.496741866845711
"907",27,22,1,1,187,1,1,1,5,0.42658200778659,0.448115203345487
"908",27,30,1,2,188,2,1,0,2,0.561954397769776,0.520559242620006
"909",27,24,1,2,189,2,2,1,3,0.536193652833851,0.641316025370902
"910",27,22,1,2,190,3,1,0,2,0.895832581367222,0.943174805268966
"911",27,25,1,2,191,2,2,1,3,0.621219617312617,0.669406147274863
"912",27,31,1,2,192,3,1,0,2,1.21780212769492,1.20186355491931
"913",27,27,1,2,193,1,1,0,4,0.4030901255404,0.377928499774521
"914",27,37,1,2,194,3,1,0,1,0.937802395662771,1.01047122765428
"915",27,39,1,2,195,2,1,0,3,0.953761794374542,0.947671582664993
"916",27,40,1,1,196,3,1,1,2,0.930616741848314,1.01859328667445
"917",27,22,1,2,197,2,2,1,3,0.816786353209263,0.813055742140643
"918",27,30,1,2,198,3,2,1,3,0.927531728240912,0.960668810315998
"919",27,24,1,1,199,3,1,1,2,0.650614662439533,0.720247553417749
"920",27,22,1,1,200,2,1,1,4,0.627239443653718,0.589541478207928
"921",27,25,1,1,201,2,1,1,3,0.353393386825523,0.343237114276738
"922",27,31,1,2,202,3,2,1,3,0.874739109719016,0.850359777529668
"923",27,27,1,1,203,2,2,0,2,0.783043475144916,0.8381623419067
"924",27,37,1,1,204,1,1,1,4,0.406004268422392,0.372956162236216
"925",27,39,1,1,205,2,2,0,3,0.630378640094423,0.595302727115135
"926",27,40,1,1,206,2,1,1,4,0.739707999303672,0.708153146341481
"927",27,22,1,1,207,1,1,1,5,0.345451527494652,0.313763763418944
"928",27,30,1,2,208,3,2,1,2,1.00614976787528,0.973111255971651
"929",27,24,1,1,209,1,1,1,5,0.544310213396776,0.498331312136355
"930",27,22,1,2,210,2,1,0,3,0.628018413529334,0.587817714238393
"931",27,25,1,2,211,2,2,1,3,0.590552006270339,0.599044686923954
"932",27,31,1,1,212,1,1,1,5,0.484976560650272,0.432797688269578
"933",27,27,1,2,213,1,2,1,5,0.232033753629294,0.257484583116415
"934",27,37,1,2,214,1,2,1,5,0.323259761688099,0.385059152369998
"935",27,39,1,2,215,1,2,1,5,0.32031670944964,0.315918844671439
"936",27,40,1,2,216,1,2,1,5,0.602303478240167,0.477142260752299
"937",27,22,1,2,217,1,2,1,4,0.472480407834105,0.55220955753387
"938",27,30,1,1,218,1,1,1,4,0.496412219502093,0.572527933785328
"939",27,24,1,1,219,2,1,1,3,0.399764761758942,0.435669376140965
"940",27,22,1,2,220,2,1,0,3,0.556252556173016,0.596952643577569
"941",27,25,1,1,221,2,1,1,4,0.617230598399788,0.684698452545242
"942",27,31,1,1,222,3,2,0,1,1.33929259686323,1.31858646785814
"943",27,27,1,1,223,1,2,0,4,0.553613565752957,0.550707519701055
"944",27,37,1,1,224,2,2,0,2,0.680980766657953,0.676925472679039
"945",27,39,1,2,225,1,1,0,3,0.462965653136524,0.453668231657245
"946",27,40,1,1,226,2,1,1,3,0.668165092243057,0.718738455816864
"947",27,22,1,2,227,1,2,1,5,0.412665280655361,0.392766800982099
"948",27,30,1,1,228,1,1,1,5,0.495357432596458,0.476309886238832
"949",27,24,1,2,229,2,2,1,3,0.665869456843715,0.642146932193083
"950",27,22,1,2,230,3,1,0,1,0.514725162447855,0.601782247410758
"951",27,25,1,2,231,1,2,1,5,0.455319090603933,0.476378929980005
"952",27,31,1,2,232,3,1,0,2,0.608788627525191,0.651887892446477
"953",27,27,1,1,233,3,2,0,1,1.42488751263933,1.38587467060547
"954",27,37,1,1,234,1,1,1,4,0.459584316481784,0.474038317830083
"955",27,39,1,2,235,3,2,1,2,0.898093748208419,0.953390760203405
"956",27,40,1,2,236,2,1,0,2,0.820093378619214,0.743484505335996
"957",27,22,1,1,237,2,1,1,4,0.578124270487223,0.598595347626295
"958",27,30,1,1,238,2,2,0,2,0.718444179331132,0.741056602278896
"959",27,24,1,1,239,1,1,1,5,0.379926741644086,0.32792917202562
"960",27,22,1,2,240,1,2,1,4,0.192788518889308,0.170759293175359
"961",26,33,2,2,1,3,1,0,2,1.21217282098451,1.20674457200049
"962",26,32,2,1,2,3,1,1,3,1.20174832507335,1.16409347671695
"963",26,35,2,2,3,3,1,0,2,-0.405198607446584,-0.39562868051124
"964",26,27,2,1,4,2,2,0,2,0.50056376952164,0.4628869003573
"965",26,25,2,2,5,3,1,0,2,1.63183394123412,1.63369156431567
"966",26,32,2,2,6,3,2,1,2,1.08296438290549,1.03741090916372
"967",26,30,2,2,7,3,1,0,2,1.38760152745229,1.39770225191405
"968",26,30,2,1,8,1,1,1,5,0.3863431093424,0.350034443876084
"969",26,24,2,2,9,3,2,1,3,0.824290616088376,0.824628582155244
"970",26,32,2,1,10,1,1,1,5,0.325689554996056,0.297629002705427
"971",26,33,2,2,11,1,1,0,4,0.4775569818244,0.559084619022501
"972",26,32,2,1,12,2,2,0,3,0.988519764548895,0.932849414037094
"973",26,35,2,2,13,1,2,1,4,0.328399383732017,0.35121359426466
"974",26,27,2,2,14,2,1,0,2,0.741045386461972,0.717606057774293
"975",26,25,2,2,15,1,1,0,4,0.581108215912744,0.586541968075419
"976",26,32,2,2,16,3,2,1,2,0.976059192738724,0.952431605578556
"977",26,30,2,2,17,1,2,1,4,0.344580239198593,0.293142321026453
"978",26,30,2,1,18,1,2,0,3,0.872185329701073,0.844928058626822
"979",26,24,2,2,19,1,2,1,5,0.371193642795168,0.321948767648325
"980",26,32,2,2,20,1,2,1,4,0.565819892853177,0.611286330345258
"981",26,33,2,2,21,3,2,1,2,1.13841158271477,1.09199216578018
"982",26,32,2,2,22,1,2,1,5,0.390194821950476,0.396619264273871
"983",26,35,2,1,23,2,2,0,2,0.799670132694442,0.835277470972857
"984",26,27,2,2,24,3,2,1,3,0.94475422353555,0.896474291333543
"985",26,25,2,2,25,2,2,1,3,0.759242642857382,0.750689064056515
"986",26,32,2,2,26,1,2,1,4,0.406536693051884,0.522572962919241
"987",26,30,2,1,27,1,1,1,4,0.378556139457291,0.36333224033903
"988",26,30,2,2,28,3,1,0,2,1.33312970487061,1.29305940626041
"989",26,24,2,2,29,3,2,1,3,0.59944965797774,0.534958740665048
"990",26,32,2,2,30,2,1,0,2,0.909675991557323,0.856939397855579
"991",26,33,2,2,31,3,1,0,1,0.764953689113665,0.807449787665516
"992",26,32,2,1,32,3,2,0,2,1.21744104543251,1.27025843578054
"993",26,35,2,2,33,3,1,0,2,0.855453861852686,0.892412171010617
"994",26,27,2,1,34,1,1,1,4,0.367213654209825,0.342695019200888
"995",26,25,2,2,35,1,1,0,3,0.589774467746083,0.575992640772013
"996",26,32,2,1,36,1,1,1,5,0.362612637578332,0.371654617440093
"997",26,30,2,1,37,3,2,0,2,1.09779449794177,1.12609443340076
"998",26,30,2,1,38,2,1,1,4,0.699261364003403,0.728535570049937
"999",26,24,2,2,39,3,1,0,1,0.592296592770313,0.558330339610737
"1000",26,32,2,1,40,2,2,0,2,0.7048240275935,0.656196985155287
"1001",26,33,2,2,41,3,2,1,3,0.5361775750149,0.459345212532068
"1002",26,32,2,2,42,1,1,0,3,0.713687353722507,0.661253265831101
"1003",26,35,2,1,43,3,1,1,3,0.7201919198661,0.688485317514152
"1004",26,27,2,1,44,3,1,1,3,1.07443888154993,1.10535475453101
"1005",26,25,2,1,45,3,2,0,2,0.422910539682404,0.402952747488442
"1006",26,32,2,1,46,1,1,1,4,0.385011031611713,0.465161169621579
"1007",26,30,2,1,47,1,1,1,5,0.398040574675662,0.415845857074875
"1008",26,30,2,1,48,3,1,1,3,0.740715487149139,0.849005927170457
"1009",26,24,2,2,49,3,1,0,2,0.589369288363323,0.617707397959611
"1010",26,32,2,2,50,2,1,0,3,0.722416358454501,0.78619391062444
"1011",26,33,2,1,51,2,1,1,3,0.419520413591171,0.42838607311903
"1012",26,32,2,2,52,1,2,1,4,0.301266379587859,0.301643037407295
"1013",26,35,2,2,53,3,2,1,3,0.60497566646656,0.555518204140806
"1014",26,27,2,2,54,2,2,1,3,0.638074194042579,0.639550728522179
"1015",26,25,2,2,55,3,2,1,2,0.715498633480468,0.625541571832194
"1016",26,32,2,1,56,2,1,1,3,0.811344930644359,0.723451460153057
"1017",26,30,2,2,57,2,2,1,3,0.854568936861912,0.824805871151452
"1018",26,30,2,2,58,1,2,1,5,0.458842351730944,0.54999315782443
"1019",26,24,2,2,59,3,1,0,1,1.8117778291187,1.79023669046249
"1020",26,32,2,2,60,2,1,0,3,0.799195836291296,0.786985449204275
"1021",26,33,2,2,61,2,2,1,3,0.610257582276065,0.582379211193304
"1022",26,32,2,2,62,1,2,1,4,0.270591980567914,0.218767674670091
"1023",26,35,2,2,63,2,1,0,2,0.819407675650553,0.821285340778318
"1024",26,27,2,1,64,2,1,1,3,0.366041085855912,0.360375119319682
"1025",26,25,2,1,65,1,1,1,5,0.278281233104832,0.285519669754704
"1026",26,32,2,2,66,2,2,1,3,0.73089878534016,0.744615389322469
"1027",26,30,2,1,67,3,1,1,2,0.787582810614222,0.835183930976915
"1028",26,30,2,2,68,1,2,1,5,0.358470379649554,0.41732206065798
"1029",26,24,2,2,69,1,1,0,4,0.411236018619288,0.480443436445874
"1030",26,32,2,1,70,3,2,0,1,1.33381289584598,1.20896445001299
"1031",26,33,2,2,71,1,1,0,4,0.411111319849962,0.391166410780095
"1032",26,32,2,2,72,2,2,1,3,0.846650065466159,0.80630504503726
"1033",26,35,2,1,73,1,2,0,4,0.794335798647071,0.77537041575489
"1034",26,27,2,2,74,2,1,0,3,0.672293368022088,0.652565287567559
"1035",26,25,2,1,75,1,1,1,4,0.379929177911479,0.429507219013873
"1036",26,32,2,2,76,1,1,0,3,0.613714681329252,0.654957503866783
"1037",26,30,2,2,77,3,2,1,2,0.66128182736891,0.730012186927966
"1038",26,30,2,2,78,3,1,0,2,0.637061191602452,0.627907771301314
"1039",26,24,2,2,79,3,1,0,1,1.01448141581008,1.02490378860256
"1040",26,32,2,1,80,3,1,1,2,0.829008584315869,0.829232037915885
"1041",26,33,2,1,81,2,2,0,2,0.770311323832344,0.752845248153318
"1042",26,32,2,1,82,1,1,1,4,0.434637907757728,0.492773112469269
"1043",26,35,2,2,83,1,2,1,5,0.445911407750725,0.464926813564615
"1044",26,27,2,2,84,2,1,0,2,0.764403439994887,0.835173201920491
"1045",26,25,2,2,85,1,2,1,5,0.424469669486966,0.452224265933006
"1046",26,32,2,2,86,3,1,0,1,1.54843959046099,1.49661764595312
"1047",26,30,2,2,87,2,2,1,4,0.62732271339504,0.67633276517239
"1048",26,30,2,1,88,3,2,0,1,0.696524079222421,0.726599241330326
"1049",26,24,2,1,89,2,2,0,2,0.629881221364629,0.631950874764611
"1050",26,32,2,2,90,2,1,0,2,0.659407160176442,0.62055865413278
"1051",26,33,2,2,91,3,2,1,3,0.993365233368713,1.02719628014773
"1052",26,32,2,2,92,2,1,0,3,0.765004726999585,0.804316128451617
"1053",26,35,2,2,93,3,1,0,2,0.848402431301686,0.798568394048455
"1054",26,27,2,2,94,2,2,1,3,0.520536799066677,0.515076693087658
"1055",26,25,2,2,95,2,2,1,4,0.659606100358289,0.68573157659625
"1056",26,32,2,2,96,3,2,1,2,0.835161434402791,0.901230733807622
"1057",26,30,2,2,97,3,1,0,2,1.38626131743163,1.41731429707648
"1058",26,30,2,1,98,2,2,0,3,0.620583744355614,0.598196559562218
"1059",26,24,2,1,99,3,2,0,1,1.21566745010652,1.19946332378376
"1060",26,32,2,2,100,1,2,1,4,0.353460030316926,0.359728838449027
"1061",26,33,2,1,101,1,1,1,5,0.570210288342335,0.579043650666485
"1062",26,32,2,1,102,2,1,1,4,0.48128017594036,0.480723340297133
"1063",26,35,2,1,103,1,1,1,5,0.338522172322134,0.368255005481282
"1064",26,27,2,1,104,3,1,1,2,0.457394458798711,0.482111388427146
"1065",26,25,2,2,105,2,1,0,3,0.849169484332965,0.872130710296986
"1066",26,32,2,2,106,3,1,0,2,0.881244594158158,0.862821997299263
"1067",26,30,2,2,107,1,2,1,4,0.430976585943556,0.533412696732087
"1068",26,30,2,1,108,1,1,1,4,0.507543221776898,0.569679089810958
"1069",26,24,2,2,109,3,1,0,2,0.832865276498824,0.772856280825267
"1070",26,32,2,2,110,2,2,1,3,0.540342869483765,0.575801114554023
"1071",26,33,2,2,111,2,2,1,3,0.726724063726242,0.788066391947956
"1072",26,32,2,1,112,1,1,1,4,0.45013221160554,0.520850356116105
"1073",26,35,2,1,113,1,1,1,5,0.345614733008588,0.322660314066077
"1074",26,27,2,2,114,2,2,1,3,0.677425560610789,0.635402032050874
"1075",26,25,2,1,115,3,1,1,2,0.898897304559215,0.893191145860013
"1076",26,32,2,1,116,1,1,1,4,0.422897203028571,0.341000579989281
"1077",26,30,2,1,117,1,1,1,5,0.44747610666775,0.443229519934965
"1078",26,30,2,2,118,2,2,1,3,0.726878719453325,0.708232775405563
"1079",26,24,2,1,119,3,2,0,1,0.826979501840851,0.950394917679591
"1080",26,32,2,2,120,1,2,1,5,0.421303863684618,0.430014217559368
"1081",26,33,2,2,121,1,1,0,3,0.491436590033491,0.534507345701004
"1082",26,32,2,1,122,1,1,1,4,0.374338442117467,0.442371686545746
"1083",26,35,2,1,123,3,2,0,2,0.735192722592426,0.750383072697302
"1084",26,27,2,2,124,2,1,0,2,0.659431468247558,0.588462978548453
"1085",26,25,2,1,125,3,1,1,3,0.748132958725783,0.765718896485217
"1086",26,32,2,2,126,1,1,0,3,0.499439579012873,0.538274476760142
"1087",26,30,2,1,127,1,1,1,5,0.473185616756473,0.445866714725168
"1088",26,30,2,1,128,3,2,0,1,0.612834327136041,0.583386954634079
"1089",26,24,2,2,129,2,1,0,2,0.64425414453686,0.702870137313986
"1090",26,32,2,2,130,1,2,1,5,0.271566839103838,0.239592093669797
"1091",26,33,2,1,131,3,1,1,2,0.632765907418039,0.603620449870059
"1092",26,32,2,1,132,2,2,0,2,0.879679001069143,0.855394413440484
"1093",26,35,2,1,133,2,1,1,4,0.277349919501331,0.246121987794024
"1094",26,27,2,1,134,3,1,1,3,0.78100501324435,0.758464901167339
"1095",26,25,2,1,135,1,1,1,5,0.511883989895339,0.427048853355443
"1096",26,32,2,1,136,1,2,0,3,0.597694659885061,0.591948434621971
"1097",26,30,2,1,137,3,2,0,2,0.383732664414817,0.366968295495604
"1098",26,30,2,2,138,3,1,0,1,0.62795930620425,0.548012298766619
"1099",26,24,2,1,139,1,1,1,4,0.331218801643615,0.22112772998623
"1100",26,32,2,2,140,2,2,1,3,0.570601427574974,0.477551642753595
"1101",26,33,2,1,141,3,2,0,1,1.04857322057303,1.03970014332688
"1102",26,32,2,1,142,1,1,1,4,0.259091730936312,0.224130284897372
"1103",26,35,2,2,143,1,1,0,4,0.832250925748586,0.812933318030565
"1104",26,27,2,2,144,3,1,0,1,2.12928228618921,2.12283912511795
"1105",26,25,2,1,145,1,1,1,4,0.310482921437228,0.226495806214897
"1106",26,32,2,1,146,3,2,0,1,1.33821536122596,1.23616549945568
"1107",26,30,2,1,147,3,1,1,2,0.955716378099989,0.873165598919149
"1108",26,30,2,2,148,2,2,1,3,0.405465839167374,0.488797637161589
"1109",26,24,2,1,149,1,1,1,5,0.353285011122378,0.326996689247854
"1110",26,32,2,2,150,2,1,0,3,0.641074601733519,0.62390521697524
"1111",26,33,2,1,151,1,1,1,5,0.529034290862783,0.494379269297981
"1112",26,32,2,1,152,2,2,0,3,0.609636015687143,0.656247003279045
"1113",26,35,2,2,153,2,2,1,4,0.441218835475654,0.439594468083649
"1114",26,27,2,1,154,3,1,1,2,0.876308351473316,0.777185439367704
"1115",26,25,2,2,155,2,2,1,4,0.666527989779204,0.745104727412481
"1116",26,32,2,1,156,2,2,0,2,0.946852380500072,0.869154808744638
"1117",26,30,2,2,157,3,1,0,2,1.44082002806992,1.47767256942854
"1118",26,30,2,1,158,3,1,1,3,0.616446863547327,0.564897460106505
"1119",26,24,2,2,159,2,2,1,3,0.591313888827171,0.615347333435162
"1120",26,32,2,1,160,1,1,1,4,0.364374136668289,0.356584038783603
"1121",26,33,2,1,161,2,2,0,3,0.761391296554414,0.721347478643233
"1122",26,32,2,1,162,2,1,1,4,0.687364814586905,0.749302045274563
"1123",26,35,2,2,163,1,1,0,3,0.539128157118717,0.563744279378694
"1124",26,27,2,1,164,2,1,1,3,0.360748628701005,0.290015306307419
"1125",26,25,2,2,165,2,1,0,2,0.849124594813021,0.789592803833085
"1126",26,32,2,1,166,2,2,0,2,0.73910381653335,0.758470473810221
"1127",26,30,2,1,167,2,2,0,2,0.707447040270108,0.689440629676891
"1128",26,30,2,2,168,1,2,1,5,0.396126443798874,0.421941743565771
"1129",26,24,2,1,169,3,2,0,2,0.390403541359127,0.439505806050496
"1130",26,32,2,1,170,1,1,1,5,0.383790821807405,0.296396067780033
"1131",26,33,2,2,171,2,2,1,3,0.804455857154693,0.790794754065747
"1132",26,32,2,2,172,3,1,0,1,1.08271572385399,1.02985365493548
"1133",26,35,2,1,173,3,2,0,1,1.34417528821923,1.36718576295008
"1134",26,27,2,1,174,2,1,1,3,0.686159369828264,0.695858518564221
"1135",26,25,2,1,175,3,2,0,1,1.81644386844222,1.82625392669747
"1136",26,32,2,2,176,3,1,0,2,1.43299599412478,1.35383395548522
"1137",26,30,2,1,177,2,2,0,2,1.01197424558756,0.97217683889836
"1138",26,30,2,1,178,2,1,1,4,0.475964297319286,0.496567860957695
"1139",26,24,2,1,179,2,2,0,3,0.930357390291468,0.915473822012579
"1140",26,32,2,2,180,1,2,1,5,0.243074441205917,0.16917748588273
"1141",26,33,2,1,181,2,1,1,3,0.360702837282451,0.324860843257956
"1142",26,32,2,1,182,3,1,1,3,0.913825378747698,0.925910319346296
"1143",26,35,2,1,183,1,1,1,5,0.47170097918873,0.445066640160224
"1144",26,27,2,1,184,1,2,0,3,0.499207441951101,0.509677983978116
"1145",26,25,2,1,185,1,1,1,5,0.450409116477519,0.417621399335838
"1146",26,32,2,1,186,2,2,0,3,0.708229842523607,0.703268815383411
"1147",26,30,2,2,187,2,2,1,4,0.585782011280075,0.603499618462647
"1148",26,30,2,2,188,3,2,1,2,0.781274111197533,0.803861613806282
"1149",26,24,2,2,189,1,2,1,5,0.572056495343,0.575234220626343
"1150",26,32,2,1,190,3,2,0,2,1.01136796250682,1.07949484486506
"1151",26,33,2,2,191,1,2,1,5,0.338608701874922,0.313343008090477
"1152",26,32,2,1,192,3,1,1,3,0.829811947781825,0.889764357275257
"1153",26,35,2,2,193,1,2,1,5,0.481010553232838,0.526485492100181
"1154",26,27,2,1,194,3,2,0,2,0.625809614841143,0.590074212855315
"1155",26,25,2,1,195,2,1,1,3,0.567937176210503,0.601416284099535
"1156",26,32,2,1,196,2,1,1,3,0.715340157235963,0.660551337720164
"1157",26,30,2,1,197,3,1,1,3,0.587797457054324,0.58395696221073
"1158",26,30,2,1,198,2,2,0,2,0.654571203559904,0.658531741271089
"1159",26,24,2,1,199,2,1,1,3,0.595738519694128,0.586270099791101
"1160",26,32,2,1,200,1,1,1,4,0.501349780307618,0.557526978650121
"1161",26,33,2,1,201,1,1,1,4,0.363209207189183,0.376581858779398
"1162",26,32,2,1,202,1,1,1,4,0.521016271071501,0.538903083277035
"1163",26,35,2,1,203,3,2,0,1,1.05053252641171,0.985295832437443
"1164",26,27,2,1,204,1,1,1,5,0.379443941444031,0.351871774698564
"1165",26,25,2,2,205,1,1,0,4,0.69100513290611,0.683531093845949
"1166",26,32,2,2,206,1,2,1,5,0.51341433309346,0.474804178741428
"1167",26,30,2,1,207,2,2,0,3,0.412092543237604,0.465550109839698
"1168",26,30,2,2,208,3,2,1,2,0.580256523616308,0.548379243381642
"1169",26,24,2,2,209,2,1,0,3,0.8955214084375,0.886982106996377
"1170",26,32,2,2,210,1,2,1,5,0.46866946513782,0.485450554535961
"1171",26,33,2,1,211,1,1,1,5,0.435822230718181,0.384558380637166
"1172",26,32,2,1,212,3,1,1,2,1.26709597046261,1.37856663769703
"1173",26,35,2,2,213,2,2,1,3,0.652066982997073,0.61769289991907
"1174",26,27,2,1,214,1,1,1,4,0.501677706112997,0.471837991283159
"1175",26,25,2,1,215,1,1,1,4,0.277899143517743,0.351787165626043
"1176",26,32,2,2,216,2,2,1,4,0.949353133812621,0.939107215461771
"1177",26,30,2,1,217,1,1,1,5,0.465550573894732,0.430007671055657
"1178",26,30,2,2,218,2,2,1,3,0.447570463128256,0.412088873465212
"1179",26,24,2,2,219,1,2,1,5,0.220775559798465,0.169269926914601
"1180",26,32,2,1,220,3,2,0,1,0.913655153905544,1.01533531150442
"1181",26,33,2,1,221,2,1,1,3,0.461239461738317,0.483053950709167
"1182",26,32,2,1,222,2,1,1,3,0.647001795499687,0.677331509641907
"1183",26,35,2,1,223,2,2,0,2,0.705736574355906,0.768958190130309
"1184",26,27,2,2,224,1,2,1,4,0.394265382250213,0.347711271112958
"1185",26,25,2,1,225,3,1,1,2,0.85059224107062,0.829617961157777
"1186",26,32,2,2,226,2,2,1,3,0.822626116026468,0.792460747464237
"1187",26,30,2,2,227,2,2,1,4,0.666463681614854,0.663970976816243
"1188",26,30,2,1,228,1,1,1,4,0.391976061810795,0.445311240955567
"1189",26,24,2,2,229,3,2,1,2,0.966067391414825,1.0938047941796
"1190",26,32,2,1,230,2,1,1,3,0.44720268176894,0.366135366099
"1191",26,33,2,1,231,3,1,1,3,0.823602265242048,0.765492605133571
"1192",26,32,2,2,232,3,2,1,2,0.818815844829024,0.772818801580526
"1193",26,35,2,2,233,3,2,1,2,0.965583172994755,0.954231482692022
"1194",26,27,2,1,234,2,1,1,4,0.488399131497278,0.49965746635131
"1195",26,25,2,2,235,2,2,1,3,0.731511579002178,0.775830864339115
"1196",26,32,2,2,236,3,1,0,2,0.659070741670665,0.567893113387305
"1197",26,30,2,1,237,2,1,1,3,0.655139918604189,0.678857015181346
"1198",26,30,2,2,238,2,2,1,3,0.447862494940819,0.510134590247884
"1199",26,24,2,2,239,1,2,1,5,0.336486244768259,0.416338970835268
"1200",26,32,2,1,240,3,2,0,2,0.99275614509125,0.959103004426489
"1201",25,31,1,2,1,2,2,1,3,0.67805154528474,0.711624653794656
"1202",25,26,1,1,2,2,1,1,3,0.383679322290283,0.315455508475476
"1203",25,28,1,2,3,1,2,1,5,0.514014256695182,0.442554786039049
"1204",25,21,1,1,4,2,1,1,3,0.711955088643423,0.796769443006193
"1205",25,26,1,2,5,3,1,0,1,1.15844276984974,1.07667952568262
"1206",25,27,1,1,6,1,1,1,5,0.380229223788286,0.394711179331731
"1207",25,35,1,1,7,1,1,1,5,0.275163883338054,0.252478951648638
"1208",25,29,1,1,8,1,1,1,4,0.492166232629775,0.519439131515032
"1209",25,27,1,1,9,2,2,0,2,0.820884492952669,0.799510863468827
"1210",25,30,1,1,10,1,1,1,5,0.421557866378046,0.425698154798183
"1211",25,31,1,2,11,2,2,1,4,0.430862054716731,0.442907372257997
"1212",25,26,1,2,12,2,1,0,3,0.554567169400177,0.537254909803747
"1213",25,28,1,1,13,2,2,0,3,0.730742784484471,0.654061852827709
"1214",25,21,1,1,14,1,1,1,4,0.406726394894324,0.4528301363779
"1215",25,26,1,1,15,3,2,0,1,1.92124978792158,1.95092791212625
"1216",25,27,1,2,16,1,1,0,3,0.487349863211348,0.552416512772826
"1217",25,35,1,1,17,2,1,1,4,0.701097149428262,0.696538997354488
"1218",25,29,1,1,18,2,1,1,4,0.605004680555311,0.556013078342424
"1219",25,27,1,2,19,1,2,1,4,0.474018464033637,0.467818746168913
"1220",25,30,1,1,20,2,1,1,3,0.562308227922782,0.546448877565318
"1221",25,31,1,2,21,1,2,1,4,0.210444414535001,0.236386827878457
"1222",25,26,1,2,22,1,2,1,5,0.448676627456429,0.380900829013447
"1223",25,28,1,2,23,1,2,1,5,0.476128136854205,0.395773581275444
"1224",25,21,1,1,24,2,1,1,3,0.524826654902373,0.507355551861197
"1225",25,26,1,1,25,3,2,0,1,1.61221913416179,1.6391298663242
"1226",25,27,1,2,26,2,1,0,3,0.828045612467319,0.855245812139426
"1227",25,35,1,1,27,3,1,1,3,0.986633065212446,0.989991342978852
"1228",25,29,1,2,28,3,2,1,3,0.892466162081646,0.935086969237812
"1229",25,27,1,2,29,3,1,0,1,0.690904212754827,0.724228338744472
"1230",25,30,1,1,30,2,1,1,4,0.493495063358907,0.383487040305466
"1231",25,31,1,2,31,3,2,1,3,1.02590465067875,0.978128814333739
"1232",25,26,1,2,32,1,2,1,4,0.297556839624658,0.262213053863107
"1233",25,28,1,1,33,3,1,1,2,0.751924308446656,0.80349700022085
"1234",25,21,1,2,34,3,1,0,2,1.48467542946604,1.57394871697952
"1235",25,26,1,1,35,2,1,1,3,0.662467864976735,0.771582391989772
"1236",25,27,1,2,36,3,2,1,2,1.04914249150769,1.05312439324032
"1237",25,35,1,2,37,1,2,1,5,0.484809543841334,0.544981389986427
"1238",25,29,1,1,38,3,1,1,2,0.72987690242809,0.785620925166249
"1239",25,27,1,1,39,3,2,0,1,0.820236612103195,0.824732972887241
"1240",25,30,1,1,40,1,1,1,4,0.427273116815416,0.499709064356774
"1241",25,31,1,2,41,2,1,0,2,0.84901827957421,0.827548616443934
"1242",25,26,1,1,42,2,1,1,4,0.815769810286225,0.798446449773762
"1243",25,28,1,2,43,1,2,1,4,0.268660186669823,0.216854673452907
"1244",25,21,1,2,44,3,1,0,1,1.0373957952377,1.05891766501619
"1245",25,26,1,2,45,1,2,1,5,0.362650272693509,0.406129627266942
"1246",25,27,1,1,46,3,2,0,2,0.652645359730803,0.648353554473123
"1247",25,35,1,2,47,3,1,0,1,0.789429919129715,0.819747521020572
"1248",25,29,1,1,48,2,2,0,2,0.531931011205576,0.53584610032803
"1249",25,27,1,1,49,2,1,1,4,0.620935822571754,0.582307460488641
"1250",25,30,1,2,50,2,2,1,4,0.494167412415488,0.593785058353029
"1251",25,31,1,2,51,3,1,0,1,1.25422848145847,1.26366184602268
"1252",25,26,1,1,52,1,1,1,4,0.467105861828716,0.528534792908783
"1253",25,28,1,1,53,3,1,1,2,0.892697666689584,0.85247107656544
"1254",25,21,1,1,54,1,1,1,5,0.464740210657972,0.451190308043001
"1255",25,26,1,1,55,3,2,0,2,1.26300473317268,1.2229005737235
"1256",25,27,1,1,56,3,2,0,1,0.927952741342898,0.92333233838959
"1257",25,35,1,2,57,2,2,1,3,0.541474688946605,0.566605502309343
"1258",25,29,1,1,58,1,1,1,4,0.418134513083979,0.46196675180341
"1259",25,27,1,1,59,3,2,0,2,1.23713606331609,1.22423224300759
"1260",25,30,1,2,60,3,2,1,3,0.737448524018961,0.744830345723805
"1261",25,31,1,1,61,3,1,1,2,0.710309212829576,0.672971886364206
"1262",25,26,1,2,62,2,2,1,4,0.547189894003891,0.550295559490292
"1263",25,28,1,1,63,2,2,0,3,0.507626348986023,0.588363859312615
"1264",25,21,1,1,64,1,1,1,4,0.538790073400698,0.483934615389866
"1265",25,26,1,1,65,2,1,1,3,0.398042346155647,0.409640737417104
"1266",25,27,1,1,66,1,1,1,4,0.501423238171359,0.497766985222277
"1267",25,35,1,1,67,3,2,0,2,0.926977798030949,0.972415901984672
"1268",25,29,1,2,68,2,2,1,4,0.522550222516415,0.452906580138855
"1269",25,27,1,2,69,3,2,1,2,0.808165056766505,0.782314395789522
"1270",25,30,1,1,70,1,1,1,4,0.39446681574444,0.3805761751357
"1271",25,31,1,1,71,2,1,1,4,0.77610770380651,0.751842607179982
"1272",25,26,1,2,72,1,2,1,4,0.323889641309548,0.325945387002456
"1273",25,28,1,1,73,1,2,0,4,0.576104896501543,0.552741756905069
"1274",25,21,1,1,74,3,1,1,2,1.24244693837559,1.25838960039052
"1275",25,26,1,1,75,3,1,1,2,0.996739634239172,1.09229920648602
"1276",25,27,1,2,76,3,1,0,1,1.18091914050442,1.0963348385337
"1277",25,35,1,1,77,1,1,1,5,0.369492725596444,0.409943263360509
"1278",25,29,1,2,78,2,2,1,4,0.644174790214127,0.601476406235456
"1279",25,27,1,1,79,1,1,1,4,0.372159701780923,0.352177446289422
"1280",25,30,1,2,80,3,1,0,2,0.717997045576531,0.797270488228965
"1281",25,31,1,1,81,3,1,1,3,0.897535809145022,0.757496036501642
"1282",25,26,1,2,82,3,1,0,2,1.06148810714347,1.07366177791777
"1283",25,28,1,1,83,2,1,1,3,0.578684449510251,0.637027119027773
"1284",25,21,1,1,84,1,1,1,5,0.40912617500333,0.459441615245639
"1285",25,26,1,2,85,1,2,1,5,0.435406547100882,0.314651347213669
"1286",25,27,1,2,86,2,2,1,3,0.527329007871557,0.550179981352295
"1287",25,35,1,2,87,2,2,1,4,0.475401571055409,0.408902462743332
"1288",25,29,1,1,88,3,2,0,1,0.897032719707736,0.884090876906257
"1289",25,27,1,1,89,1,1,1,4,0.486942701225585,0.446694115402076
"1290",25,30,1,2,90,1,2,1,4,0.275808017697868,0.323899436545326
"1291",25,31,1,2,91,2,2,1,3,0.700922550250969,0.673282436295107
"1292",25,26,1,2,92,1,2,1,4,0.509672446123704,0.503206310343626
"1293",25,28,1,1,93,1,1,1,4,0.40356992010374,0.355785847803635
"1294",25,21,1,2,94,2,2,1,3,0.822820577363644,0.816935301771237
"1295",25,26,1,2,95,2,2,1,3,0.559695774293056,0.529774772072448
"1296",25,27,1,2,96,2,2,1,3,0.408208371532483,0.390372643417489
"1297",25,35,1,1,97,3,1,1,3,0.592514685542784,0.576725923817412
"1298",25,29,1,1,98,2,2,0,3,0.922700675581131,0.938718004820606
"1299",25,27,1,2,99,1,2,1,5,0.254588299072052,0.27940328936516
"1300",25,30,1,2,100,2,2,1,4,0.518745579043453,0.580034967916479
"1301",25,31,1,2,101,3,2,1,3,0.494475766742269,0.56590759935202
"1302",25,26,1,2,102,2,2,1,3,0.70163052679514,0.745416494356352
"1303",25,28,1,2,103,3,1,0,2,0.949901495971569,0.99037856850522
"1304",25,21,1,2,104,2,2,1,3,0.348930677196049,0.35453996345337
"1305",25,26,1,2,105,1,1,0,3,0.557411634630831,0.473639670178577
"1306",25,27,1,2,106,2,1,0,2,0.79589542815878,0.83792027997852
"1307",25,35,1,2,107,3,1,0,1,1.18159932042202,1.20480569637446
"1308",25,29,1,2,108,3,2,1,2,1.07096529141466,1.06306853526817
"1309",25,27,1,2,109,1,1,0,4,0.593491050957185,0.503761026835584
"1310",25,30,1,2,110,1,1,0,3,0.489452515649142,0.448982476583485
"1311",25,31,1,1,111,3,1,1,2,1.11616686305667,1.19803143184467
"1312",25,26,1,2,112,2,2,1,4,0.657016486178227,0.680802126894566
"1313",25,28,1,1,113,1,1,1,4,0.441092332817738,0.369711653125778
"1314",25,21,1,1,114,1,2,0,3,0.515667675202262,0.415196529698772
"1315",25,26,1,1,115,2,2,0,2,0.77185843356328,0.850162519425746
"1316",25,27,1,1,116,3,1,1,3,0.716449663193091,0.661297729644024
"1317",25,35,1,1,117,3,1,1,3,0.701254016494804,0.622631745264687
"1318",25,29,1,1,118,1,1,1,5,0.480157108730148,0.536414044177745
"1319",25,27,1,2,119,3,2,1,2,0.931401324033934,0.89869666883693
"1320",25,30,1,2,120,1,2,1,4,0.525506479020399,0.459120726957295
"1321",25,31,1,2,121,2,2,1,4,0.535972567714917,0.530658717945714
"1322",25,26,1,2,122,2,1,0,3,0.684666014408054,0.723175178355696
"1323",25,28,1,2,123,2,2,1,4,0.640941571976295,0.609850063233773
"1324",25,21,1,1,124,2,2,0,3,0.697043628135338,0.729986700635883
"1325",25,26,1,2,125,1,2,1,4,0.300265389407376,0.225915035246468
"1326",25,27,1,2,126,3,2,1,2,0.990796382751742,0.990997433136409
"1327",25,35,1,2,127,3,1,0,1,1.17277912951791,1.1565343874458
"1328",25,29,1,1,128,1,1,1,5,0.464526973476712,0.414312229305207
"1329",25,27,1,1,129,3,1,1,3,1.14392384712861,1.15983834715458
"1330",25,30,1,2,130,1,2,1,4,0.365284183763973,0.343550493085779
"1331",25,31,1,2,131,2,1,0,3,0.780892896617206,0.743914044580374
"1332",25,26,1,1,132,3,1,1,2,1.09128210232493,1.08648184880399
"1333",25,28,1,2,133,1,2,1,4,0.312661587495194,0.252122594016607
"1334",25,21,1,1,134,3,1,1,2,1.00618432432695,1.00242240913908
"1335",25,26,1,1,135,2,1,1,4,0.848233724147461,0.852813054659
"1336",25,27,1,1,136,2,1,1,4,0.616485338119067,0.546813489313067
"1337",25,35,1,1,137,3,1,1,3,1.12395441999558,1.1213734035022
"1338",25,29,1,1,138,3,1,1,3,0.268913938338068,0.371977849085656
"1339",25,27,1,1,139,1,1,1,5,0.458589156441307,0.463154933319849
"1340",25,30,1,2,140,1,2,1,5,0.37778209295879,0.349109579649879
"1341",25,31,1,1,141,1,1,1,5,0.462627429575352,0.423355572582621
"1342",25,26,1,2,142,3,2,1,2,0.721340852726712,0.698689220093045
"1343",25,28,1,2,143,1,2,1,4,0.549024948888398,0.536434072407439
"1344",25,21,1,2,144,1,2,1,4,0.426901594431658,0.472952758200028
"1345",25,26,1,2,145,3,2,1,2,1.02466211856069,0.985890729259215
"1346",25,27,1,2,146,3,2,1,2,0.842510593264342,0.800879373197739
"1347",25,35,1,2,147,1,2,1,5,0.366799207877264,0.450793877795188
"1348",25,29,1,2,148,1,1,0,4,0.610854283851738,0.598632042538835
"1349",25,27,1,2,149,3,1,0,2,1.27051463544969,1.28758382705392
"1350",25,30,1,2,150,2,1,0,2,0.928998668249975,1.00029130890997
"1351",25,31,1,1,151,1,1,1,5,0.348903048174305,0.473046844966447
"1352",25,26,1,2,152,2,2,1,3,0.605789460235423,0.575112448016502
"1353",25,28,1,1,153,2,1,1,4,0.605306362727094,0.585804926307637
"1354",25,21,1,1,154,2,1,1,4,0.634578853436371,0.683323511789957
"1355",25,26,1,2,155,2,2,1,4,0.579526141494763,0.603987369210909
"1356",25,27,1,1,156,1,1,1,4,0.326409063872899,0.401103228714394
"1357",25,35,1,2,157,1,2,1,5,0.381024555783372,0.378834669056974
"1358",25,29,1,2,158,2,1,0,2,0.861864894923682,0.830505890745461
"1359",25,27,1,1,159,1,1,1,5,0.359160287005183,0.514084576347291
"1360",25,30,1,1,160,2,1,1,3,0.691149864979052,0.700645313052981
"1361",25,31,1,2,161,3,1,0,2,1.48177384251248,1.57825830690946
"1362",25,26,1,1,162,2,1,1,3,0.466499814912217,0.39717817376238
"1363",25,28,1,1,163,1,2,0,3,0.527743122296506,0.551968981293797
"1364",25,21,1,1,164,3,2,0,1,1.11105718425735,1.16453310894064
"1365",25,26,1,1,165,3,2,0,2,1.002123055807,1.05061773986009
"1366",25,27,1,2,166,3,2,1,2,0.756537403911586,0.712119639164534
"1367",25,35,1,1,167,2,2,0,2,0.640971056590693,0.607165287520296
"1368",25,29,1,2,168,3,2,1,2,0.587950291314487,0.609196056224349
"1369",25,27,1,2,169,2,1,0,2,0.853926303971535,0.858186749430789
"1370",25,30,1,2,170,1,1,0,3,0.478658246372911,0.442421919274801
"1371",25,31,1,2,171,2,2,1,4,0.689283349943206,0.740066456479578
"1372",25,26,1,1,172,3,1,1,3,1.01056249380987,0.973002985451708
"1373",25,28,1,1,173,1,1,1,5,0.303535535686358,0.308272177682859
"1374",25,21,1,2,174,3,2,1,2,0.929957856058007,0.886234121308986
"1375",25,26,1,1,175,1,1,1,4,0.397182128443358,0.439022095039593
"1376",25,27,1,1,176,3,1,1,2,0.651356379920326,0.659907784754106
"1377",25,35,1,2,177,3,2,1,3,0.582962082200979,0.522294314851772
"1378",25,29,1,2,178,2,1,0,2,0.57835635412662,0.551578778496862
"1379",25,27,1,2,179,1,2,1,5,0.429507842165664,0.475592941649888
"1380",25,30,1,1,180,2,2,0,3,0.744037300543219,0.697921587620625
"1381",25,31,1,2,181,3,1,0,2,1.48070887892728,1.43013277725634
"1382",25,26,1,1,182,3,1,1,2,0.775010815858805,0.818995037161316
"1383",25,28,1,2,183,1,2,1,4,0.455460544094849,0.514533806054635
"1384",25,21,1,1,184,3,1,1,3,0.707980257926956,0.730463709651737
"1385",25,26,1,2,185,2,2,1,4,0.436482469566404,0.464040531867371
"1386",25,27,1,2,186,2,2,1,4,0.482481906536181,0.477494826757255
"1387",25,35,1,1,187,3,1,1,2,0.919337227547558,0.936912589613175
"1388",25,29,1,1,188,3,2,0,1,0.587253057298664,0.610214130649293
"1389",25,27,1,2,189,1,1,0,3,0.645426176872471,0.67664759058749
"1390",25,30,1,2,190,3,2,1,2,1.18635450563946,1.27622489066033
"1391",25,31,1,1,191,1,1,1,5,0.438193258179979,0.416001282022276
"1392",25,26,1,2,192,2,1,0,3,0.650250260587904,0.680718131982942
"1393",25,28,1,1,193,3,1,1,2,0.491546764134334,0.529032354006948
"1394",25,21,1,1,194,1,1,1,5,0.29519571619716,0.220196746604917
"1395",25,26,1,2,195,1,2,1,5,0.458318715317918,0.475649451747432
"1396",25,27,1,1,196,3,2,0,2,0.64083470713556,0.642363149985715
"1397",25,35,1,1,197,2,1,1,3,0.485240579420292,0.50863565923302
"1398",25,29,1,2,198,2,2,1,3,0.699156902873091,0.727362856865952
"1399",25,27,1,1,199,1,1,1,5,0.479534742021014,0.470399159030734
"1400",25,30,1,2,200,3,1,0,1,0.824836959962666,0.880994335275832
"1401",25,31,1,1,201,3,1,1,2,0.859438130169703,0.968073839496994
"1402",25,26,1,2,202,3,2,1,3,0.720445144717864,0.750971548713215
"1403",25,28,1,1,203,1,1,1,5,0.357486424295334,0.409494202800494
"1404",25,21,1,1,204,1,1,1,4,0.470947086036055,0.531818919445837
"1405",25,26,1,2,205,3,2,1,3,0.824765905747808,0.83385459681089
"1406",25,27,1,2,206,2,1,0,2,0.92648650517807,0.901977769405176
"1407",25,35,1,1,207,3,1,1,3,1.10359831176444,1.09294013121066
"1408",25,29,1,2,208,2,2,1,4,0.60308798217008,0.573145978632312
"1409",25,27,1,2,209,3,2,1,2,0.852454970235792,0.883172961604275
"1410",25,30,1,1,210,1,1,1,5,0.566837871390213,0.620988529153858
"1411",25,31,1,2,211,1,2,1,5,0.489869551327989,0.461288001763297
"1412",25,26,1,2,212,2,1,0,3,0.822967699216446,0.840063571842649
"1413",25,28,1,2,213,3,2,1,2,0.56949123880513,0.55562033375237
"1414",25,21,1,1,214,2,2,0,2,0.714084004632914,0.703257623048332
"1415",25,26,1,1,215,1,1,1,4,0.430081840420867,0.404199213888234
"1416",25,27,1,1,216,2,1,1,4,0.501979560305004,0.423769654019978
"1417",25,35,1,1,217,1,1,1,5,0.465565097554482,0.497386250082524
"1418",25,29,1,1,218,2,1,1,3,0.452660664429632,0.409148636160041
"1419",25,27,1,1,219,2,2,0,2,0.886735200285116,0.963268028684339
"1420",25,30,1,1,220,1,2,0,4,0.689280666847143,0.603782329063674
"1421",25,31,1,1,221,3,2,0,1,0.287271964787634,0.251393028062598
"1422",25,26,1,1,222,2,1,1,3,0.620239574374462,0.502655263695875
"1423",25,28,1,1,223,1,2,0,4,0.620304370096945,0.646847108069333
"1424",25,21,1,1,224,3,2,0,2,1.18882134641984,1.11763701699003
"1425",25,26,1,1,225,2,2,0,3,0.706439077719364,0.711228227659549
"1426",25,27,1,1,226,2,1,1,4,0.831882257270084,0.896908179893136
"1427",25,35,1,2,227,1,2,1,4,0.32020899685152,0.243104617030345
"1428",25,29,1,1,228,2,2,0,2,0.629965051236546,0.60779558965649
"1429",25,27,1,1,229,2,2,0,3,0.555513808026035,0.639615859334103
"1430",25,30,1,2,230,2,2,1,4,0.475829911094988,0.473158198112825
"1431",25,31,1,2,231,1,2,1,4,0.380964820090329,0.381185716506439
"1432",25,26,1,1,232,3,2,0,1,1.46026516413424,1.39585796142498
"1433",25,28,1,2,233,3,1,0,2,1.55581659865787,1.54838886510167
"1434",25,21,1,1,234,1,1,1,4,0.447701247981902,0.481127446214778
"1435",25,26,1,2,235,1,2,1,5,0.402050438910493,0.439355232869367
"1436",25,27,1,2,236,2,2,1,4,0.573114499498493,0.577140884419123
"1437",25,35,1,2,237,2,2,1,3,0.530334791109074,0.48888745349702
"1438",25,29,1,2,238,1,2,1,4,0.34302279178365,0.323762662844703
"1439",25,27,1,2,239,1,2,1,5,0.467808294010816,0.413866498824538
"1440",25,30,1,2,240,3,2,1,3,0.872528161075346,0.841275847666084
"1441",24,35,2,2,1,3,2,1,3,0.958276133201179,1.02691340268305
"1442",24,19,2,1,2,1,2,0,3,0.488198710740249,0.464633136168439
"1443",24,31,2,1,3,3,1,1,2,0.514728305360232,0.504621834995294
"1444",24,37,2,2,4,1,2,1,5,0.407667181405587,0.403241608973869
"1445",24,26,2,1,5,1,1,1,4,0.414818899957519,0.386016230301218
"1446",24,29,2,1,6,2,1,1,3,0.729353572439048,0.807430976495917
"1447",24,29,2,2,7,2,2,1,3,0.553767316439423,0.509370940991831
"1448",24,21,2,2,8,1,2,1,4,0.336144863794399,0.392082163066872
"1449",24,27,2,1,9,3,1,1,3,0.791080119508274,0.788765914356179
"1450",24,18,2,1,10,3,2,0,2,1.06748300919567,1.16779526516878
"1451",24,35,2,1,11,3,2,0,1,1.5901727965242,1.6777932464556
"1452",24,19,2,2,12,2,2,1,3,0.759178515992319,0.750145991652302
"1453",24,31,2,2,13,1,2,1,4,0.363812771495956,0.274110547158077
"1454",24,37,2,2,14,1,1,0,3,0.560436733338382,0.483283727757429
"1455",24,26,2,2,15,2,1,0,2,0.711210949487094,0.642048421427802
"1456",24,29,2,2,16,3,2,1,2,0.713601366089005,0.665208282752241
"1457",24,29,2,2,17,3,1,0,2,1.34000944472361,1.28056193294601
"1458",24,21,2,1,18,3,2,0,2,0.588598414882229,0.580350463111105
"1459",24,27,2,2,19,1,2,1,5,0.448591924872706,0.43735964639237
"1460",24,18,2,1,20,2,2,0,3,0.672851410294554,0.719662395521044
"1461",24,35,2,1,21,2,2,0,2,0.829508760452288,0.818391326437367
"1462",24,19,2,1,22,3,2,0,1,0.98236962442517,1.00170728435939
"1463",24,31,2,1,23,3,1,1,2,0.545428466406285,0.522966106374845
"1464",24,37,2,2,24,1,2,1,5,0.348335291767228,0.43874398809096
"1465",24,26,2,2,25,1,2,1,5,0.446865492579081,0.432397899088711
"1466",24,29,2,1,26,2,1,1,3,0.642446802313359,0.61425333661475
"1467",24,29,2,1,27,3,2,0,2,1.64132860933973,1.58536997856126
"1468",24,21,2,2,28,2,1,0,2,0.855803671662049,0.842168948825265
"1469",24,27,2,2,29,2,2,1,3,0.803517142593732,0.896797259508732
"1470",24,18,2,1,30,1,1,1,5,0.44917804327806,0.415249293472097
"1471",24,35,2,1,31,3,1,1,3,0.365980692213544,0.425337234575143
"1472",24,19,2,1,32,3,1,1,2,0.926945552096229,0.940782789742779
"1473",24,31,2,2,33,1,2,1,4,0.408683976311549,0.449244870157429
"1474",24,37,2,1,34,3,2,0,1,0.712756093293213,0.700081988221183
"1475",24,26,2,2,35,1,2,1,4,0.321537328324045,0.2921231672653
"1476",24,29,2,1,36,2,1,1,4,0.512751234379294,0.484728667701809
"1477",24,29,2,1,37,1,1,1,5,0.403649160565428,0.518721499515712
"1478",24,21,2,2,38,2,2,1,4,0.420257080102043,0.435907698175539
"1479",24,27,2,2,39,1,2,1,5,0.435681140462703,0.485513157312485
"1480",24,18,2,2,40,2,2,1,4,0.526783932633223,0.508101089773302
"1481",24,35,2,1,41,1,1,1,5,0.450505024697492,0.410327415337564
"1482",24,19,2,2,42,1,2,1,4,0.261064413958543,0.319304793425084
"1483",24,31,2,2,43,2,1,0,3,0.733279146007851,0.69035031543003
"1484",24,37,2,1,44,1,2,0,4,0.499241390835475,0.473160249235062
"1485",24,26,2,2,45,3,2,1,2,0.921380939824698,0.926919207413539
"1486",24,29,2,1,46,3,1,1,3,0.531758958681774,0.501887368920283
"1487",24,29,2,1,47,3,2,0,2,0.382737621584257,0.321984101295418
"1488",24,21,2,1,48,1,1,1,4,0.260635057358052,0.188086459670204
"1489",24,27,2,1,49,3,2,0,1,0.82788419347674,0.866140462545207
"1490",24,18,2,2,50,2,1,0,2,0.504672295391817,0.464027282224314
"1491",24,35,2,1,51,3,1,1,2,1.04768076036531,1.10793137352747
"1492",24,19,2,2,52,1,2,1,5,0.425264651108038,0.369290658538313
"1493",24,31,2,2,53,2,1,0,2,0.638291683431518,0.590154208742894
"1494",24,37,2,2,54,1,2,1,4,0.40821697025612,0.378307831432649
"1495",24,26,2,2,55,2,1,0,2,0.791352846356739,0.799949523230971
"1496",24,29,2,1,56,3,1,1,3,0.954442367099691,0.969825831895375
"1497",24,29,2,1,57,1,2,0,3,0.425181337978963,0.408161707357439
"1498",24,21,2,1,58,1,1,1,4,0.409552995189006,0.396942340951723
"1499",24,27,2,1,59,2,1,1,3,0.441725526330564,0.417566080480167
"1500",24,18,2,1,60,3,2,0,2,0.384229925880944,0.340796250873589
"1501",24,35,2,2,61,3,1,0,1,1.22747123794057,1.28751039610895
"1502",24,19,2,1,62,3,1,1,3,1.27451226592245,1.23005911741911
"1503",24,31,2,1,63,2,1,1,4,0.66114812111072,0.732432032980098
"1504",24,37,2,2,64,1,2,1,4,0.388803333847535,0.374291327054586
"1505",24,26,2,2,65,1,2,1,4,0.360669152550665,0.35519958306544
"1506",24,29,2,2,66,1,2,1,5,0.373192995370357,0.379692716313989
"1507",24,29,2,2,67,1,1,0,3,0.572943700675576,0.637090731608046
"1508",24,21,2,1,68,1,1,1,4,0.449410508345964,0.398944942630101
"1509",24,27,2,1,69,3,1,1,3,0.730849231810496,0.766867799025006
"1510",24,18,2,2,70,3,2,1,2,0.693686000979097,0.830008729096181
"1511",24,35,2,1,71,2,2,0,3,0.724150503746356,0.735695676048301
"1512",24,19,2,1,72,2,1,1,4,0.654451196782753,0.680668504912697
"1513",24,31,2,2,73,1,2,1,5,0.430689534185605,0.359945507009979
"1514",24,37,2,2,74,3,2,1,2,0.95964505695222,0.927575429283402
"1515",24,26,2,1,75,3,1,1,2,0.94662926581329,0.951217848550524
"1516",24,29,2,1,76,2,2,0,2,0.388828418025859,0.384574002440081
"1517",24,29,2,2,77,2,2,1,3,0.87023604499299,0.894349405804496
"1518",24,21,2,1,78,1,1,1,5,0.413027535418333,0.418934905259357
"1519",24,27,2,1,79,1,1,1,4,0.427542020354029,0.429066986297092
"1520",24,18,2,1,80,3,1,1,3,0.758753743982896,0.701313884026957
"1521",24,35,2,2,81,2,2,1,3,0.829019353104957,0.790161969500426
"1522",24,19,2,1,82,3,1,1,3,1.0501615922033,1.05318220504229
"1523",24,31,2,2,83,3,2,1,3,1.183504600583,1.1288862443378
"1524",24,37,2,1,84,2,2,0,2,0.457218759610208,0.428190218510265
"1525",24,26,2,1,85,3,1,1,2,0.701952018880335,0.774188355806463
"1526",24,29,2,1,86,1,1,1,4,0.466706442543658,0.515518957875322
"1527",24,29,2,2,87,2,2,1,3,0.700972831234425,0.698464211052192
"1528",24,21,2,2,88,2,2,1,3,0.552908005151073,0.529535670253619
"1529",24,27,2,2,89,1,2,1,4,0.393057531070867,0.432827388957617
"1530",24,18,2,1,90,2,2,0,2,0.535531508603414,0.501159423796862
"1531",24,35,2,2,91,1,2,1,4,0.358910688879797,0.38609061939764
"1532",24,19,2,2,92,1,2,1,4,0.528563064447155,0.553395782353556
"1533",24,31,2,2,93,3,1,0,1,1.20830982699058,1.23419499864414
"1534",24,37,2,2,94,1,2,1,4,0.440653908142,0.360974786939437
"1535",24,26,2,1,95,1,1,1,4,0.397321303641628,0.284299332347195
"1536",24,29,2,2,96,3,1,0,2,1.19534114792412,1.24832911961436
"1537",24,29,2,1,97,3,1,1,2,0.979821237756924,0.853608521937101
"1538",24,21,2,1,98,1,1,1,4,0.364212730087787,0.42607801823564
"1539",24,27,2,2,99,1,1,0,3,0.554184734214856,0.574062260474255
"1540",24,18,2,2,100,2,2,1,3,0.387067254196896,0.376760557507729
"1541",24,35,2,2,101,3,2,1,2,0.576256037490362,0.516668757928393
"1542",24,19,2,2,102,2,1,0,3,0.91198228883753,0.94194750977516
"1543",24,31,2,2,103,3,2,1,2,0.637673853637645,0.58690040341136
"1544",24,37,2,2,104,2,1,0,2,0.714146509136133,0.713196780250332
"1545",24,26,2,2,105,1,2,1,4,0.352023514855545,0.330745863929336
"1546",24,29,2,2,106,3,1,0,2,0.804171725698226,0.885602449408507
"1547",24,29,2,2,107,2,2,1,3,0.493445451149265,0.571467245892008
"1548",24,21,2,2,108,3,1,0,2,0.597390904577822,0.5270138661633
"1549",24,27,2,1,109,2,2,0,2,0.806573735652791,0.807101111613729
"1550",24,18,2,2,110,1,2,1,4,0.314384492257463,0.258947947615237
"1551",24,35,2,2,111,3,2,1,2,0.936609109830183,0.99568754161035
"1552",24,19,2,1,112,1,1,1,4,0.599345955383635,0.656026044117922
"1553",24,31,2,2,113,1,2,1,4,0.501226662878477,0.570168529386527
"1554",24,37,2,2,114,3,1,0,2,0.811846120706649,0.902490276670278
"1555",24,26,2,2,115,2,1,0,2,0.645292523764508,0.714373713990583
"1556",24,29,2,1,116,1,2,0,3,0.561541115247963,0.633356964924255
"1557",24,29,2,1,117,2,2,0,2,0.624731732382831,0.618076514383909
"1558",24,21,2,1,118,2,1,1,4,0.401187641885226,0.323342215122747
"1559",24,27,2,1,119,3,2,0,1,1.08508911057105,1.01809806016455
"1560",24,18,2,2,120,3,1,0,1,0.58923875013878,0.600341530191149
"1561",24,35,2,2,121,3,1,0,1,0.873999396853663,0.844533526158715
"1562",24,19,2,1,122,2,2,0,3,0.894198950138154,0.814910093846801
"1563",24,31,2,1,123,1,1,1,4,0.344307093984743,0.293022789468366
"1564",24,37,2,1,124,1,1,1,5,0.28595149141892,0.296457252876646
"1565",24,26,2,2,125,3,1,0,1,1.0426692563468,1.03166691765843
"1566",24,29,2,2,126,2,2,1,4,0.418864255934788,0.451653869057942
"1567",24,29,2,2,127,3,2,1,2,1.16014936996638,1.24185919669005
"1568",24,21,2,1,128,3,2,0,1,1.29994707472654,1.32540400436053
"1569",24,27,2,2,129,3,2,1,2,0.779171729255797,0.723150498118199
"1570",24,18,2,1,130,2,1,1,3,0.557785924280651,0.540969071090108
"1571",24,35,2,2,131,3,2,1,3,0.947984041355437,0.895905424906249
"1572",24,19,2,1,132,2,1,1,4,0.635690020867472,0.64219513798103
"1573",24,31,2,2,133,3,2,1,3,0.665305501342542,0.715358211928987
"1574",24,37,2,1,134,1,1,1,5,0.395201370648371,0.41859119953846
"1575",24,26,2,1,135,2,1,1,4,0.624769140398397,0.560657808144925
"1576",24,29,2,1,136,2,2,0,3,0.695223357319822,0.732812032169569
