"","subj_no","age","group","stim","trial","difficulty","resp","corr","conf","RT_day1","RT_day2"
"1",31,39,1,2,1,3,2,1,3,0.734032078295408,0.78859732504759
"2",31,26,1,2,2,2,2,1,3,0.64518094585079,0.683939697791429
"3",31,23,1,1,3,3,2,0,2,0.414336397395788,0.455272228264392
"4",31,36,1,2,4,2,1,0,3,0.776136708001013,0.802809491713808
"5",31,21,1,2,5,1,2,1,4,0.325761671070819,0.286145812773504
"6",31,32,1,1,6,3,1,1,2,0.718463051493144,0.742301337925235
"7",31,23,1,2,7,2,1,0,3,0.607800185125614,0.551861818181212
"8",31,33,1,2,8,3,1,0,2,0.95272446081145,1.00000528470994
"9",31,40,1,1,9,3,2,0,1,0.597461668879963,0.596102577071105
"10",31,39,1,1,10,2,2,0,2,0.747918366265061,0.764835694524399
"11",31,39,1,1,11,2,1,1,3,0.632654778962496,0.645525829115783
"12",31,26,1,1,12,1,2,0,3,0.667123306150326,0.603923453740858
"13",31,23,1,1,13,1,1,1,5,0.477844393202148,0.554976306686074
"14",31,36,1,1,14,3,1,1,3,0.499012569898777,0.541562684165141
"15",31,21,1,1,15,2,1,1,4,0.521336487821888,0.492585337986524
"16",31,32,1,2,16,2,1,0,3,0.826706246777782,0.835920684418853
"17",31,23,1,2,17,1,2,1,4,0.282838168706281,0.253553433498488
"18",31,33,1,1,18,2,1,1,4,0.499745463382283,0.38572279659366
"19",31,40,1,2,19,2,1,0,2,0.412909230035054,0.373458214756741
"20",31,39,1,1,20,2,2,0,2,0.692184449382722,0.629974326434326
"21",31,39,1,2,21,2,2,1,3,0.715272940315468,0.745744496197196
"22",31,26,1,2,22,3,2,1,3,0.829745668198691,0.84785769583877
"23",31,23,1,1,23,2,1,1,4,0.562422652487518,0.551013806131423
"24",31,36,1,2,24,1,2,1,5,0.287474813672928,0.301612037784526
"25",31,21,1,2,25,2,2,1,3,0.574481103404767,0.607609429682204
"26",31,32,1,1,26,2,1,1,3,0.678531076524962,0.681171405859677
"27",31,23,1,2,27,3,2,1,3,0.983972921340366,0.912385990923526
"28",31,33,1,2,28,2,2,1,4,0.603081503254746,0.698421899193047
"29",31,40,1,2,29,2,2,1,4,0.723833415206417,0.707503542223957
"30",31,39,1,2,30,1,1,0,3,0.422171297180964,0.455978221614154
"31",31,39,1,2,31,2,1,0,3,0.895569676219101,0.792139177953022
"32",31,26,1,2,32,1,1,0,3,0.416488466746172,0.484069568600514
"33",31,23,1,2,33,1,2,1,4,0.428908562963644,0.315369218969458
"34",31,36,1,2,34,3,2,1,2,0.714044692273725,0.767314898634189
"35",31,21,1,2,35,1,2,1,5,0.254877798270855,0.195419128742556
"36",31,32,1,2,36,1,2,1,5,0.360105112235961,0.358014243930946
"37",31,23,1,1,37,1,1,1,4,0.347560992676892,0.426449230847055
"38",31,33,1,2,38,2,1,0,3,0.651538388798656,0.668392125313254
"39",31,40,1,1,39,3,1,1,3,0.959514765432949,0.943881970967719
"40",31,39,1,2,40,3,1,0,1,1.19359045070066,1.16470129113249
"41",31,39,1,2,41,3,2,1,3,0.923838250257583,0.913826954492158
"42",31,26,1,1,42,3,2,0,2,1.05506202500154,1.04064065740472
"43",31,23,1,1,43,3,1,1,2,0.651689766109253,0.616254258006735
"44",31,36,1,1,44,3,2,0,1,0.770865063470316,0.660461494337635
"45",31,21,1,2,45,2,2,1,3,0.736866928975754,0.744155676840942
"46",31,32,1,2,46,2,1,0,2,0.835923580016314,0.834944217506877
"47",31,23,1,1,47,2,2,0,2,0.858450792437932,0.913248783708919
"48",31,33,1,2,48,2,2,1,3,0.802995052992301,0.862662654589459
"49",31,40,1,2,49,3,1,0,1,1.45722166712193,1.35105638248261
"50",31,39,1,1,50,2,2,0,2,0.333928467734978,0.325673637421456
"51",31,39,1,2,51,2,1,0,3,0.710642353987301,0.742534490769931
"52",31,26,1,1,52,2,2,0,3,0.629822850124485,0.592922664154665
"53",31,23,1,1,53,3,1,1,3,0.675212110163516,0.69085399183319
"54",31,36,1,2,54,3,2,1,2,1.00659917166499,1.06414509663386
"55",31,21,1,1,55,1,1,1,4,0.486091301541862,0.494102708698742
"56",31,32,1,2,56,1,2,1,4,0.404056459080727,0.505524722775134
"57",31,23,1,1,57,2,2,0,3,0.906316598908667,0.839909999127363
"58",31,33,1,1,58,1,1,1,4,0.417999308942044,0.424704091183423
"59",31,40,1,2,59,2,1,0,3,0.6333562354179,0.656805544273498
"60",31,39,1,2,60,2,1,0,3,0.689968380271365,0.653637616345907
"61",31,39,1,1,61,1,1,1,4,0.50489758485904,0.586073315128622
"62",31,26,1,1,62,3,2,0,1,1.93507120044802,1.99333475932593
"63",31,23,1,2,63,3,2,1,3,1.1308624667291,1.21464464582409
"64",31,36,1,1,64,3,2,0,1,0.31854065295852,0.375862002972804
"65",31,21,1,2,65,3,2,1,2,1.25403519460788,1.25227921341269
"66",31,32,1,2,66,1,2,1,5,0.216708769920172,0.174798766694713
"67",31,23,1,2,67,1,2,1,4,0.413296024625814,0.392156736945639
"68",31,33,1,2,68,3,1,0,1,0.909575539068679,0.914095238233458
"69",31,40,1,2,69,1,2,1,5,0.436275725361167,0.424301875821824
"70",31,39,1,1,70,3,1,1,2,0.951517575233841,1.06371708726836
"71",31,39,1,1,71,3,1,1,3,1.14404992857948,1.17517795413759
"72",31,26,1,1,72,3,2,0,1,1.31870129366503,1.24733697667293
"73",31,23,1,2,73,1,2,1,5,0.224050356715911,0.217309274994487
"74",31,36,1,2,74,1,2,1,4,0.418140681188888,0.479021409544918
"75",31,21,1,2,75,2,2,1,4,0.558305754257795,0.614279214474822
"76",31,32,1,2,76,1,1,0,3,0.459590223245826,0.472330153086472
"77",31,23,1,1,77,3,2,0,1,1.32024664175444,1.33376426216017
"78",31,33,1,1,78,2,2,0,3,0.782666155653875,0.752350964676468
"79",31,40,1,1,79,1,1,1,5,0.302418917647681,0.344080202290001
"80",31,39,1,1,80,3,1,1,3,0.690083937140958,0.701831682066106
"81",31,39,1,2,81,3,1,0,2,0.629438562259986,0.658906841173834
"82",31,26,1,2,82,3,2,1,3,1.08682211741476,1.11536086610756
"83",31,23,1,2,83,2,1,0,2,0.867446231192671,0.833212337413258
"84",31,36,1,1,84,3,1,1,2,0.87449985243888,0.861264614942168
"85",31,21,1,1,85,2,2,0,2,0.674621537346175,0.787113685136636
"86",31,32,1,1,86,3,1,1,2,0.462035800421989,0.420815884127032
"87",31,23,1,2,87,2,1,0,2,0.589886359645608,0.505706651270283
"88",31,33,1,1,88,1,1,1,4,0.378741383518719,0.390770605305252
"89",31,40,1,1,89,1,1,1,4,0.381220684259627,0.401142078568087
"90",31,39,1,1,90,3,2,0,2,0.709038893494445,0.684586775931388
"91",31,39,1,2,91,2,1,0,2,0.652237986895949,0.652969831548823
"92",31,26,1,2,92,1,2,1,5,0.558380044242869,0.496516637860833
"93",31,23,1,1,93,2,2,0,2,0.8656041213634,0.857393336172836
"94",31,36,1,2,94,1,2,1,4,0.41868173541113,0.46202938115509
"95",31,21,1,1,95,2,1,1,4,0.430274049555388,0.416113706203369
"96",31,32,1,1,96,2,2,0,3,0.748102528503339,0.675791400296732
"97",31,23,1,1,97,3,2,0,2,1.08620152301392,1.11169076398366
"98",31,33,1,2,98,2,1,0,3,0.859389146085797,0.865442519417146
"99",31,40,1,1,99,2,2,0,2,0.901327566169302,0.959050399648931
"100",31,39,1,2,100,1,1,0,4,0.616595455531917,0.580313278924118
"101",31,39,1,1,101,1,1,1,5,0.327915906268688,0.378040213361449
"102",31,26,1,2,102,2,1,0,2,0.664228428875963,0.666615023098953
"103",31,23,1,2,103,1,2,1,5,0.41081679026118,0.457537392603913
"104",31,36,1,2,104,1,2,1,4,0.368278342263116,0.40969099135131
"105",31,21,1,2,105,1,2,1,5,0.519574825579279,0.507390514476487
"106",31,32,1,1,106,3,1,1,3,0.937614768875032,1.01831174789127
"107",31,23,1,2,107,2,1,0,3,0.720745225089143,0.742458887437524
"108",31,33,1,1,108,3,1,1,2,0.619219343289485,0.524717155252545
"109",31,40,1,2,109,1,2,1,4,0.439201643927862,0.576220348842104
"110",31,39,1,1,110,3,2,0,2,0.402988595946646,0.389420212276414
"111",31,39,1,1,111,1,1,1,5,0.494569553375992,0.533627754205556
"112",31,26,1,1,112,1,2,0,4,0.429557336165697,0.29704672356844
"113",31,23,1,2,113,1,2,1,5,0.388330157800848,0.270734121764291
"114",31,36,1,1,114,2,2,0,2,0.794933647740859,0.773066989340158
"115",31,21,1,1,115,3,1,1,2,0.900775986185655,0.912143362145909
"116",31,32,1,1,116,1,2,0,4,0.562299837158296,0.546719357299457
"117",31,23,1,1,117,2,2,0,2,0.777206167778483,0.753687312531015
"118",31,33,1,1,118,1,1,1,4,0.153505244361831,0.25403036041857
"119",31,40,1,1,119,1,1,1,5,0.604999801941298,0.609934491904394
"120",31,39,1,1,120,1,1,1,4,0.447699802437164,0.417913367968694
"121",31,39,1,2,121,3,1,0,1,0.821336749415729,0.817316615658334
"122",31,26,1,2,122,3,1,0,1,1.11965037098826,1.14193893375679
"123",31,23,1,2,123,1,2,1,4,0.335812950746587,0.275194928891112
"124",31,36,1,1,124,1,1,1,5,0.356341175819181,0.276654831879889
"125",31,21,1,1,125,3,2,0,1,1.32381094561765,1.40349048579295
"126",31,32,1,2,126,2,1,0,2,0.561482835403112,0.532902199396563
"127",31,23,1,1,127,1,1,1,5,0.451781188438161,0.431951695323178
"128",31,33,1,2,128,3,2,1,2,0.817772367959838,0.870788704301624
"129",31,40,1,1,129,1,1,1,5,0.227981095487413,0.228400534399354
"130",31,39,1,1,130,3,2,0,2,1.32112646312815,1.37389883138207
"131",31,39,1,1,131,3,1,1,3,0.761306328462385,0.765964695841488
"132",31,26,1,2,132,3,1,0,2,1.0632809761058,1.09214570654614
"133",31,23,1,2,133,1,2,1,5,0.23869431689917,0.265869212696509
"134",31,36,1,2,134,2,1,0,3,0.874773116704434,0.916285251313067
"135",31,21,1,2,135,2,2,1,4,0.550899426399354,0.603271365926952
"136",31,32,1,1,136,1,1,1,4,0.404235838517357,0.394669051812455
"137",31,23,1,1,137,1,1,1,4,0.239031726099919,0.259857457573975
"138",31,33,1,2,138,1,1,0,4,0.499909140156346,0.436692186389093
"139",31,40,1,1,139,3,2,0,2,0.917537044009661,0.93624305380183
"140",31,39,1,1,140,2,1,1,4,0.598086301786254,0.582099221384336
"141",31,39,1,1,141,2,2,0,3,0.642299899429402,0.661360475705509
"142",31,26,1,1,142,2,2,0,3,0.8180418841086,0.854996247483519
"143",31,23,1,2,143,2,2,1,3,0.539436411025041,0.584039042067254
"144",31,36,1,2,144,2,1,0,2,0.8769175324086,0.786348846852043
"145",31,21,1,2,145,2,1,0,3,0.843081861094626,0.750863743231429
"146",31,32,1,2,146,1,2,1,4,0.35805701820845,0.369973989746283
"147",31,23,1,1,147,3,1,1,2,0.724153349693243,0.802672842393035
"148",31,33,1,2,148,3,2,1,2,0.965803082535713,0.967475933173147
"149",31,40,1,2,149,3,1,0,1,0.963343026397482,0.923190716022473
"150",31,39,1,1,150,3,2,0,1,0.893692659302299,0.948216616356068
"151",31,39,1,2,151,2,1,0,2,0.610546442269559,0.616209506751444
"152",31,26,1,2,152,2,1,0,2,0.490684363931611,0.481002882141509
"153",31,23,1,2,153,2,2,1,3,0.653432694582093,0.684604100204126
"154",31,36,1,1,154,2,1,1,4,0.559057475558448,0.485662721060448
"155",31,21,1,1,155,3,1,1,2,0.774281452307584,0.73803211499207
"156",31,32,1,2,156,1,2,1,5,0.433748383199507,0.407678368771361
"157",31,23,1,2,157,1,2,1,5,0.444918554434946,0.463207853438725
"158",31,33,1,1,158,2,2,0,2,0.701252977280841,0.711076851506183
"159",31,40,1,2,159,3,2,1,2,0.573921217177237,0.628600971641108
"160",31,39,1,1,160,2,1,1,4,0.666030077911418,0.636229946327911
"161",31,39,1,1,161,3,1,1,3,0.977738606974924,0.982275506864893
"162",31,26,1,1,162,1,1,1,4,0.428157984628052,0.450441784827498
"163",31,23,1,1,163,1,1,1,5,0.423456259578962,0.534997094473603
"164",31,36,1,1,164,1,1,1,5,0.416667540885447,0.39419744588754
"165",31,21,1,2,165,2,2,1,4,0.614579556171519,0.681288470347953
"166",31,32,1,1,166,1,1,1,4,0.337291350952985,0.356249211744786
"167",31,23,1,1,167,1,1,1,5,0.376990609894456,0.42445590740656
"168",31,33,1,1,168,3,1,1,2,0.543954535501463,0.550605703598984
"169",31,40,1,1,169,3,1,1,3,0.995444641336949,1.0224390225652
"170",31,39,1,2,170,3,1,0,2,1.16998107690175,1.12453641755638
"171",31,39,1,2,171,1,1,0,4,0.648969532402478,0.523402822748776
"172",31,26,1,1,172,3,1,1,3,0.462539132988461,0.386921573804915
"173",31,23,1,1,173,1,1,1,4,0.331302861488874,0.340412674936204
"174",31,36,1,2,174,2,2,1,4,0.562405138565129,0.548485070320453
"175",31,21,1,2,175,1,2,1,4,0.333264201346561,0.380030034364562
"176",31,32,1,1,176,3,2,0,2,0.718132250237826,0.733657852976457
"177",31,23,1,2,177,2,1,0,3,0.804257695591346,0.769666335712724
"178",31,33,1,1,178,2,2,0,3,0.655086625500217,0.684364131452522
"179",31,40,1,1,179,1,2,0,3,0.370126213670316,0.412019455903802
"180",31,39,1,2,180,2,1,0,2,0.820221735324043,0.81252330722192
"181",31,39,1,1,181,1,1,1,4,0.262735407294395,0.308883930729435
"182",31,26,1,2,182,1,2,1,4,0.284642065077952,0.188046399527471
"183",31,23,1,2,183,3,1,0,1,1.23974630056173,1.2492176993633
"184",31,36,1,1,184,2,1,1,3,0.486939629062881,0.561578777749348
"185",31,21,1,1,185,1,1,1,5,0.455591002540754,0.492723435682763
"186",31,32,1,2,186,1,2,1,4,0.348985192841774,0.329791407180961
"187",31,23,1,2,187,3,1,0,1,0.686199598644415,0.731441449713343
"188",31,33,1,1,188,2,1,1,4,0.48032566889748,0.525110880305156
"189",31,40,1,1,189,3,2,0,2,0.626578145091143,0.639890885277117
"190",31,39,1,1,190,1,2,0,3,0.446281600858442,0.417044304149257
"191",31,39,1,1,191,3,2,0,2,0.955459036530006,1.01333382925917
"192",31,26,1,2,192,1,2,1,4,0.394647145656911,0.417781339377396
"193",31,23,1,2,193,3,1,0,2,0.776444562804023,0.751795787215389
"194",31,36,1,1,194,3,2,0,2,1.26002952545691,1.22571980445585
"195",31,21,1,2,195,1,2,1,5,0.479071123866664,0.437815733533677
"196",31,32,1,1,196,1,2,0,4,0.45221149301371,0.439133201918358
"197",31,23,1,1,197,1,1,1,5,0.333963739591146,0.369371452448125
"198",31,33,1,2,198,1,2,1,4,0.47606907920322,0.464296362308123
"199",31,40,1,2,199,1,2,1,5,0.291112912404434,0.314981319729849
"200",31,39,1,1,200,1,2,0,4,0.498273031280803,0.563660391841247
"201",31,39,1,2,201,3,1,0,1,0.516155640569589,0.514529624683656
"202",31,26,1,1,202,1,1,1,4,0.472447916381614,0.493144684538711
"203",31,23,1,1,203,2,2,0,3,0.744747705242744,0.755613361131147
"204",31,36,1,2,204,2,2,1,4,0.705182340625006,0.747106154801967
"205",31,21,1,2,205,2,2,1,4,0.746241592585556,0.71544609993289
"206",31,32,1,1,206,2,2,0,3,0.951592907028505,0.942081138148577
"207",31,23,1,1,207,3,2,0,1,1.08246456729327,1.06472119495492
"208",31,33,1,2,208,3,2,1,2,0.111280259848902,0.149804018461648
"209",31,40,1,1,209,2,1,1,4,0.575626863255834,0.540078267201136
"210",31,39,1,2,210,3,2,1,3,0.698826787593481,0.72055619069181
"211",31,39,1,1,211,3,2,0,2,0.576826797207359,0.623250099687565
"212",31,26,1,2,212,1,1,0,4,0.495986586907067,0.552633157781378
"213",31,23,1,2,213,3,2,1,3,1.00726858639389,0.95974208094211
"214",31,36,1,2,214,3,1,0,1,1.24247367912291,1.29145210244299
"215",31,21,1,2,215,2,1,0,3,0.711019884261413,0.646802736910976
"216",31,32,1,2,216,2,2,1,3,0.542900391136242,0.55197703003798
"217",31,23,1,1,217,1,1,1,4,0.211306620872656,0.292738532152649
"218",31,33,1,1,218,3,1,1,2,1.13395721787659,1.12368651097536
"219",31,40,1,2,219,3,1,0,2,0.718435210256801,0.686464018446402
"220",31,39,1,1,220,3,1,1,3,0.728284909389658,0.737245952036429
"221",31,39,1,1,221,2,2,0,3,0.401696623517265,0.435109184238597
"222",31,26,1,2,222,2,1,0,3,0.684482261207969,0.577829231187302
"223",31,23,1,1,223,3,2,0,1,1.0779709016561,1.0843167439805
"224",31,36,1,1,224,1,1,1,4,0.306571528507474,0.364075302312358
"225",31,21,1,2,225,1,2,1,4,0.442969702751011,0.424146611855051
"226",31,32,1,2,226,3,1,0,2,0.741968701079607,0.717420419121508
"227",31,23,1,1,227,1,1,1,5,0.532887062370023,0.44071144764374
"228",31,33,1,2,228,2,1,0,2,0.898332630734967,0.906234398073821
"229",31,40,1,2,229,1,2,1,5,0.562274177177982,0.564274603068788
"230",31,39,1,2,230,3,1,0,1,1.03188365741958,1.03154923403827
"231",31,39,1,1,231,3,1,1,3,0.957567142817633,0.959731038008573
"232",31,26,1,1,232,2,1,1,3,0.678173693607231,0.738659439198852
"233",31,23,1,2,233,2,2,1,3,0.732467075239394,0.723618130753811
"234",31,36,1,2,234,2,2,1,4,0.645904180933872,0.571364950581892
"235",31,21,1,2,235,2,1,0,3,0.821195167769943,0.823567896955196
"236",31,32,1,1,236,2,1,1,3,0.607001537646458,0.577199850053765
"237",31,23,1,1,237,3,2,0,2,0.767508205338557,0.687229319533066
"238",31,33,1,2,238,1,1,0,3,0.348424254767741,0.285153659037033
"239",31,40,1,1,239,3,1,1,2,0.70404829863511,0.719235521611013
"240",31,39,1,1,240,1,1,1,4,0.298061376091442,0.307365595259592
"241",30,33,2,1,1,2,2,0,2,0.727858766188425,0.761275605921261
"242",30,34,2,1,2,3,2,0,2,1.48397929116957,1.50585086637306
"243",30,27,2,2,3,1,2,1,5,0.523575857031506,0.477948649077708
"244",30,20,2,2,4,3,1,0,1,1.26504795580157,1.27914098660242
"245",30,18,2,2,5,3,1,0,1,1.70212307089747,1.6355243753274
"246",30,18,2,2,6,2,2,1,3,0.630659920614686,0.729145270781512
"247",30,37,2,1,7,1,1,1,4,0.268960215624396,0.1387770314374
"248",30,28,2,2,8,1,2,1,5,0.478085675113666,0.413926137522448
"249",30,26,2,2,9,1,2,1,5,0.326910135781256,0.366737657767244
"250",30,21,2,1,10,3,1,1,2,0.759800329153404,0.718775580630754
"251",30,33,2,1,11,1,1,1,4,0.360050442094358,0.191054138105676
"252",30,34,2,1,12,1,1,1,4,0.347035900607325,0.425631747327213
"253",30,27,2,2,13,1,2,1,4,0.32410887814543,0.291858701342158
"254",30,20,2,2,14,1,2,1,5,0.252007812257521,0.199197407473179
"255",30,18,2,2,15,1,2,1,4,0.470894486853069,0.519560318997932
"256",30,18,2,2,16,2,1,0,3,0.707336624464473,0.665355560051531
"257",30,37,2,1,17,3,1,1,2,1.00042274324816,1.02369281313092
"258",30,28,2,1,18,2,1,1,4,0.612341167954418,0.608522989208855
"259",30,26,2,2,19,1,2,1,5,0.405362245189961,0.458937245624103
"260",30,21,2,2,20,2,2,1,4,0.781084449309112,0.794340166351435
"261",30,33,2,1,21,3,1,1,2,0.888221012518438,0.877860277921932
"262",30,34,2,1,22,2,2,0,2,0.855282696081123,0.862284580881085
"263",30,27,2,1,23,1,1,1,5,0.361332230269072,0.335373823053151
"264",30,20,2,1,24,3,2,0,2,1.04591287541593,1.06947942362252
"265",30,18,2,1,25,2,1,1,3,0.83499328056424,0.832716328673495
"266",30,18,2,2,26,3,1,0,2,1.08984137599612,0.992700685404726
"267",30,37,2,2,27,2,1,0,3,0.603145512583453,0.556437076504927
"268",30,28,2,2,28,1,2,1,5,0.300422705792418,0.292009151409761
"269",30,26,2,2,29,2,1,0,2,0.650002997284921,0.680153463461004
"270",30,21,2,2,30,1,2,1,4,0.314757975338155,0.378194942126842
"271",30,33,2,2,31,1,2,1,4,0.465330858763247,0.462942165904599
"272",30,34,2,2,32,3,2,1,3,0.874807317768356,0.789465906803686
"273",30,27,2,1,33,3,2,0,2,1.24127693132033,1.26138419519787
"274",30,20,2,1,34,2,2,0,3,0.528149303746894,0.516486737894061
"275",30,18,2,2,35,2,2,1,4,0.73316523742862,0.748024939071181
"276",30,18,2,2,36,1,2,1,5,0.451379464459355,0.431371553563354
"277",30,37,2,1,37,3,1,1,3,0.80844654174609,0.778227471495374
"278",30,28,2,1,38,1,1,1,4,0.410315249361329,0.362525327982417
"279",30,26,2,2,39,2,1,0,2,0.615845509172086,0.594187783877099
"280",30,21,2,2,40,2,1,0,2,0.96634446628685,1.00375013275243
"281",30,33,2,1,41,2,1,1,3,0.839361732686242,0.910860305282014
"282",30,34,2,1,42,3,1,1,3,0.980147786325011,0.998448898684731
"283",30,27,2,1,43,1,1,1,4,0.478871481839813,0.483522690804471
"284",30,20,2,1,44,3,2,0,1,0.994049786487619,0.934514002362543
"285",30,18,2,1,45,3,2,0,2,0.992836335213123,1.00961724167239
"286",30,18,2,1,46,2,1,1,3,0.701548349486478,0.630917245601956
"287",30,37,2,2,47,3,1,0,2,1.14994961127324,1.12780830980663
"288",30,28,2,1,48,2,2,0,2,0.621025776901127,0.512991884459901
"289",30,26,2,1,49,2,1,1,4,0.511604137724059,0.480364428039718
"290",30,21,2,2,50,2,1,0,3,0.668298685518681,0.674140953490527
"291",30,33,2,1,51,1,1,1,5,0.372196941644749,0.432914348193998
"292",30,34,2,2,52,2,2,1,4,0.525383390429834,0.622925109938461
"293",30,27,2,1,53,2,1,1,3,0.836061086830987,0.896517759339667
"294",30,20,2,1,54,1,1,1,4,0.353656848813853,0.215013246085907
"295",30,18,2,1,55,2,1,1,4,0.653368453371115,0.729282423820214
"296",30,18,2,1,56,2,1,1,4,0.710821589627131,0.658984867989401
"297",30,37,2,2,57,3,1,0,2,1.05158715032718,1.12600521038384
"298",30,28,2,1,58,1,1,1,5,0.38281672987436,0.425923288620574
"299",30,26,2,2,59,3,2,1,2,0.860565740049099,0.790648783095118
"300",30,21,2,2,60,2,1,0,3,0.634319592198023,0.683151190729854
"301",30,33,2,1,61,1,1,1,5,0.410771979183895,0.435852969517334
"302",30,34,2,2,62,3,2,1,2,1.17734071784382,1.22303038887716
"303",30,27,2,1,63,3,1,1,2,0.956378030206296,0.955182591272224
"304",30,20,2,2,64,3,1,0,1,1.00263087498447,1.01670082299444
"305",30,18,2,2,65,1,2,1,5,0.383113263176902,0.370616775831822
"306",30,18,2,1,66,3,1,1,3,0.792157054093256,0.887288950485115
"307",30,37,2,1,67,1,1,1,5,0.397054931840874,0.38114954921611
"308",30,28,2,2,68,3,2,1,3,0.680131860475445,0.644717293664027
"309",30,26,2,2,69,1,2,1,5,0.394021207129453,0.350570564657684
"310",30,21,2,2,70,2,1,0,2,0.676378275084862,0.739086906200181
"311",30,33,2,2,71,2,2,1,4,0.51910864851843,0.547490177245973
"312",30,34,2,2,72,3,1,0,1,0.951153737087458,0.888227902621516
"313",30,27,2,2,73,2,2,1,4,0.621475588454695,0.621383816723972
"314",30,20,2,2,74,2,1,0,2,0.673586570754657,0.630849981241007
"315",30,18,2,2,75,2,1,0,2,0.704430933790293,0.651897138265324
"316",30,18,2,1,76,1,1,1,5,0.19172291051711,0.141511653828338
"317",30,37,2,2,77,3,2,1,2,0.742681009426022,0.740292409608593
"318",30,28,2,1,78,2,1,1,3,0.540489389667198,0.504564386844374
"319",30,26,2,2,79,3,1,0,1,0.979355277326524,1.00030754043619
"320",30,21,2,2,80,3,1,0,2,0.921881600101019,0.879102617270598
"321",30,33,2,2,81,2,2,1,3,0.69218890830271,0.832325483531822
"322",30,34,2,1,82,1,1,1,5,0.347279310873754,0.355241741568474
"323",30,27,2,2,83,1,1,0,3,0.800001036036942,0.797288147054703
"324",30,20,2,2,84,3,2,1,2,0.736389124294314,0.714835183025645
"325",30,18,2,1,85,2,2,0,2,0.7378097057445,0.790611187098621
"326",30,18,2,1,86,2,1,1,4,0.678054653045776,0.706179558909851
"327",30,37,2,2,87,3,2,1,2,1.00378922854669,0.980197973082524
"328",30,28,2,2,88,1,2,1,5,0.632229635164744,0.749515834190398
"329",30,26,2,2,89,3,2,1,2,1.09860792562632,1.04122053650308
"330",30,21,2,2,90,2,2,1,4,0.544118508785659,0.582348752448197
"331",30,33,2,1,91,1,1,1,4,0.384739943691529,0.390479897804231
"332",30,34,2,1,92,1,1,1,5,0.473906230548919,0.439928789166652
"333",30,27,2,2,93,2,1,0,3,0.75247442661175,0.717996837249805
"334",30,20,2,1,94,1,1,1,5,0.408143389316739,0.322066002890776
"335",30,18,2,1,95,2,1,1,3,0.67030834227171,0.619057562261817
"336",30,18,2,1,96,3,2,0,2,0.432603773488633,0.404036568993687
"337",30,37,2,1,97,2,2,0,2,0.679438533840509,0.60323774671245
"338",30,28,2,1,98,3,2,0,2,0.575897580348443,0.648190582732307
"339",30,26,2,1,99,2,1,1,3,0.524845205269873,0.463233666653144
"340",30,21,2,1,100,2,1,1,4,0.622969503890827,0.679654621927518
"341",30,33,2,1,101,2,1,1,4,0.485400807537028,0.502909198500655
"342",30,34,2,1,102,2,1,1,3,0.855571676780641,0.81538510818653
"343",30,27,2,1,103,3,1,1,3,0.957305972363378,1.06129834519771
"344",30,20,2,2,104,2,2,1,3,0.813565305142781,0.796763488325363
"345",30,18,2,2,105,2,2,1,3,0.518194755419521,0.508894108605005
"346",30,18,2,1,106,1,1,1,5,0.35690406055887,0.321395415443645
"347",30,37,2,1,107,3,2,0,2,1.13993559710891,1.23468628406374
"348",30,28,2,2,108,1,2,1,4,0.411434908278965,0.360433457791005
"349",30,26,2,1,109,1,1,1,4,0.439312812322247,0.469721093284184
"350",30,21,2,2,110,2,1,0,2,0.629862918088198,0.656649250078678
"351",30,33,2,1,111,1,1,1,4,0.259569268931678,0.274165378013937
"352",30,34,2,2,112,3,2,1,2,0.862538042336041,0.898492643680293
"353",30,27,2,2,113,1,2,1,4,0.300958344467846,0.328057795475659
"354",30,20,2,1,114,3,1,1,3,0.826974732458428,0.83334874088482
"355",30,18,2,1,115,2,1,1,4,0.455009847303328,0.419170230826833
"356",30,18,2,1,116,2,2,0,2,0.723309554762283,0.713017859273903
"357",30,37,2,2,117,1,1,0,4,0.45212475439985,0.469894752845352
"358",30,28,2,1,118,3,2,0,2,0.060583248551265,0.0885745027399142
"359",30,26,2,2,119,1,2,1,4,0.369769357521156,0.389802150138696
"360",30,21,2,1,120,2,2,0,3,0.875008289886322,0.846293605703833
"361",30,33,2,1,121,1,2,0,3,0.636916583834775,0.67900142466708
"362",30,34,2,1,122,1,1,1,5,0.358819821658244,0.373328615294419
"363",30,27,2,1,123,2,2,0,2,0.906201183511469,0.86983722453358
"364",30,20,2,2,124,2,2,1,3,0.949647682993134,0.891811147763215
"365",30,18,2,2,125,2,1,0,2,0.809663557351965,0.83056935220733
"366",30,18,2,2,126,2,2,1,3,0.744525835895752,0.775545441306739
"367",30,37,2,2,127,2,1,0,2,0.758096266950657,0.668252743123768
"368",30,28,2,1,128,2,1,1,3,0.589429492339733,0.64745581030822
"369",30,26,2,1,129,1,2,0,3,0.607580242974765,0.604337501481799
"370",30,21,2,1,130,1,1,1,5,0.413271302077946,0.395316067845205
"371",30,33,2,2,131,2,2,1,3,0.309722519127304,0.261521835854097
"372",30,34,2,1,132,2,1,1,3,0.352596391936357,0.346518347943642
"373",30,27,2,2,133,3,2,1,3,0.874261627357226,0.855533915075288
"374",30,20,2,2,134,1,1,0,3,0.524090214338543,0.464762424311257
"375",30,18,2,2,135,3,2,1,2,0.949921710452155,0.999516920734706
"376",30,18,2,1,136,3,2,0,2,1.45585677684205,1.3818523923018
"377",30,37,2,1,137,2,1,1,4,0.691609580820344,0.64744807646535
"378",30,28,2,1,138,1,1,1,4,0.407029501544916,0.347899664622946
"379",30,26,2,2,139,3,2,1,2,0.642693647373194,0.656709863110769
"380",30,21,2,2,140,3,1,0,1,1.15305846366858,1.18036680162764
"381",30,33,2,2,141,3,2,1,3,0.904434974807129,1.01683337480445
"382",30,34,2,1,142,3,1,1,3,0.589887140911061,0.562827053040787
"383",30,27,2,2,143,1,2,1,4,0.501031652071747,0.508620499538611
"384",30,20,2,1,144,1,1,1,4,0.411646451534511,0.382981804547712
"385",30,18,2,2,145,2,1,0,3,0.47692693347395,0.428088225642255
"386",30,18,2,1,146,3,1,1,2,1.01914340495778,1.03429890388397
"387",30,37,2,2,147,2,1,0,3,0.868613567477578,0.930912635502317
"388",30,28,2,1,148,3,2,0,2,1.59150648716607,1.6489736335288
"389",30,26,2,2,149,1,2,1,5,0.386971206500015,0.339234778351287
"390",30,21,2,2,150,3,1,0,2,0.842332063126134,0.844638102465741
"391",30,33,2,2,151,1,2,1,5,0.366994298782974,0.398218177140514
"392",30,34,2,2,152,1,2,1,4,0.336209785856931,0.313780105409948
"393",30,27,2,1,153,1,1,1,5,0.191683884399817,0.217767730564124
"394",30,20,2,1,154,2,1,1,4,0.778770198999979,0.751898593869958
"395",30,18,2,2,155,2,1,0,3,0.559804117651621,0.649046692710384
"396",30,18,2,2,156,3,2,1,2,0.831685795566269,0.788795846894876
"397",30,37,2,2,157,1,2,1,5,0.372922373722782,0.448257681975753
"398",30,28,2,1,158,3,1,1,2,0.95000340732531,0.838498974030558
"399",30,26,2,2,159,3,1,0,2,0.805833436497431,0.844605091678219
"400",30,21,2,2,160,2,1,0,2,0.642017773411161,0.648525473720937
"401",30,33,2,1,161,3,2,0,2,0.980702499106504,1.0132754131837
"402",30,34,2,2,162,3,2,1,3,0.695504252702571,0.661683174958832
"403",30,27,2,2,163,3,2,1,2,0.918702060386645,0.933739062624343
"404",30,20,2,1,164,3,1,1,2,0.852375801406904,0.821815995361228
"405",30,18,2,2,165,1,2,1,4,0.473010666149863,0.467709075325567
"406",30,18,2,1,166,1,2,0,3,0.392664046925962,0.420869374538223
"407",30,37,2,2,167,3,1,0,2,0.697163215001998,0.728559274922832
"408",30,28,2,2,168,2,2,1,3,0.353863770696532,0.376739527422832
"409",30,26,2,1,169,1,1,1,4,0.418920607785869,0.423216436936959
"410",30,21,2,1,170,3,1,1,3,0.740560683634074,0.683644125810133
"411",30,33,2,2,171,1,2,1,5,0.375024778180788,0.340488324897767
"412",30,34,2,1,172,3,1,1,2,1.03205923009766,1.04251525064981
"413",30,27,2,1,173,1,1,1,4,0.256442412866498,0.271367637763401
"414",30,20,2,1,174,1,1,1,5,0.561753354737638,0.590500397912589
"415",30,18,2,1,175,3,2,0,1,1.0316069305633,1.05099813643017
"416",30,18,2,2,176,3,1,0,1,1.29208015100643,1.30236329840085
"417",30,37,2,1,177,1,1,1,4,0.395720132454928,0.340498606443453
"418",30,28,2,2,178,3,2,1,2,1.07837985019539,1.04434933230107
"419",30,26,2,1,179,3,2,0,1,0.641759855197899,0.740439370318788
"420",30,21,2,1,180,3,2,0,1,0.644790598958422,0.574918619646069
"421",30,33,2,2,181,3,1,0,1,1.03441188208232,1.05034274731977
"422",30,34,2,1,182,2,1,1,3,0.723269439103522,0.736551938202125
"423",30,27,2,1,183,2,2,0,3,0.604587539168944,0.626479928617942
"424",30,20,2,1,184,1,1,1,4,0.391321412834478,0.390643825570584
"425",30,18,2,2,185,3,1,0,2,0.485318846391798,0.453431342641997
"426",30,18,2,2,186,3,1,0,2,0.883259781038851,0.901352838232143
"427",30,37,2,2,187,3,1,0,1,1.3316655651152,1.356574547226
"428",30,28,2,2,188,2,2,1,3,0.71074751084744,0.704566160717851
"429",30,26,2,1,189,2,2,0,2,0.66869426480067,0.711661850211806
"430",30,21,2,2,190,2,1,0,2,0.568845020281831,0.646748772523728
"431",30,33,2,1,191,3,1,1,2,0.782317642523198,0.824027979248639
"432",30,34,2,1,192,2,2,0,2,0.912866355622215,0.981530663597273
"433",30,27,2,2,193,2,1,0,3,0.814306432428746,0.871087686871015
"434",30,20,2,2,194,2,2,1,4,0.739580765454107,0.751558613068638
"435",30,18,2,2,195,3,1,0,2,0.658243834299014,0.66668859240724
"436",30,18,2,1,196,3,1,1,3,0.775601940746262,0.796239187809586
"437",30,37,2,1,197,2,1,1,4,0.7087805215734,0.736982238292641
"438",30,28,2,2,198,3,2,1,3,0.768096356292589,0.810832441581575
"439",30,26,2,2,199,3,2,1,2,0.739445795996938,0.743039310466819
"440",30,21,2,2,200,2,2,1,4,0.903968559937422,0.929053369186644
"441",30,33,2,1,201,3,1,1,2,0.839647648841397,0.865821219840665
"442",30,34,2,1,202,2,1,1,3,0.596572622769489,0.62042564622527
"443",30,27,2,1,203,2,2,0,3,0.487860257452946,0.476010912463949
"444",30,20,2,1,204,1,1,1,5,0.293190866146737,0.280115436827023
"445",30,18,2,1,205,1,1,1,5,0.465484974586054,0.465643072552964
"446",30,18,2,2,206,1,1,0,3,0.56278543655493,0.577645569606648
"447",30,37,2,1,207,1,1,1,4,0.446665780654619,0.421207120572783
"448",30,28,2,1,208,1,1,1,4,0.405487836229331,0.399564550195488
"449",30,26,2,2,209,2,2,1,3,0.630846140430518,0.572524124044124
"450",30,21,2,2,210,1,2,1,4,0.394995099857376,0.455515863822783
"451",30,33,2,1,211,1,1,1,5,0.425783613122018,0.465876489361251
"452",30,34,2,1,212,3,1,1,2,0.92822733372538,0.89895252178238
"453",30,27,2,1,213,2,1,1,3,0.806684490668615,0.832606001676001
"454",30,20,2,1,214,1,1,1,4,0.416002944075669,0.438471807764297
"455",30,18,2,1,215,2,2,0,2,0.808203563326223,0.769473226977773
"456",30,18,2,1,216,3,1,1,3,0.81346755035686,0.754531858434271
"457",30,37,2,2,217,2,1,0,2,0.843713996463791,0.865514109542331
"458",30,28,2,1,218,1,1,1,5,0.355321456555864,0.340105378697704
"459",30,26,2,2,219,1,2,1,5,0.286331021258189,0.361786634620377
"460",30,21,2,2,220,1,2,1,4,0.461072819795057,0.451548326160615
"461",30,33,2,2,221,3,2,1,3,0.722442167130283,0.769178420314113
"462",30,34,2,1,222,1,1,1,5,0.369072822146682,0.341264400535491
"463",30,27,2,1,223,1,1,1,4,0.253636762291561,0.276406259127452
"464",30,20,2,1,224,3,1,1,2,0.916877440425531,1.00373445611621
"465",30,18,2,2,225,3,2,1,2,0.91352543504501,0.853434725415354
"466",30,18,2,2,226,3,1,0,1,1.69350777877571,1.67243273042364
"467",30,37,2,2,227,1,2,1,4,0.515606643068449,0.456011908477941
"468",30,28,2,2,228,1,2,1,4,0.43873806576722,0.440113175924911
"469",30,26,2,2,229,1,2,1,4,0.4850559105849,0.439595471762939
"470",30,21,2,2,230,2,2,1,3,0.350612900861475,0.336899907190707
"471",30,33,2,1,231,3,1,1,2,1.17393997064416,1.26030179363043
"472",30,34,2,2,232,2,1,0,2,0.936047806422969,0.872371373354753
"473",30,27,2,1,233,1,2,0,3,0.43706677408505,0.425172179910748
"474",30,20,2,1,234,3,2,0,2,1.07721896448262,1.01151684119264
"475",30,18,2,1,235,3,2,0,2,0.676623193168112,0.746671714251939
"476",30,18,2,2,236,1,2,1,4,0.328458603860397,0.351180375280368
"477",30,37,2,2,237,2,2,1,4,0.627800615415035,0.644197194226092
"478",30,28,2,2,238,1,2,1,4,0.470673122628302,0.437815039233612
"479",30,26,2,2,239,1,2,1,4,0.292444666312994,0.275430046953486
"480",30,21,2,1,240,1,1,1,5,0.444001332001913,0.501090836153187
"481",29,30,1,2,1,3,2,1,2,0.729144241443875,0.752850710425862
"482",29,38,1,2,2,3,1,0,2,1.62741749818824,1.60520936693523
"483",29,35,1,1,3,1,1,1,5,0.471166270813021,0.339095234494554
"484",29,36,1,2,4,1,1,0,4,0.732097062687971,0.809777533630179
"485",29,20,1,1,5,1,1,1,4,0.3091604877554,0.273223109302683
"486",29,33,1,2,6,1,2,1,4,0.359534632591077,0.395112325560319
"487",29,37,1,2,7,2,1,0,3,0.65248354529194,0.635145038965586
"488",29,38,1,1,8,3,1,1,2,0.902519204149112,0.927810824549896
"489",29,38,1,1,9,3,1,1,2,0.526720233387621,0.563974762218966
"490",29,39,1,2,10,3,2,1,2,0.936649358292018,0.887267867697697
"491",29,30,1,2,11,3,1,0,1,1.2261280524263,1.23145688978868
"492",29,38,1,2,12,2,2,1,3,0.326163331275522,0.316067165544688
"493",29,35,1,2,13,3,2,1,3,0.975821209642398,0.922295441034528
"494",29,36,1,1,14,1,1,1,5,0.285342445857507,0.289085576856559
"495",29,20,1,2,15,3,1,0,2,0.165870060647573,0.0532667690724729
"496",29,33,1,1,16,1,2,0,3,0.513629451035835,0.551487998774512
"497",29,37,1,2,17,1,2,1,5,0.39594387553363,0.322206365210684
"498",29,38,1,1,18,3,2,0,2,0.527052947150303,0.503894092454147
"499",29,38,1,2,19,1,2,1,5,0.394679529501213,0.368056859787631
"500",29,39,1,2,20,2,2,1,4,0.644048129067717,0.637526634543963
"501",29,30,1,2,21,2,2,1,3,0.537247754033246,0.549305867622278
"502",29,38,1,1,22,1,1,1,4,0.388989165427193,0.387313533363521
"503",29,35,1,2,23,1,1,0,3,0.458879154194548,0.453939373996888
"504",29,36,1,1,24,3,2,0,2,0.572688931291743,0.583260340825283
"505",29,20,1,2,25,3,1,0,1,1.24057975317214,1.32814349707599
"506",29,33,1,1,26,1,1,1,5,0.4466673900651,0.377208421340633
"507",29,37,1,1,27,2,2,0,3,0.986699510225785,1.03742388594695
"508",29,38,1,1,28,2,1,1,4,0.527953645076783,0.50673011200719
"509",29,38,1,2,29,2,1,0,3,0.54716099614336,0.544367604679237
"510",29,39,1,1,30,3,1,1,2,0.82347121483236,0.85387304504798
"511",29,30,1,1,31,1,1,1,5,0.558458890505858,0.552009117749051
"512",29,38,1,1,32,3,1,1,3,0.755546599102935,0.764285154858559
"513",29,35,1,2,33,1,1,0,3,0.50701587859407,0.443626056191075
"514",29,36,1,1,34,3,1,1,2,1.02370794765822,1.01332623928681
"515",29,20,1,2,35,1,2,1,5,0.400076502486223,0.453778276606576
"516",29,33,1,2,36,2,2,1,4,0.528175914510548,0.506338362307915
"517",29,37,1,2,37,2,1,0,2,0.432302028794616,0.430169798521398
"518",29,38,1,1,38,3,2,0,2,0.955380197254785,0.919429081919659
"519",29,38,1,2,39,2,2,1,3,0.687655637187633,0.634472563015069
"520",29,39,1,1,40,2,2,0,3,0.596590732513743,0.630987261252454
"521",29,30,1,1,41,1,2,0,4,0.584314034519271,0.588621017325568
"522",29,38,1,2,42,1,2,1,4,0.34510138170068,0.244520800101582
"523",29,35,1,1,43,3,2,0,1,1.47898057033306,1.53476258068532
"524",29,36,1,2,44,2,2,1,3,0.718055418841965,0.712213761077074
"525",29,20,1,1,45,1,1,1,5,0.43685954339576,0.399375204609993
"526",29,33,1,2,46,2,1,0,2,0.371968986546729,0.346441723681844
"527",29,37,1,1,47,3,1,1,3,0.612022516823588,0.626632727175455
"528",29,38,1,1,48,2,2,0,2,0.732415259519259,0.704898601854287
"529",29,38,1,1,49,1,1,1,5,0.390491964835402,0.314568736359905
"530",29,39,1,2,50,1,2,1,5,0.377415915375663,0.273108616607438
"531",29,30,1,1,51,3,1,1,2,1.15438756311077,1.13313443990173
"532",29,38,1,2,52,2,1,0,3,0.620578402352746,0.64576596624141
"533",29,35,1,1,53,1,1,1,4,0.343473734811345,0.271093210859218
"534",29,36,1,1,54,2,1,1,4,0.59322190429074,0.532998585168985
"535",29,20,1,2,55,1,2,1,4,0.586734073902304,0.51842672341854
"536",29,33,1,2,56,3,2,1,2,0.48153274751189,0.450787067630806
"537",29,37,1,1,57,2,2,0,2,0.781098070625595,0.783958695600003
"538",29,38,1,2,58,2,2,1,4,0.603175234217704,0.61250165526934
"539",29,38,1,2,59,1,2,1,5,0.517142472332891,0.567021229285604
"540",29,39,1,1,60,2,1,1,3,0.842323747123391,0.863690714791592
"541",29,30,1,2,61,2,1,0,3,0.905006795440407,0.850389812089873
"542",29,38,1,1,62,3,1,1,2,0.571274122256829,0.567723719817064
"543",29,35,1,2,63,3,2,1,3,0.862960241346227,0.907905127573156
"544",29,36,1,2,64,3,1,0,1,0.87468659380311,0.892647583790559
"545",29,20,1,1,65,1,2,0,4,0.600404101369549,0.453678379822578
"546",29,33,1,2,66,2,1,0,2,0.601913781772628,0.632955965663613
"547",29,37,1,1,67,2,1,1,4,0.45826869005363,0.436620955057429
"548",29,38,1,1,68,2,1,1,3,0.437873088351414,0.494221465059121
"549",29,38,1,2,69,3,1,0,1,1.35981539610761,1.38474157729201
"550",29,39,1,1,70,2,2,0,2,0.74897107675622,0.747644167410891
"551",29,30,1,2,71,2,2,1,4,0.573151103501466,0.581908255169664
"552",29,38,1,1,72,2,2,0,3,0.793427723885127,0.717016383215167
"553",29,35,1,1,73,3,2,0,2,1.50220038364994,1.5891203554529
"554",29,36,1,1,74,3,2,0,2,0.92433534871158,0.970637311259751
"555",29,20,1,2,75,3,2,1,2,0.943974767648594,0.954022552840933
"556",29,33,1,2,76,2,2,1,3,0.542590027668554,0.592306133035191
"557",29,37,1,1,77,1,1,1,4,0.338123562420813,0.331418168423222
"558",29,38,1,2,78,3,1,0,1,1.00463661078969,1.019433029433
"559",29,38,1,1,79,1,1,1,5,0.303368289029697,0.3757831122167
"560",29,39,1,1,80,1,1,1,5,0.334602894615581,0.402742720357563
"561",29,30,1,1,81,1,1,1,5,0.296042347363137,0.238810672462801
"562",29,38,1,2,82,2,2,1,4,0.594601522667461,0.547005959727273
"563",29,35,1,1,83,1,2,0,4,0.57583753246914,0.546453605563138
"564",29,36,1,2,84,3,1,0,2,0.251297651660269,0.290949301466554
"565",29,20,1,2,85,1,2,1,4,0.260213772029077,0.307411415746741
"566",29,33,1,2,86,2,1,0,3,0.783497586529362,0.715366480796771
"567",29,37,1,1,87,2,2,0,2,0.754227291804075,0.749196058367088
"568",29,38,1,2,88,3,2,1,3,0.546173858556155,0.534218593136897
"569",29,38,1,2,89,3,1,0,2,1.51703629927839,1.52844065890799
"570",29,39,1,1,90,1,1,1,4,0.579027114407867,0.58110415764807
"571",29,30,1,2,91,1,2,1,4,0.439309851283676,0.473948255967073
"572",29,38,1,2,92,2,1,0,2,0.671127585611516,0.744305765474824
"573",29,35,1,1,93,3,1,1,3,0.976751775057691,0.90461804826911
"574",29,36,1,2,94,3,2,1,2,0.850916814426983,0.848386985625396
"575",29,20,1,1,95,3,2,0,1,0.585046196373903,0.569174121716633
"576",29,33,1,1,96,3,1,1,3,1.10384716717254,1.08058323858491
"577",29,37,1,1,97,1,2,0,4,0.73442621351482,0.728723095065979
"578",29,38,1,1,98,3,2,0,2,0.84450994398547,0.708795490274193
"579",29,38,1,2,99,2,1,0,3,0.602776911853404,0.715462075037014
"580",29,39,1,2,100,2,2,1,3,0.693591533177326,0.644288985971632
"581",29,30,1,1,101,3,2,0,1,-0.353973512460705,-0.359286066046096
"582",29,38,1,1,102,1,1,1,4,0.447647668027314,0.400023844160839
"583",29,35,1,1,103,3,1,1,3,0.650116178506279,0.683293435430905
"584",29,36,1,1,104,3,2,0,1,0.947152376815955,0.983521835867581
"585",29,20,1,1,105,3,2,0,1,0.994047878134363,1.06354761839575
"586",29,33,1,2,106,1,1,0,3,0.461782838879781,0.376984896448792
"587",29,37,1,1,107,3,1,1,2,0.779201383922484,0.786522916129107
"588",29,38,1,1,108,1,1,1,4,0.40892819015141,0.409833301933462
"589",29,38,1,1,109,1,1,1,4,0.405932913910739,0.418562471219329
"590",29,39,1,2,110,3,2,1,3,1.05808349048952,1.05173200954286
"591",29,30,1,1,111,2,2,0,2,0.527028251845489,0.533261601277207
"592",29,38,1,1,112,2,2,0,2,1.07615997441151,1.06988974724149
"593",29,35,1,1,113,1,1,1,5,0.406057892910686,0.438708685972254
"594",29,36,1,1,114,1,1,1,4,0.319548698909617,0.251911733153579
"595",29,20,1,1,115,2,2,0,3,0.664156925522216,0.714213229512876
"596",29,33,1,2,116,2,1,0,2,0.861615812250245,0.899839258618277
"597",29,37,1,1,117,3,1,1,2,0.840921154921052,0.822079011310977
"598",29,38,1,2,118,1,2,1,5,0.457997788052081,0.361420886490713
"599",29,38,1,2,119,1,2,1,5,0.433438314284937,0.421433023302829
"600",29,39,1,2,120,2,2,1,4,0.684890856407887,0.736391380043434
"601",29,30,1,1,121,2,1,1,4,0.662318445612427,0.662100797167423
"602",29,38,1,2,122,1,1,0,4,0.650648182926228,0.686137948576673
"603",29,35,1,2,123,1,2,1,5,0.405271324611274,0.522612463312787
"604",29,36,1,2,124,2,1,0,3,0.818191383107732,0.797344212189005
"605",29,20,1,2,125,2,1,0,2,0.911937442279174,0.943232987601139
"606",29,33,1,1,126,2,2,0,2,0.683223021585091,0.669469391167113
"607",29,37,1,1,127,2,1,1,3,0.467452197030465,0.535033262205748
"608",29,38,1,1,128,2,2,0,2,0.697221933879802,0.722401484164256
"609",29,38,1,1,129,2,1,1,4,0.503626146141368,0.53161206394124
"610",29,39,1,1,130,1,1,1,5,0.332416428617574,0.316369949548569
"611",29,30,1,2,131,3,1,0,1,0.590837002600825,0.612395862469909
"612",29,38,1,2,132,1,2,1,5,0.455572904285046,0.506958979491102
"613",29,35,1,1,133,1,1,1,4,0.362857361692875,0.340783712210988
"614",29,36,1,2,134,2,2,1,3,0.806177801962033,0.842371894600593
"615",29,20,1,1,135,1,2,0,4,0.568622273674487,0.646391407593484
"616",29,33,1,1,136,1,1,1,5,0.365289676465255,0.355410155576964
"617",29,37,1,2,137,2,2,1,4,0.584033776967864,0.501583955705827
"618",29,38,1,1,138,1,1,1,5,0.318318074726632,0.347912798856521
"619",29,38,1,2,139,1,2,1,4,0.465737983176896,0.490293973161097
"620",29,39,1,1,140,3,1,1,3,0.762245800131646,0.767660441606985
"621",29,30,1,2,141,2,1,0,2,0.56539275679283,0.615002180947504
"622",29,38,1,2,142,1,2,1,4,0.285776729293272,0.260979058984694
"623",29,35,1,2,143,3,1,0,1,1.21198813018913,1.14697556443563
"624",29,36,1,1,144,2,1,1,4,0.648557536470013,0.696324910374987
"625",29,20,1,1,145,1,1,1,4,0.548433049491177,0.540155490041714
"626",29,33,1,1,146,1,1,1,4,0.327548440018012,0.332529779101067
"627",29,37,1,2,147,3,2,1,2,0.651906811291548,0.589950141604189
"628",29,38,1,1,148,2,1,1,4,0.806538816433591,0.771742332044416
"629",29,38,1,2,149,2,1,0,2,0.764214148960969,0.802297305189696
"630",29,39,1,2,150,2,2,1,3,0.49735409842217,0.492319794212723
"631",29,30,1,1,151,1,2,0,3,0.637125116586167,0.55995764190757
"632",29,38,1,1,152,2,2,0,2,0.915448549423868,0.864335662646785
"633",29,35,1,1,153,2,2,0,3,0.439080783083959,0.406024987056783
"634",29,36,1,1,154,3,2,0,2,0.575824751476046,0.591785468395439
"635",29,20,1,1,155,3,1,1,2,0.411373847928684,0.507137589615192
"636",29,33,1,2,156,3,1,0,2,1.19396604276655,1.07080222827083
"637",29,37,1,1,157,1,2,0,3,0.455315327778199,0.383791334413759
"638",29,38,1,2,158,3,2,1,2,0.729826222462381,0.74431756553999
"639",29,38,1,1,159,1,1,1,5,0.405333424891686,0.452797107316857
"640",29,39,1,1,160,1,1,1,5,0.367296609951928,0.40509172415033
"641",29,30,1,2,161,3,1,0,2,0.831187323863674,0.820372685417193
"642",29,38,1,1,162,2,2,0,3,0.677376783116306,0.709462947388863
"643",29,35,1,2,163,1,2,1,5,0.490355656382074,0.491034463483227
"644",29,36,1,1,164,3,2,0,1,0.763192464915779,0.756136491636754
"645",29,20,1,1,165,2,2,0,2,0.980818173773086,0.953323540325218
"646",29,33,1,1,166,3,1,1,2,0.702979396771434,0.72418596353027
"647",29,37,1,2,167,1,2,1,4,0.423024959380953,0.387463357418072
"648",29,38,1,1,168,3,1,1,3,0.852946409510398,0.8484317494551
"649",29,38,1,1,169,1,1,1,5,0.438837097212915,0.408101540772237
"650",29,39,1,2,170,2,2,1,4,0.55749170026785,0.53911590329964
"651",29,30,1,1,171,1,1,1,4,0.467974715965659,0.47538950469916
"652",29,38,1,2,172,1,2,1,4,0.34037987115636,0.429498588464487
"653",29,35,1,1,173,1,1,1,4,0.33004807708259,0.323367429399062
"654",29,36,1,2,174,3,2,1,2,0.79160697603526,0.757929804701437
"655",29,20,1,1,175,2,1,1,3,0.527610101886137,0.532056933528574
"656",29,33,1,2,176,2,1,0,3,0.836268012776817,0.919225933257344
"657",29,37,1,1,177,2,1,1,3,0.839722140457375,0.841240359370031
"658",29,38,1,2,178,3,1,0,2,0.495897212117808,0.536419063520538
"659",29,38,1,2,179,3,2,1,3,0.899456709054894,0.974227557903038
"660",29,39,1,2,180,3,1,0,2,1.41322196998259,1.43644701439708
"661",29,30,1,2,181,2,1,0,2,0.733098527277675,0.731679466041786
"662",29,38,1,1,182,3,2,0,1,0.968074440822172,0.988167985827983
"663",29,35,1,2,183,2,1,0,2,0.952605497350468,0.93767344942057
"664",29,36,1,2,184,2,1,0,2,0.68056346225271,0.736526129770062
"665",29,20,1,2,185,2,2,1,4,0.575074270350311,0.569359568617494
"666",29,33,1,1,186,2,2,0,2,0.566645115878278,0.618915068167641
"667",29,37,1,2,187,2,2,1,4,0.637960738161203,0.702541757365121
"668",29,38,1,2,188,2,1,0,2,0.782066247085109,0.754026277449271
"669",29,38,1,2,189,1,1,0,3,0.434808270739612,0.37147959644163
"670",29,39,1,2,190,1,2,1,5,0.400868885064511,0.315936062228544
"671",29,30,1,2,191,1,2,1,5,0.220299636989633,0.323716951611087
"672",29,38,1,2,192,3,2,1,2,0.614445153703149,0.568255068207351
"673",29,35,1,2,193,3,2,1,3,0.902830752481405,0.909800471721008
"674",29,36,1,2,194,3,2,1,3,0.62779208916898,0.581098146619485
"675",29,20,1,2,195,3,1,0,2,0.647834298237636,0.660149370267845
"676",29,33,1,1,196,2,1,1,4,0.618969218883937,0.622590928234633
"677",29,37,1,1,197,1,1,1,5,0.49970447609257,0.498662547240175
"678",29,38,1,2,198,3,1,0,1,1.07483611438005,1.07732703848561
"679",29,38,1,1,199,2,1,1,4,0.65450452473349,0.655964061509308
"680",29,39,1,1,200,1,2,0,4,0.518222481668546,0.495410543795938
"681",29,30,1,2,201,3,1,0,2,0.933392071882054,0.963914940414626
"682",29,38,1,2,202,1,1,0,4,0.542992677650737,0.537913613119572
"683",29,35,1,2,203,1,2,1,5,0.342789037982232,0.358050855589606
"684",29,36,1,2,204,1,2,1,4,0.473411234370771,0.449961372334659
"685",29,20,1,1,205,3,1,1,3,0.671986286596565,0.651482553759449
"686",29,33,1,2,206,2,2,1,4,0.754521143189836,0.770190114876069
"687",29,37,1,1,207,3,1,1,2,0.261679057154817,0.2319151679101
"688",29,38,1,1,208,3,1,1,2,0.504697031887107,0.455724521485479
"689",29,38,1,2,209,3,2,1,2,0.638338444218915,0.644768160905651
"690",29,39,1,2,210,3,1,0,2,0.542125451808866,0.512073156815309
"691",29,30,1,2,211,3,2,1,2,0.872569685416188,0.821754568343247
"692",29,38,1,1,212,1,2,0,3,0.355000801902642,0.410322046576443
"693",29,35,1,2,213,3,2,1,3,0.893831163143388,0.919611189168499
"694",29,36,1,1,214,2,1,1,4,0.751833168705303,0.830314704339468
"695",29,20,1,1,215,1,1,1,4,0.388738709377806,0.374428052214568
"696",29,33,1,1,216,3,2,0,1,1.04149641835828,1.05967255106842
"697",29,37,1,1,217,2,2,0,2,0.859063747527731,0.901486267838988
"698",29,38,1,1,218,1,1,1,4,0.484376450563066,0.428982256700663
"699",29,38,1,2,219,1,1,0,4,0.363778261839401,0.368049026416666
"700",29,39,1,1,220,2,2,0,3,0.591189268164678,0.58700450834768
"701",29,30,1,2,221,3,2,1,3,0.766695924717844,0.900180893612921
"702",29,38,1,1,222,2,2,0,3,0.717935589027483,0.667027791789129
"703",29,35,1,2,223,2,2,1,3,0.680559859765696,0.705032084209325
"704",29,36,1,1,224,2,1,1,4,0.615609429879119,0.649371262209062
"705",29,20,1,1,225,1,2,0,3,0.548521076730904,0.553991770067908
"706",29,33,1,2,226,2,2,1,3,0.61323761684601,0.568529527420373
"707",29,37,1,2,227,1,2,1,4,0.384595359774721,0.384472123625983
"708",29,38,1,1,228,1,2,0,4,0.449936223500284,0.489483634412058
"709",29,38,1,2,229,3,1,0,1,0.653114276917627,0.657851749558341
"710",29,39,1,2,230,3,2,1,3,0.689931416403423,0.6426402258465
"711",29,30,1,1,231,2,2,0,2,0.68372176144001,0.544135200662895
"712",29,38,1,2,232,3,1,0,1,1.56998335139797,1.61035256345156
"713",29,35,1,2,233,1,2,1,5,0.455105131963548,0.370008881840083
"714",29,36,1,1,234,3,1,1,3,1.13554177264726,1.16706633112551
"715",29,20,1,2,235,1,2,1,4,0.405156587714783,0.356752781209241
"716",29,33,1,1,236,2,1,1,4,0.66204445276305,0.650615812712065
"717",29,37,1,2,237,3,2,1,3,0.438314628272517,0.432196799325457
"718",29,38,1,2,238,1,2,1,5,0.428367731248047,0.316688394141202
"719",29,38,1,1,239,3,1,1,3,0.717427480814201,0.729855243871887
"720",29,39,1,2,240,2,1,0,2,0.55519998875095,0.508929545981813
"721",28,23,2,1,1,1,1,1,5,0.387343890952466,0.349009135730153
"722",28,40,2,1,2,3,1,1,3,0.762461055761239,0.694506562332376
"723",28,38,2,2,3,3,2,1,3,0.806950636240506,0.839091438281853
"724",28,34,2,1,4,3,2,0,2,0.994872055273969,1.05307558646981
"725",28,40,2,1,5,2,1,1,4,0.573362599594723,0.547018117564579
"726",28,38,2,1,6,1,1,1,4,0.466316549498131,0.438035535192808
"727",28,33,2,2,7,1,2,1,5,0.423248291782582,0.478834867455161
"728",28,37,2,2,8,2,1,0,2,0.48834655341069,0.521833600682041
"729",28,23,2,1,9,1,1,1,4,0.393811552992959,0.377826112460387
"730",28,36,2,1,10,1,1,1,5,0.466624139002048,0.512480918513659
"731",28,23,2,1,11,1,1,1,4,0.507627494055794,0.552232551156928
"732",28,40,2,2,12,1,1,0,4,0.556412076077364,0.601960132356393
"733",28,38,2,2,13,2,1,0,2,0.479448802078884,0.531392018117702
"734",28,34,2,1,14,2,2,0,3,0.878038442865458,0.858084785167201
"735",28,40,2,1,15,2,2,0,3,0.90028308273333,0.98486486275866
"736",28,38,2,1,16,1,2,0,4,0.332119741453864,0.333411001001136
"737",28,33,2,1,17,3,1,1,3,0.925613186941832,0.91045447752721
"738",28,37,2,1,18,3,2,0,2,0.823897170379233,0.899362386607059
"739",28,23,2,2,19,1,2,1,5,0.462583529737357,0.449341356555351
"740",28,36,2,2,20,2,2,1,3,0.487402168805008,0.512112376214975
"741",28,23,2,2,21,3,1,0,2,1.18406908082874,1.18473720680844
"742",28,40,2,2,22,2,2,1,3,0.569997687931821,0.587142549930713
"743",28,38,2,1,23,2,1,1,3,0.661271581739622,0.672684014941558
"744",28,34,2,1,24,2,2,0,2,0.644102562431053,0.581163599699936
"745",28,40,2,1,25,1,2,0,4,0.592159811423329,0.736673102081208
"746",28,38,2,2,26,2,2,1,4,0.547703962147307,0.464141152926728
"747",28,33,2,2,27,3,2,1,2,0.545045923906176,0.612561355688912
"748",28,37,2,1,28,3,2,0,2,0.634790039209133,0.616676380715197
"749",28,23,2,2,29,2,1,0,2,0.481035675497891,0.420575439583691
"750",28,36,2,1,30,1,1,1,5,0.444728247431198,0.441510477563529
"751",28,23,2,1,31,2,1,1,3,0.404172544699146,0.360049132010187
"752",28,40,2,2,32,3,1,0,2,0.552707749783484,0.564557523104929
"753",28,38,2,2,33,3,1,0,2,0.99190234441242,1.00401474946101
"754",28,34,2,1,34,2,1,1,3,0.643942546100225,0.616358033548441
"755",28,40,2,2,35,3,1,0,1,0.784660297085003,0.72990587912123
"756",28,38,2,2,36,3,2,1,2,0.467215102647681,0.363579507581807
"757",28,33,2,1,37,2,1,1,3,0.633921577405484,0.614558491400558
"758",28,37,2,1,38,3,2,0,2,0.798321865189128,0.801017513581856
"759",28,23,2,2,39,2,1,0,3,0.75551174124425,0.774553204389973
"760",28,36,2,2,40,1,2,1,5,0.460193989547557,0.540529610264461
"761",28,23,2,1,41,2,1,1,3,0.342210254008524,0.339777131953826
"762",28,40,2,2,42,3,2,1,3,0.73150942610509,0.732400058333696
"763",28,38,2,2,43,2,2,1,3,0.540612457033736,0.444565607142702
"764",28,34,2,2,44,3,1,0,2,0.374479012723661,0.403379446170555
"765",28,40,2,1,45,2,2,0,2,0.641076307488465,0.664317118531594
"766",28,38,2,2,46,1,2,1,5,0.314231021148057,0.279576767517488
"767",28,33,2,2,47,3,1,0,1,1.04457371473124,1.08846816911532
"768",28,37,2,1,48,2,1,1,3,0.690967370671428,0.65061298491204
"769",28,23,2,1,49,1,1,1,5,0.374554484785656,0.375148467863866
"770",28,36,2,1,50,2,1,1,4,0.865677742517055,0.826193332562589
"771",28,23,2,2,51,2,2,1,4,0.780261226528694,0.756355629472528
"772",28,40,2,2,52,2,2,1,4,0.328880122505903,0.41906101259867
"773",28,38,2,2,53,3,1,0,1,1.5784035170391,1.53153271035447
"774",28,34,2,2,54,2,2,1,4,0.44268003109288,0.373121640568293
"775",28,40,2,1,55,3,2,0,2,0.350448849581453,0.307079729228353
"776",28,38,2,2,56,2,1,0,3,0.609671787826985,0.56888085613665
"777",28,33,2,1,57,2,1,1,3,0.531037146192969,0.565149817416351
"778",28,37,2,2,58,1,2,1,4,0.57431029521079,0.557961254407677
"779",28,23,2,1,59,1,1,1,4,0.404792735453614,0.478730130972037
"780",28,36,2,2,60,3,1,0,2,1.21125973867519,1.24417925095229
"781",28,23,2,1,61,2,2,0,2,0.92167466089603,0.971092959841295
"782",28,40,2,2,62,3,2,1,3,0.747060809612276,0.838704116936248
"783",28,38,2,1,63,2,1,1,4,0.652483816657078,0.630554513706951
"784",28,34,2,1,64,1,2,0,3,0.725616981526415,0.669990141051831
"785",28,40,2,2,65,2,2,1,3,0.560737536010496,0.54957838859255
"786",28,38,2,1,66,3,1,1,2,0.898744198110197,0.994487672827696
"787",28,33,2,1,67,2,2,0,2,0.306691649461966,0.34757592891039
"788",28,37,2,1,68,1,2,0,3,0.578687468840032,0.558180160935148
"789",28,23,2,1,69,1,1,1,4,0.404248583787735,0.427863139811376
"790",28,36,2,2,70,2,1,0,3,0.683294765148399,0.677831126101698
"791",28,23,2,2,71,2,2,1,3,0.671013245951846,0.663678611188249
"792",28,40,2,1,72,2,1,1,4,0.590513316270938,0.550101762360878
"793",28,38,2,2,73,1,2,1,5,0.387861033724029,0.349097826870074
"794",28,34,2,1,74,1,1,1,5,0.442026627710878,0.417867398602302
"795",28,40,2,2,75,3,1,0,2,0.897184504999593,0.902465801023637
"796",28,38,2,1,76,2,1,1,3,0.501919264763489,0.544943205743378
"797",28,33,2,1,77,3,2,0,1,1.28081004520283,1.28878385219102
"798",28,37,2,1,78,2,1,1,3,0.514971515691912,0.49499468084958
"799",28,23,2,2,79,1,2,1,4,0.404045425804345,0.309714760087566
"800",28,36,2,2,80,3,2,1,2,0.516843488427097,0.601793576891825
"801",28,23,2,1,81,1,1,1,4,0.478184875221616,0.388404075402652
"802",28,40,2,2,82,1,2,1,4,0.403440106721129,0.352081123532763
"803",28,38,2,2,83,2,2,1,3,0.74910624469033,0.798166051288544
"804",28,34,2,1,84,3,1,1,3,0.482132702094201,0.406197855190461
"805",28,40,2,1,85,1,1,1,4,0.430299749485416,0.45097552841365
"806",28,38,2,1,86,2,2,0,2,0.820984566445269,0.795615355878219
"807",28,33,2,1,87,1,1,1,4,0.514373721933933,0.537868032644119
"808",28,37,2,1,88,2,2,0,2,0.78239912687318,0.800796648821947
"809",28,23,2,1,89,1,1,1,5,0.365944157643609,0.358225077168315
"810",28,36,2,2,90,3,1,0,1,1.33185203501171,1.25757340779167
"811",28,23,2,1,91,2,2,0,3,0.795081335625445,0.849352649412706
"812",28,40,2,1,92,3,1,1,2,0.482721154678555,0.445555838312177
"813",28,38,2,2,93,3,2,1,3,0.874937728299017,0.89491718678039
"814",28,34,2,2,94,2,2,1,4,0.344923318992929,0.367304968269029
"815",28,40,2,1,95,1,1,1,5,0.497743209641883,0.488915524002984
"816",28,38,2,1,96,2,2,0,3,0.698100427888413,0.682350898471226
"817",28,33,2,1,97,1,1,1,4,0.408278129257648,0.438115469554204
"818",28,37,2,2,98,3,2,1,2,0.580041845762825,0.590951434570927
"819",28,23,2,2,99,2,1,0,3,0.506392953456802,0.491180591985355
"820",28,36,2,2,100,2,1,0,3,0.559399609515311,0.410133986619914
"821",28,23,2,1,101,2,1,1,3,0.487049108613196,0.478403744866411
"822",28,40,2,1,102,1,1,1,5,0.264156115773031,0.198995390719902
"823",28,38,2,2,103,3,2,1,3,0.74576632982005,0.748287179483361
"824",28,34,2,1,104,3,1,1,3,0.929217305611188,0.844850810022506
"825",28,40,2,1,105,2,1,1,4,0.820263003754473,0.836597402734078
"826",28,38,2,2,106,1,1,0,3,0.59564434277978,0.617237408723217
"827",28,33,2,2,107,2,2,1,4,0.620305365786726,0.53727872868282
"828",28,37,2,1,108,3,1,1,3,0.96320937095386,0.953617575485958
"829",28,23,2,2,109,3,2,1,2,0.694003862087279,0.692413943057568
"830",28,36,2,1,110,2,1,1,3,0.631595045973808,0.52895679337312
"831",28,23,2,2,111,1,2,1,5,0.537098175522657,0.463040681477158
"832",28,40,2,2,112,1,2,1,4,0.367301185801752,0.319575965172523
"833",28,38,2,2,113,3,1,0,2,1.1768224604239,1.11817923808824
"834",28,34,2,2,114,1,2,1,4,0.241980094448616,0.274445312441758
"835",28,40,2,1,115,3,1,1,2,1.03758748961156,1.06745110714497
"836",28,38,2,1,116,1,1,1,5,0.341333290777567,0.418775473964697
"837",28,33,2,2,117,2,2,1,4,0.540427517596599,0.551236840411996
"838",28,37,2,2,118,2,2,1,3,0.551723342463617,0.549361958784941
"839",28,23,2,1,119,3,1,1,3,1.05716681787428,1.01262520258745
"840",28,36,2,2,120,1,2,1,5,0.520090238081046,0.494667538430592
"841",28,23,2,2,121,3,1,0,2,1.24955246648578,1.30549357458769
"842",28,40,2,2,122,3,2,1,3,0.754866437169631,0.700338206296089
"843",28,38,2,1,123,3,1,1,3,0.601724677331693,0.557857976445391
"844",28,34,2,1,124,3,2,0,1,0.845770664459983,0.813189544771377
"845",28,40,2,2,125,2,2,1,4,0.951760769552121,0.897250186743226
"846",28,38,2,2,126,2,2,1,3,0.484822276799,0.523615814948809
"847",28,33,2,2,127,2,2,1,3,0.669971792491617,0.729340147641605
"848",28,37,2,2,128,1,2,1,4,0.42476444790083,0.420201866882969
"849",28,23,2,1,129,3,2,0,2,1.09224307509872,1.06998362190836
"850",28,36,2,2,130,1,1,0,3,0.64855333707624,0.623645309971792
"851",28,23,2,2,131,1,2,1,4,0.24134460357257,0.135644844752823
"852",28,40,2,2,132,1,2,1,5,0.461119093810528,0.410466441604017
"853",28,38,2,1,133,1,1,1,5,0.356214559227014,0.349711029137504
"854",28,34,2,1,134,1,1,1,4,0.428559624741893,0.323750371047399
"855",28,40,2,1,135,3,2,0,1,1.11345273794926,1.1026070044642
"856",28,38,2,1,136,3,2,0,2,1.17710206906528,1.23539421636489
"857",28,33,2,2,137,3,1,0,2,0.716099126016932,0.684809811408437
"858",28,37,2,2,138,1,2,1,5,0.275853941718645,0.297448695820579
"859",28,23,2,1,139,1,1,1,4,0.466008233512168,0.499851847581775
"860",28,36,2,1,140,1,2,0,4,0.543306038172959,0.590518694301116
"861",28,23,2,1,141,2,2,0,3,0.692369908640004,0.694880149879777
"862",28,40,2,2,142,2,1,0,2,0.832729091885343,0.800301512309121
"863",28,38,2,2,143,1,1,0,4,0.710095354198152,0.673107806435229
"864",28,34,2,2,144,3,1,0,2,0.83811795259902,0.830152402387327
"865",28,40,2,2,145,3,1,0,2,0.383224615819465,0.375641031830689
"866",28,38,2,2,146,2,2,1,3,0.565142170849541,0.550213383534648
"867",28,33,2,2,147,1,2,1,4,0.393539269301044,0.453809940397731
"868",28,37,2,2,148,2,1,0,3,0.593277434067651,0.617289113598955
"869",28,23,2,1,149,1,1,1,4,0.268794959782718,0.271960328991705
"870",28,36,2,2,150,2,1,0,3,0.717251545341755,0.712194324385845
"871",28,23,2,2,151,1,1,0,3,0.468005902259247,0.429516181740995
"872",28,40,2,1,152,2,2,0,2,0.624553222860239,0.656341582545338
"873",28,38,2,2,153,3,1,0,1,0.833725472086397,0.878420809472028
"874",28,34,2,2,154,3,1,0,1,1.55207925924776,1.54607704888279
"875",28,40,2,2,155,3,2,1,3,0.784650135390494,0.802658020781533
"876",28,38,2,1,156,2,2,0,3,0.567440031216388,0.592589528075058
"877",28,33,2,1,157,2,2,0,3,0.630636699690137,0.648694042833604
"878",28,37,2,1,158,2,1,1,3,0.631440978154651,0.627522622998811
"879",28,23,2,1,159,1,1,1,4,0.409375953789651,0.510940496748596
"880",28,36,2,2,160,1,2,1,4,0.437558328983375,0.437822572785295
"881",28,23,2,1,161,2,1,1,3,0.567141614440278,0.554450011373458
"882",28,40,2,1,162,3,2,0,2,0.371420854399532,0.367100269148098
"883",28,38,2,2,163,3,2,1,2,1.1314871459139,1.09633074819368
"884",28,34,2,2,164,1,2,1,5,0.47461140890247,0.517858258205965
"885",28,40,2,1,165,3,2,0,1,0.947246474417281,0.912583424256669
"886",28,38,2,1,166,1,2,0,4,0.523085112167514,0.581942911799112
"887",28,33,2,1,167,1,1,1,5,0.350811884728122,0.403316095898991
"888",28,37,2,2,168,1,2,1,4,0.396740373063275,0.415067714032088
"889",28,23,2,2,169,3,1,0,1,0.779013871365872,0.708827428582603
"890",28,36,2,2,170,2,1,0,3,0.755380766532113,0.778177827916168
"891",28,23,2,1,171,1,1,1,4,0.397870919549935,0.450053234442656
"892",28,40,2,2,172,1,2,1,5,0.369536501641546,0.328680529519508
"893",28,38,2,2,173,1,1,0,3,0.55567702946879,0.53022400014698
"894",28,34,2,1,174,1,1,1,4,0.429906537272091,0.515940176162621
"895",28,40,2,2,175,1,1,0,3,0.574472276149309,0.564893999292905
"896",28,38,2,2,176,2,1,0,3,0.498611035858075,0.498651450724379
"897",28,33,2,1,177,3,1,1,3,0.75574985405112,0.741795005538033
"898",28,37,2,1,178,3,2,0,1,0.66167613524953,0.690225056639869
"899",28,23,2,1,179,2,1,1,3,0.483940786374632,0.550295421210911
"900",28,36,2,1,180,2,1,1,3,0.645879436819572,0.718552690515127
"901",28,23,2,1,181,3,1,1,2,0.753221316076461,0.710431858540716
"902",28,40,2,2,182,1,2,1,4,0.527334367595181,0.564179800623711
"903",28,38,2,2,183,1,2,1,4,0.34371274197432,0.360115372930527
"904",28,34,2,1,184,1,1,1,4,0.526008167099172,0.543023838276107
"905",28,40,2,2,185,1,1,0,4,0.433776731473013,0.476333778634343
"906",28,38,2,1,186,3,2,0,1,0.489718651501363,0.481893933969679
"907",28,33,2,1,187,3,2,0,2,0.969363305825733,0.933871115088076
"908",28,37,2,2,188,2,1,0,2,0.794585831630889,0.774399288876494
"909",28,23,2,1,189,1,1,1,5,0.509609588927668,0.488587853081889
"910",28,36,2,2,190,1,2,1,5,0.418380113222638,0.393385496881036
"911",28,23,2,1,191,1,1,1,5,0.338659644032889,0.403365426882891
"912",28,40,2,2,192,3,2,1,3,0.668440153357127,0.656201913757235
"913",28,38,2,2,193,3,1,0,1,1.16023805806707,1.08558053553053
"914",28,34,2,2,194,1,1,0,4,0.47887344505139,0.496377532608068
"915",28,40,2,1,195,3,1,1,3,0.660884280605729,0.651144434038714
"916",28,38,2,2,196,3,1,0,2,1.15423876736034,1.05675641696963
"917",28,33,2,1,197,3,2,0,1,1.01008130383616,1.00535226730156
"918",28,37,2,1,198,2,1,1,4,0.65253018152611,0.581371706441366
"919",28,23,2,2,199,3,1,0,2,0.910653649217896,0.885769190122284
"920",28,36,2,2,200,1,2,1,5,0.401174361306861,0.353685117707043
"921",28,23,2,2,201,1,2,1,5,0.381039677632305,0.510868411514665
"922",28,40,2,2,202,3,2,1,3,1.01997193196218,0.988662952499932
"923",28,38,2,1,203,3,2,0,2,0.753208728036328,0.727686814062655
"924",28,34,2,2,204,2,2,1,4,0.510976805290123,0.503609954236459
"925",28,40,2,2,205,3,1,0,1,0.739212170081243,0.725703065864431
"926",28,38,2,1,206,2,2,0,3,0.608080776910365,0.582533301975837
"927",28,33,2,2,207,3,1,0,2,0.716485961111381,0.702806270188473
"928",28,37,2,1,208,1,1,1,4,0.474035525091453,0.467261744579299
"929",28,23,2,1,209,1,1,1,5,0.435996937005483,0.328025995171937
"930",28,36,2,2,210,1,2,1,5,0.43636879869306,0.496079315256452
"931",28,23,2,2,211,3,2,1,2,0.670105485406802,0.678416905475694
"932",28,40,2,2,212,1,2,1,4,0.425897411290891,0.407222729095457
"933",28,38,2,1,213,3,1,1,3,0.429472850275501,0.419337385062054
"934",28,34,2,1,214,2,2,0,3,0.947829435951752,1.06400756520807
"935",28,40,2,1,215,3,1,1,3,0.606418900000777,0.609821286115149
"936",28,38,2,1,216,3,2,0,1,0.645416876573242,0.671509109607198
"937",28,33,2,2,217,1,2,1,4,0.360404454495861,0.338358672915154
"938",28,37,2,1,218,3,1,1,3,0.674373983840154,0.651544386338644
"939",28,23,2,2,219,2,2,1,4,0.598210516600797,0.605783144991017
"940",28,36,2,1,220,2,2,0,3,0.690773718927742,0.702381270201889
"941",28,23,2,2,221,1,2,1,5,0.427598932927715,0.467844006296603
"942",28,40,2,2,222,3,2,1,3,0.817331052808539,0.811845838176186
"943",28,38,2,2,223,3,1,0,2,0.423287478150769,0.579480483038105
"944",28,34,2,1,224,1,1,1,5,0.472251713126066,0.482735416764106
"945",28,40,2,1,225,2,2,0,3,0.734568747454663,0.672703504063844
"946",28,38,2,1,226,2,2,0,3,0.660191716001777,0.556688282947323
"947",28,33,2,2,227,3,1,0,2,1.22203418013782,1.2504548461657
"948",28,37,2,2,228,2,2,1,3,0.810383796001016,0.790667446048807
"949",28,23,2,1,229,1,1,1,4,0.304222152071533,0.368586923272548
"950",28,36,2,1,230,2,1,1,3,0.761860026337061,0.687786368599053
"951",28,23,2,1,231,2,2,0,3,0.994856214857084,1.09260160598818
"952",28,40,2,2,232,1,2,1,5,0.431738262050331,0.498553322781548
"953",28,38,2,1,233,2,1,1,4,0.499642418910231,0.425969636279721
"954",28,34,2,1,234,2,1,1,3,0.538101592700067,0.654794133252836
"955",28,40,2,2,235,3,2,1,3,0.764861760626791,0.827954055108357
"956",28,38,2,1,236,3,1,1,3,0.888862524396246,0.857250999937243
"957",28,33,2,2,237,2,2,1,3,0.651413974774578,0.643154245559816
"958",28,37,2,2,238,1,2,1,4,0.438215683023158,0.394372969957306
"959",28,23,2,1,239,3,1,1,2,0.787768581071912,0.766089499229241
"960",28,36,2,1,240,3,1,1,3,0.971316068417144,0.879377879457395
"961",27,25,1,1,1,2,2,0,3,0.939298698398282,0.953219321851019
"962",27,31,1,1,2,1,1,1,4,0.318372027483652,0.280992528495976
"963",27,27,1,2,3,1,2,1,5,0.515325696154003,0.568565710791299
"964",27,37,1,1,4,2,1,1,3,0.65715362549688,0.694216685326828
"965",27,39,1,2,5,3,2,1,2,1.03119633075904,1.05834173908998
"966",27,40,1,1,6,3,2,0,1,0.875310917582259,0.911782163919528
"967",27,22,1,2,7,3,2,1,2,0.891183349388994,0.894102539399112
"968",27,30,1,2,8,1,2,1,5,0.306543988111433,0.333869848625295
"969",27,24,1,1,9,3,1,1,3,0.708721006723383,0.632370335461155
"970",27,22,1,1,10,2,1,1,4,0.756819732169651,0.828315385521117
"971",27,25,1,2,11,2,2,1,3,0.709371209490815,0.808693892174755
"972",27,31,1,2,12,3,2,1,2,1.04635721567326,1.07420975268232
"973",27,27,1,2,13,2,2,1,4,0.684993180190361,0.657215853959128
"974",27,37,1,2,14,2,2,1,4,0.707370616505126,0.640411004858116
"975",27,39,1,1,15,1,1,1,5,0.37799270312916,0.454710337668092
"976",27,40,1,1,16,2,2,0,3,0.848415372864849,0.810969932126846
"977",27,22,1,2,17,3,2,1,2,1.29088226345588,1.26309899476331
"978",27,30,1,1,18,1,1,1,5,0.419643487613601,0.335697184627153
"979",27,24,1,2,19,1,2,1,4,0.467283310198841,0.421443895355882
"980",27,22,1,2,20,2,2,1,3,0.825183921099073,0.823687065418125
"981",27,25,1,1,21,3,2,0,1,1.29481953758349,1.23349123720576
"982",27,31,1,2,22,3,2,1,3,0.636934170096504,0.710134944299264
"983",27,27,1,2,23,1,2,1,5,0.280972629882071,0.274156994456859
"984",27,37,1,2,24,3,1,0,1,1.35809502266647,1.29623019097945
"985",27,39,1,1,25,1,1,1,5,0.485303820755257,0.463944468777288
"986",27,40,1,1,26,1,1,1,4,0.459761691360924,0.619658370199169
"987",27,22,1,1,27,2,1,1,4,0.781636573056347,0.744987453213019
"988",27,30,1,1,28,2,2,0,2,0.611132548844047,0.642624460329219
"989",27,24,1,2,29,1,2,1,4,0.402709216485408,0.379655847539197
"990",27,22,1,2,30,2,2,1,3,0.51596108715723,0.514190372508476
"991",27,25,1,1,31,1,2,0,4,0.647616124265027,0.716134565607583
"992",27,31,1,2,32,2,2,1,4,0.522784719842341,0.546231102157597
"993",27,27,1,1,33,3,1,1,2,0.647896740199011,0.559931716463764
"994",27,37,1,1,34,3,1,1,2,0.993275263706906,0.973670198686284
"995",27,39,1,1,35,1,1,1,4,0.520956501953335,0.550875563995173
"996",27,40,1,1,36,2,2,0,3,0.830430203424238,0.836265603102003
"997",27,22,1,1,37,1,1,1,5,0.392786783281097,0.400371378843112
"998",27,30,1,2,38,1,2,1,4,0.280449693317788,0.234848407117836
"999",27,24,1,2,39,1,2,1,5,0.579952837091949,0.652736700365645
"1000",27,22,1,2,40,2,2,1,4,0.626349691153568,0.627467497862917
"1001",27,25,1,2,41,1,2,1,5,0.428465173538803,0.41028757202311
"1002",27,31,1,2,42,1,2,1,5,0.436159688906187,0.502062386361276
"1003",27,27,1,1,43,1,1,1,5,0.375278396490581,0.393688911046382
"1004",27,37,1,1,44,2,1,1,3,0.529906336988746,0.494468803401339
"1005",27,39,1,2,45,1,2,1,4,0.449444808451581,0.424920706963833
"1006",27,40,1,1,46,3,2,0,1,1.09731691199141,1.18250275866091
"1007",27,22,1,1,47,1,1,1,4,0.462559020397235,0.573147547496106
"1008",27,30,1,1,48,1,2,0,3,0.523092832613281,0.467245271041607
"1009",27,24,1,2,49,3,1,0,1,1.19429480629188,1.22934807282478
"1010",27,22,1,2,50,2,1,0,2,1.12751629638622,1.26664503666112
"1011",27,25,1,1,51,3,1,1,2,0.973051156721351,0.883607403184878
"1012",27,31,1,2,52,3,2,1,2,1.04833124107556,1.04557205878419
"1013",27,27,1,1,53,1,1,1,5,0.390653161731765,0.446639040528094
"1014",27,37,1,1,54,3,2,0,2,0.818093090357281,0.828917946483481
"1015",27,39,1,2,55,3,1,0,1,0.909481417371011,0.856342445783592
"1016",27,40,1,1,56,2,1,1,3,0.626863981839195,0.695819625259562
"1017",27,22,1,2,57,1,2,1,5,0.404635105964427,0.384660235916072
"1018",27,30,1,2,58,1,1,0,3,0.449830331699003,0.401132384193501
"1019",27,24,1,2,59,3,2,1,3,0.392647538608452,0.278200382120649
"1020",27,22,1,2,60,3,2,1,2,1.16986075411934,1.17124944091231
"1021",27,25,1,2,61,3,1,0,2,0.612186057906056,0.716199374337129
"1022",27,31,1,2,62,3,1,0,1,0.688087499461323,0.70178108018346
"1023",27,27,1,1,63,1,2,0,4,0.508850435150578,0.529312892572655
"1024",27,37,1,2,64,1,2,1,4,0.367066239905981,0.368196950908432
"1025",27,39,1,1,65,2,1,1,4,0.955057543875756,1.00655577289028
"1026",27,40,1,2,66,3,2,1,2,0.896537257208622,0.937804587520531
"1027",27,22,1,1,67,2,1,1,4,0.582085080970661,0.611061508192962
"1028",27,30,1,2,68,3,2,1,2,1.20391461605008,1.18760148744343
"1029",27,24,1,2,69,1,1,0,4,0.642284679518438,0.639204392197825
"1030",27,22,1,1,70,2,1,1,4,0.445723569507259,0.355005721073051
"1031",27,25,1,2,71,3,1,0,1,0.896670636280763,0.838350469416067
"1032",27,31,1,1,72,2,2,0,2,0.459709710230204,0.434369594638812
"1033",27,27,1,2,73,3,1,0,2,0.815192150753188,0.89818044790808
"1034",27,37,1,1,74,2,1,1,4,0.331115940887558,0.381552314299496
"1035",27,39,1,2,75,3,1,0,2,0.890894621066351,0.902663726311005
"1036",27,40,1,1,76,3,2,0,2,0.55062871073681,0.421443703159989
"1037",27,22,1,1,77,2,2,0,2,0.735466147546535,0.687806761351376
"1038",27,30,1,2,78,1,2,1,4,0.590021164425022,0.486058639204125
"1039",27,24,1,2,79,3,1,0,1,1.1527952397558,1.08569679715966
"1040",27,22,1,2,80,1,2,1,4,0.439066431005885,0.444004697772874
"1041",27,25,1,1,81,1,1,1,4,0.463788930685532,0.516925877905363
"1042",27,31,1,1,82,3,1,1,2,0.903479985969743,0.890667860142316
"1043",27,27,1,2,83,2,2,1,3,0.639510174852603,0.56445495293477
"1044",27,37,1,2,84,2,2,1,4,0.678108629892658,0.658306013995917
"1045",27,39,1,1,85,2,1,1,4,0.591737664760067,0.614126949022175
"1046",27,40,1,1,86,1,1,1,5,0.330642071764409,0.300920416861678
"1047",27,22,1,1,87,3,2,0,2,1.10725217087423,1.07592691366409
"1048",27,30,1,1,88,3,1,1,3,0.960463666334746,0.943258759446944
"1049",27,24,1,1,89,3,1,1,3,0.499989268141344,0.515153530600605
"1050",27,22,1,1,90,3,2,0,2,1.6760135791028,1.75997119359914
"1051",27,25,1,2,91,2,1,0,2,0.645217457450758,0.617985491430685
"1052",27,31,1,1,92,3,1,1,3,0.6006612723351,0.631867508274439
"1053",27,27,1,1,93,3,2,0,1,1.02477498480218,0.946362823296938
"1054",27,37,1,1,94,1,1,1,4,0.500226817716059,0.442591928765357
"1055",27,39,1,1,95,1,1,1,4,0.430334787247629,0.392246851781044
"1056",27,40,1,2,96,3,1,0,2,0.604494162761777,0.554763067762947
"1057",27,22,1,1,97,1,1,1,5,0.415580582435802,0.419893070034011
"1058",27,30,1,2,98,1,2,1,5,0.575909187702438,0.549183110612584
"1059",27,24,1,2,99,2,1,0,3,0.673198888369111,0.611588209506111
"1060",27,22,1,2,100,2,2,1,3,0.553833130720589,0.541944169213536
"1061",27,25,1,1,101,1,1,1,4,0.258199492238338,0.234456498979913
"1062",27,31,1,2,102,3,1,0,1,1.1522416200077,1.15658447582461
"1063",27,27,1,2,103,2,2,1,4,0.612766553185744,0.644605438801934
"1064",27,37,1,1,104,3,2,0,2,1.02118908260329,1.01266294589282
"1065",27,39,1,2,105,3,1,0,2,1.44916228227511,1.50877855048913
"1066",27,40,1,2,106,1,2,1,4,0.475455056006168,0.594487598764561
"1067",27,22,1,2,107,1,2,1,5,0.388077816901157,0.252225058710889
"1068",27,30,1,1,108,1,1,1,5,0.504327570501931,0.460286913853592
"1069",27,24,1,2,109,2,1,0,3,0.671838783491154,0.694364834987178
"1070",27,22,1,1,110,1,1,1,5,0.482461620878904,0.484636957008517
"1071",27,25,1,2,111,1,2,1,5,0.385459588880904,0.403190812763089
"1072",27,31,1,2,112,2,1,0,3,0.574281750888178,0.552150768884849
"1073",27,27,1,1,113,2,1,1,3,0.633580060462285,0.660990069372896
"1074",27,37,1,2,114,1,2,1,5,0.431079375366849,0.47734441498711
"1075",27,39,1,2,115,1,2,1,5,0.419459087836081,0.403486194598809
"1076",27,40,1,2,116,1,2,1,5,0.244513419151503,0.196378803485493
"1077",27,22,1,2,117,1,2,1,4,0.431658141395776,0.371307213138973
"1078",27,30,1,1,118,1,1,1,5,0.38061747420666,0.327988563042758
"1079",27,24,1,2,119,2,1,0,2,0.749442792395405,0.723545025641196
"1080",27,22,1,1,120,1,2,0,3,0.512432765420446,0.519664103565701
"1081",27,25,1,2,121,3,2,1,3,0.598693363308907,0.614710266446047
"1082",27,31,1,1,122,2,1,1,3,0.743265589825818,0.740380055354804
"1083",27,27,1,2,123,1,2,1,5,0.361129070032434,0.360782603406991
"1084",27,37,1,2,124,3,1,0,1,0.967979053119883,1.02190568116846
"1085",27,39,1,1,125,3,1,1,2,1.06084981625038,1.07019189115547
"1086",27,40,1,1,126,2,1,1,3,0.770693159555276,0.657642981717682
"1087",27,22,1,2,127,1,2,1,5,0.522833489155656,0.46409620655457
"1088",27,30,1,2,128,2,2,1,4,0.521501402108969,0.547057602969431
"1089",27,24,1,1,129,1,1,1,4,0.381180782694087,0.342013469849319
"1090",27,22,1,2,130,2,2,1,4,0.761942709998091,0.783564592817306
"1091",27,25,1,2,131,3,1,0,1,0.552310847291883,0.508260617446201
"1092",27,31,1,2,132,1,2,1,5,0.492423848186282,0.447329298191629
"1093",27,27,1,2,133,1,1,0,3,0.50474683497791,0.591396281812274
"1094",27,37,1,1,134,1,1,1,5,0.360243438023714,0.317966544713767
"1095",27,39,1,1,135,2,1,1,4,0.826066153871945,0.787462347389237
"1096",27,40,1,1,136,2,1,1,4,0.536402565042822,0.579418690952895
"1097",27,22,1,1,137,3,1,1,2,0.546070278438515,0.592327134856476
"1098",27,30,1,2,138,3,2,1,2,0.946743473485155,0.990614297040778
"1099",27,24,1,1,139,3,1,1,2,0.786862845742848,0.81183829118625
"1100",27,22,1,2,140,3,1,0,2,1.13877017775179,1.23269114353944
"1101",27,25,1,2,141,1,2,1,5,0.565264334537916,0.612813120041625
"1102",27,31,1,1,142,2,2,0,3,0.858131576644814,0.793952116432391
"1103",27,27,1,1,143,2,1,1,3,0.458182416932003,0.48010198106516
"1104",27,37,1,2,144,2,1,0,3,0.97276532460203,0.914557350173243
"1105",27,39,1,2,145,3,1,0,2,0.446591710038992,0.402287844101155
"1106",27,40,1,1,146,3,1,1,2,0.806015965071433,0.809248835938658
"1107",27,22,1,2,147,2,1,0,2,0.847147637705211,0.806791647542993
"1108",27,30,1,2,148,2,1,0,2,0.628698955032686,0.597762129564826
"1109",27,24,1,1,149,2,1,1,3,0.665789899921712,0.680234805637962
"1110",27,22,1,2,150,3,2,1,2,1.03715678344931,0.950522096026783
"1111",27,25,1,1,151,3,2,0,1,0.413309940955472,0.480879678101155
"1112",27,31,1,2,152,2,1,0,2,0.894732951927057,0.973513146654279
"1113",27,27,1,2,153,3,2,1,3,0.847653335027786,0.88895178164897
"1114",27,37,1,1,154,1,1,1,4,0.331229628935361,0.325683903545032
"1115",27,39,1,1,155,3,2,0,2,1.09344785272546,1.08810714127849
"1116",27,40,1,1,156,3,2,0,1,1.69331134571384,1.76575217573734
"1117",27,22,1,2,157,3,2,1,3,0.799819951207574,0.789305488523941
"1118",27,30,1,2,158,3,2,1,2,0.770576830333463,0.768834588487375
"1119",27,24,1,1,159,3,2,0,1,0.540303583777072,0.457624835154412
"1120",27,22,1,1,160,3,1,1,3,0.842905097972752,0.928670883480625
"1121",27,25,1,2,161,3,1,0,2,0.664424153435828,0.623038562347886
"1122",27,31,1,1,162,3,1,1,3,0.691353508353292,0.651107915181906
"1123",27,27,1,1,163,2,2,0,2,0.602138023260426,0.684730703282956
"1124",27,37,1,1,164,3,1,1,3,0.976630095469429,1.03008900494596
"1125",27,39,1,2,165,1,2,1,4,0.333685379749909,0.324174262459507
"1126",27,40,1,2,166,2,2,1,3,0.668662146326463,0.712099353313932
"1127",27,22,1,1,167,2,1,1,4,0.611488892089516,0.568688438173285
"1128",27,30,1,1,168,3,2,0,1,0.814517121986239,0.780496542987178
"1129",27,24,1,1,169,2,1,1,4,0.730342726093785,0.727395512380743
"1130",27,22,1,1,170,3,2,0,1,0.500284351367357,0.511919016606726
"1131",27,25,1,1,171,3,2,0,2,1.5989011189114,1.55509017205455
"1132",27,31,1,1,172,2,1,1,3,0.433803355256253,0.524074174368714
"1133",27,27,1,1,173,1,1,1,4,0.45293005633816,0.443013552497508
"1134",27,37,1,1,174,3,2,0,2,0.995458967196643,0.926519813894466
"1135",27,39,1,1,175,2,1,1,3,0.783973222566866,0.782447882847919
"1136",27,40,1,1,176,2,1,1,3,0.570350976479151,0.60045831871102
"1137",27,22,1,1,177,1,2,0,3,0.527693689042935,0.542806454855896
"1138",27,30,1,2,178,2,2,1,4,0.486433566713251,0.481499604196634
"1139",27,24,1,2,179,1,1,0,4,0.608981125968059,0.594364145133597
"1140",27,22,1,2,180,2,2,1,4,0.636339402870941,0.612538478659689
"1141",27,25,1,2,181,2,1,0,3,0.826444894770647,0.849258809155227
"1142",27,31,1,1,182,3,1,1,3,0.675261878942597,0.727105558194146
"1143",27,27,1,1,183,2,1,1,4,0.529828653607372,0.581214045248527
"1144",27,37,1,1,184,1,1,1,5,0.296574236713584,0.250526703027037
"1145",27,39,1,1,185,2,2,0,3,0.661247929857893,0.63084998272522
"1146",27,40,1,1,186,3,2,0,2,0.47625388150192,0.496741866845711
"1147",27,22,1,1,187,1,1,1,5,0.42658200778659,0.448115203345487
"1148",27,30,1,2,188,2,1,0,2,0.561954397769776,0.520559242620006
"1149",27,24,1,2,189,2,2,1,3,0.536193652833851,0.641316025370902
"1150",27,22,1,2,190,3,1,0,2,0.895832581367222,0.943174805268966
"1151",27,25,1,2,191,2,2,1,3,0.621219617312617,0.669406147274863
"1152",27,31,1,2,192,3,1,0,2,1.21780212769492,1.20186355491931
"1153",27,27,1,2,193,1,1,0,4,0.4030901255404,0.377928499774521
"1154",27,37,1,2,194,3,1,0,1,0.937802395662771,1.01047122765428
"1155",27,39,1,2,195,2,1,0,3,0.953761794374542,0.947671582664993
"1156",27,40,1,1,196,3,1,1,2,0.930616741848314,1.01859328667445
"1157",27,22,1,2,197,2,2,1,3,0.816786353209263,0.813055742140643
"1158",27,30,1,2,198,3,2,1,3,0.927531728240912,0.960668810315998
"1159",27,24,1,1,199,3,1,1,2,0.650614662439533,0.720247553417749
"1160",27,22,1,1,200,2,1,1,4,0.627239443653718,0.589541478207928
"1161",27,25,1,1,201,2,1,1,3,0.353393386825523,0.343237114276738
"1162",27,31,1,2,202,3,2,1,3,0.874739109719016,0.850359777529668
"1163",27,27,1,1,203,2,2,0,2,0.783043475144916,0.8381623419067
"1164",27,37,1,1,204,1,1,1,4,0.406004268422392,0.372956162236216
"1165",27,39,1,1,205,2,2,0,3,0.630378640094423,0.595302727115135
"1166",27,40,1,1,206,2,1,1,4,0.739707999303672,0.708153146341481
"1167",27,22,1,1,207,1,1,1,5,0.345451527494652,0.313763763418944
"1168",27,30,1,2,208,3,2,1,2,1.00614976787528,0.973111255971651
"1169",27,24,1,1,209,1,1,1,5,0.544310213396776,0.498331312136355
"1170",27,22,1,2,210,2,1,0,3,0.628018413529334,0.587817714238393
"1171",27,25,1,2,211,2,2,1,3,0.590552006270339,0.599044686923954
"1172",27,31,1,1,212,1,1,1,5,0.484976560650272,0.432797688269578
"1173",27,27,1,2,213,1,2,1,5,0.232033753629294,0.257484583116415
"1174",27,37,1,2,214,1,2,1,5,0.323259761688099,0.385059152369998
"1175",27,39,1,2,215,1,2,1,5,0.32031670944964,0.315918844671439
"1176",27,40,1,2,216,1,2,1,5,0.602303478240167,0.477142260752299
"1177",27,22,1,2,217,1,2,1,4,0.472480407834105,0.55220955753387
"1178",27,30,1,1,218,1,1,1,4,0.496412219502093,0.572527933785328
"1179",27,24,1,1,219,2,1,1,3,0.399764761758942,0.435669376140965
"1180",27,22,1,2,220,2,1,0,3,0.556252556173016,0.596952643577569
"1181",27,25,1,1,221,2,1,1,4,0.617230598399788,0.684698452545242
"1182",27,31,1,1,222,3,2,0,1,1.33929259686323,1.31858646785814
"1183",27,27,1,1,223,1,2,0,4,0.553613565752957,0.550707519701055
"1184",27,37,1,1,224,2,2,0,2,0.680980766657953,0.676925472679039
"1185",27,39,1,2,225,1,1,0,3,0.462965653136524,0.453668231657245
"1186",27,40,1,1,226,2,1,1,3,0.668165092243057,0.718738455816864
"1187",27,22,1,2,227,1,2,1,5,0.412665280655361,0.392766800982099
"1188",27,30,1,1,228,1,1,1,5,0.495357432596458,0.476309886238832
"1189",27,24,1,2,229,2,2,1,3,0.665869456843715,0.642146932193083
"1190",27,22,1,2,230,3,1,0,1,0.514725162447855,0.601782247410758
"1191",27,25,1,2,231,1,2,1,5,0.455319090603933,0.476378929980005
"1192",27,31,1,2,232,3,1,0,2,0.608788627525191,0.651887892446477
"1193",27,27,1,1,233,3,2,0,1,1.42488751263933,1.38587467060547
"1194",27,37,1,1,234,1,1,1,4,0.459584316481784,0.474038317830083
"1195",27,39,1,2,235,3,2,1,2,0.898093748208419,0.953390760203405
"1196",27,40,1,2,236,2,1,0,2,0.820093378619214,0.743484505335996
"1197",27,22,1,1,237,2,1,1,4,0.578124270487223,0.598595347626295
"1198",27,30,1,1,238,2,2,0,2,0.718444179331132,0.741056602278896
"1199",27,24,1,1,239,1,1,1,5,0.379926741644086,0.32792917202562
"1200",27,22,1,2,240,1,2,1,4,0.192788518889308,0.170759293175359
"1201",26,33,2,2,1,3,1,0,2,1.21217282098451,1.20674457200049
"1202",26,32,2,1,2,3,1,1,3,1.20174832507335,1.16409347671695
"1203",26,35,2,2,3,3,1,0,2,-0.405198607446584,-0.39562868051124
"1204",26,27,2,1,4,2,2,0,2,0.50056376952164,0.4628869003573
"1205",26,25,2,2,5,3,1,0,2,1.63183394123412,1.63369156431567
"1206",26,32,2,2,6,3,2,1,2,1.08296438290549,1.03741090916372
"1207",26,30,2,2,7,3,1,0,2,1.38760152745229,1.39770225191405
"1208",26,30,2,1,8,1,1,1,5,0.3863431093424,0.350034443876084
"1209",26,24,2,2,9,3,2,1,3,0.824290616088376,0.824628582155244
"1210",26,32,2,1,10,1,1,1,5,0.325689554996056,0.297629002705427
"1211",26,33,2,2,11,1,1,0,4,0.4775569818244,0.559084619022501
"1212",26,32,2,1,12,2,2,0,3,0.988519764548895,0.932849414037094
"1213",26,35,2,2,13,1,2,1,4,0.328399383732017,0.35121359426466
"1214",26,27,2,2,14,2,1,0,2,0.741045386461972,0.717606057774293
"1215",26,25,2,2,15,1,1,0,4,0.581108215912744,0.586541968075419
"1216",26,32,2,2,16,3,2,1,2,0.976059192738724,0.952431605578556
"1217",26,30,2,2,17,1,2,1,4,0.344580239198593,0.293142321026453
"1218",26,30,2,1,18,1,2,0,3,0.872185329701073,0.844928058626822
"1219",26,24,2,2,19,1,2,1,5,0.371193642795168,0.321948767648325
"1220",26,32,2,2,20,1,2,1,4,0.565819892853177,0.611286330345258
"1221",26,33,2,2,21,3,2,1,2,1.13841158271477,1.09199216578018
"1222",26,32,2,2,22,1,2,1,5,0.390194821950476,0.396619264273871
"1223",26,35,2,1,23,2,2,0,2,0.799670132694442,0.835277470972857
"1224",26,27,2,2,24,3,2,1,3,0.94475422353555,0.896474291333543
"1225",26,25,2,2,25,2,2,1,3,0.759242642857382,0.750689064056515
"1226",26,32,2,2,26,1,2,1,4,0.406536693051884,0.522572962919241
"1227",26,30,2,1,27,1,1,1,4,0.378556139457291,0.36333224033903
"1228",26,30,2,2,28,3,1,0,2,1.33312970487061,1.29305940626041
"1229",26,24,2,2,29,3,2,1,3,0.59944965797774,0.534958740665048
"1230",26,32,2,2,30,2,1,0,2,0.909675991557323,0.856939397855579
"1231",26,33,2,2,31,3,1,0,1,0.764953689113665,0.807449787665516
"1232",26,32,2,1,32,3,2,0,2,1.21744104543251,1.27025843578054
"1233",26,35,2,2,33,3,1,0,2,0.855453861852686,0.892412171010617
"1234",26,27,2,1,34,1,1,1,4,0.367213654209825,0.342695019200888
"1235",26,25,2,2,35,1,1,0,3,0.589774467746083,0.575992640772013
"1236",26,32,2,1,36,1,1,1,5,0.362612637578332,0.371654617440093
"1237",26,30,2,1,37,3,2,0,2,1.09779449794177,1.12609443340076
"1238",26,30,2,1,38,2,1,1,4,0.699261364003403,0.728535570049937
"1239",26,24,2,2,39,3,1,0,1,0.592296592770313,0.558330339610737
"1240",26,32,2,1,40,2,2,0,2,0.7048240275935,0.656196985155287
"1241",26,33,2,2,41,3,2,1,3,0.5361775750149,0.459345212532068
"1242",26,32,2,2,42,1,1,0,3,0.713687353722507,0.661253265831101
"1243",26,35,2,1,43,3,1,1,3,0.7201919198661,0.688485317514152
"1244",26,27,2,1,44,3,1,1,3,1.07443888154993,1.10535475453101
"1245",26,25,2,1,45,3,2,0,2,0.422910539682404,0.402952747488442
"1246",26,32,2,1,46,1,1,1,4,0.385011031611713,0.465161169621579
"1247",26,30,2,1,47,1,1,1,5,0.398040574675662,0.415845857074875
"1248",26,30,2,1,48,3,1,1,3,0.740715487149139,0.849005927170457
"1249",26,24,2,2,49,3,1,0,2,0.589369288363323,0.617707397959611
"1250",26,32,2,2,50,2,1,0,3,0.722416358454501,0.78619391062444
"1251",26,33,2,1,51,2,1,1,3,0.419520413591171,0.42838607311903
"1252",26,32,2,2,52,1,2,1,4,0.301266379587859,0.301643037407295
"1253",26,35,2,2,53,3,2,1,3,0.60497566646656,0.555518204140806
"1254",26,27,2,2,54,2,2,1,3,0.638074194042579,0.639550728522179
"1255",26,25,2,2,55,3,2,1,2,0.715498633480468,0.625541571832194
"1256",26,32,2,1,56,2,1,1,3,0.811344930644359,0.723451460153057
"1257",26,30,2,2,57,2,2,1,3,0.854568936861912,0.824805871151452
"1258",26,30,2,2,58,1,2,1,5,0.458842351730944,0.54999315782443
"1259",26,24,2,2,59,3,1,0,1,1.8117778291187,1.79023669046249
"1260",26,32,2,2,60,2,1,0,3,0.799195836291296,0.786985449204275
"1261",26,33,2,2,61,2,2,1,3,0.610257582276065,0.582379211193304
"1262",26,32,2,2,62,1,2,1,4,0.270591980567914,0.218767674670091
"1263",26,35,2,2,63,2,1,0,2,0.819407675650553,0.821285340778318
"1264",26,27,2,1,64,2,1,1,3,0.366041085855912,0.360375119319682
"1265",26,25,2,1,65,1,1,1,5,0.278281233104832,0.285519669754704
"1266",26,32,2,2,66,2,2,1,3,0.73089878534016,0.744615389322469
"1267",26,30,2,1,67,3,1,1,2,0.787582810614222,0.835183930976915
"1268",26,30,2,2,68,1,2,1,5,0.358470379649554,0.41732206065798
"1269",26,24,2,2,69,1,1,0,4,0.411236018619288,0.480443436445874
"1270",26,32,2,1,70,3,2,0,1,1.33381289584598,1.20896445001299
"1271",26,33,2,2,71,1,1,0,4,0.411111319849962,0.391166410780095
"1272",26,32,2,2,72,2,2,1,3,0.846650065466159,0.80630504503726
"1273",26,35,2,1,73,1,2,0,4,0.794335798647071,0.77537041575489
"1274",26,27,2,2,74,2,1,0,3,0.672293368022088,0.652565287567559
"1275",26,25,2,1,75,1,1,1,4,0.379929177911479,0.429507219013873
"1276",26,32,2,2,76,1,1,0,3,0.613714681329252,0.654957503866783
"1277",26,30,2,2,77,3,2,1,2,0.66128182736891,0.730012186927966
"1278",26,30,2,2,78,3,1,0,2,0.637061191602452,0.627907771301314
"1279",26,24,2,2,79,3,1,0,1,1.01448141581008,1.02490378860256
"1280",26,32,2,1,80,3,1,1,2,0.829008584315869,0.829232037915885
"1281",26,33,2,1,81,2,2,0,2,0.770311323832344,0.752845248153318
"1282",26,32,2,1,82,1,1,1,4,0.434637907757728,0.492773112469269
"1283",26,35,2,2,83,1,2,1,5,0.445911407750725,0.464926813564615
"1284",26,27,2,2,84,2,1,0,2,0.764403439994887,0.835173201920491
"1285",26,25,2,2,85,1,2,1,5,0.424469669486966,0.452224265933006
"1286",26,32,2,2,86,3,1,0,1,1.54843959046099,1.49661764595312
"1287",26,30,2,2,87,2,2,1,4,0.62732271339504,0.67633276517239
"1288",26,30,2,1,88,3,2,0,1,0.696524079222421,0.726599241330326
"1289",26,24,2,1,89,2,2,0,2,0.629881221364629,0.631950874764611
"1290",26,32,2,2,90,2,1,0,2,0.659407160176442,0.62055865413278
"1291",26,33,2,2,91,3,2,1,3,0.993365233368713,1.02719628014773
"1292",26,32,2,2,92,2,1,0,3,0.765004726999585,0.804316128451617
"1293",26,35,2,2,93,3,1,0,2,0.848402431301686,0.798568394048455
"1294",26,27,2,2,94,2,2,1,3,0.520536799066677,0.515076693087658
"1295",26,25,2,2,95,2,2,1,4,0.659606100358289,0.68573157659625
"1296",26,32,2,2,96,3,2,1,2,0.835161434402791,0.901230733807622
"1297",26,30,2,2,97,3,1,0,2,1.38626131743163,1.41731429707648
"1298",26,30,2,1,98,2,2,0,3,0.620583744355614,0.598196559562218
"1299",26,24,2,1,99,3,2,0,1,1.21566745010652,1.19946332378376
"1300",26,32,2,2,100,1,2,1,4,0.353460030316926,0.359728838449027
"1301",26,33,2,1,101,1,1,1,5,0.570210288342335,0.579043650666485
"1302",26,32,2,1,102,2,1,1,4,0.48128017594036,0.480723340297133
"1303",26,35,2,1,103,1,1,1,5,0.338522172322134,0.368255005481282
"1304",26,27,2,1,104,3,1,1,2,0.457394458798711,0.482111388427146
"1305",26,25,2,2,105,2,1,0,3,0.849169484332965,0.872130710296986
"1306",26,32,2,2,106,3,1,0,2,0.881244594158158,0.862821997299263
"1307",26,30,2,2,107,1,2,1,4,0.430976585943556,0.533412696732087
"1308",26,30,2,1,108,1,1,1,4,0.507543221776898,0.569679089810958
"1309",26,24,2,2,109,3,1,0,2,0.832865276498824,0.772856280825267
"1310",26,32,2,2,110,2,2,1,3,0.540342869483765,0.575801114554023
"1311",26,33,2,2,111,2,2,1,3,0.726724063726242,0.788066391947956
"1312",26,32,2,1,112,1,1,1,4,0.45013221160554,0.520850356116105
"1313",26,35,2,1,113,1,1,1,5,0.345614733008588,0.322660314066077
"1314",26,27,2,2,114,2,2,1,3,0.677425560610789,0.635402032050874
"1315",26,25,2,1,115,3,1,1,2,0.898897304559215,0.893191145860013
"1316",26,32,2,1,116,1,1,1,4,0.422897203028571,0.341000579989281
"1317",26,30,2,1,117,1,1,1,5,0.44747610666775,0.443229519934965
"1318",26,30,2,2,118,2,2,1,3,0.726878719453325,0.708232775405563
"1319",26,24,2,1,119,3,2,0,1,0.826979501840851,0.950394917679591
"1320",26,32,2,2,120,1,2,1,5,0.421303863684618,0.430014217559368
"1321",26,33,2,2,121,1,1,0,3,0.491436590033491,0.534507345701004
"1322",26,32,2,1,122,1,1,1,4,0.374338442117467,0.442371686545746
"1323",26,35,2,1,123,3,2,0,2,0.735192722592426,0.750383072697302
"1324",26,27,2,2,124,2,1,0,2,0.659431468247558,0.588462978548453
"1325",26,25,2,1,125,3,1,1,3,0.748132958725783,0.765718896485217
"1326",26,32,2,2,126,1,1,0,3,0.499439579012873,0.538274476760142
"1327",26,30,2,1,127,1,1,1,5,0.473185616756473,0.445866714725168
"1328",26,30,2,1,128,3,2,0,1,0.612834327136041,0.583386954634079
"1329",26,24,2,2,129,2,1,0,2,0.64425414453686,0.702870137313986
"1330",26,32,2,2,130,1,2,1,5,0.271566839103838,0.239592093669797
"1331",26,33,2,1,131,3,1,1,2,0.632765907418039,0.603620449870059
"1332",26,32,2,1,132,2,2,0,2,0.879679001069143,0.855394413440484
"1333",26,35,2,1,133,2,1,1,4,0.277349919501331,0.246121987794024
"1334",26,27,2,1,134,3,1,1,3,0.78100501324435,0.758464901167339
"1335",26,25,2,1,135,1,1,1,5,0.511883989895339,0.427048853355443
"1336",26,32,2,1,136,1,2,0,3,0.597694659885061,0.591948434621971
"1337",26,30,2,1,137,3,2,0,2,0.383732664414817,0.366968295495604
"1338",26,30,2,2,138,3,1,0,1,0.62795930620425,0.548012298766619
"1339",26,24,2,1,139,1,1,1,4,0.331218801643615,0.22112772998623
"1340",26,32,2,2,140,2,2,1,3,0.570601427574974,0.477551642753595
"1341",26,33,2,1,141,3,2,0,1,1.04857322057303,1.03970014332688
"1342",26,32,2,1,142,1,1,1,4,0.259091730936312,0.224130284897372
"1343",26,35,2,2,143,1,1,0,4,0.832250925748586,0.812933318030565
"1344",26,27,2,2,144,3,1,0,1,2.12928228618921,2.12283912511795
"1345",26,25,2,1,145,1,1,1,4,0.310482921437228,0.226495806214897
"1346",26,32,2,1,146,3,2,0,1,1.33821536122596,1.23616549945568
"1347",26,30,2,1,147,3,1,1,2,0.955716378099989,0.873165598919149
"1348",26,30,2,2,148,2,2,1,3,0.405465839167374,0.488797637161589
"1349",26,24,2,1,149,1,1,1,5,0.353285011122378,0.326996689247854
"1350",26,32,2,2,150,2,1,0,3,0.641074601733519,0.62390521697524
"1351",26,33,2,1,151,1,1,1,5,0.529034290862783,0.494379269297981
"1352",26,32,2,1,152,2,2,0,3,0.609636015687143,0.656247003279045
"1353",26,35,2,2,153,2,2,1,4,0.441218835475654,0.439594468083649
"1354",26,27,2,1,154,3,1,1,2,0.876308351473316,0.777185439367704
"1355",26,25,2,2,155,2,2,1,4,0.666527989779204,0.745104727412481
"1356",26,32,2,1,156,2,2,0,2,0.946852380500072,0.869154808744638
"1357",26,30,2,2,157,3,1,0,2,1.44082002806992,1.47767256942854
"1358",26,30,2,1,158,3,1,1,3,0.616446863547327,0.564897460106505
"1359",26,24,2,2,159,2,2,1,3,0.591313888827171,0.615347333435162
"1360",26,32,2,1,160,1,1,1,4,0.364374136668289,0.356584038783603
"1361",26,33,2,1,161,2,2,0,3,0.761391296554414,0.721347478643233
"1362",26,32,2,1,162,2,1,1,4,0.687364814586905,0.749302045274563
"1363",26,35,2,2,163,1,1,0,3,0.539128157118717,0.563744279378694
"1364",26,27,2,1,164,2,1,1,3,0.360748628701005,0.290015306307419
"1365",26,25,2,2,165,2,1,0,2,0.849124594813021,0.789592803833085
"1366",26,32,2,1,166,2,2,0,2,0.73910381653335,0.758470473810221
"1367",26,30,2,1,167,2,2,0,2,0.707447040270108,0.689440629676891
"1368",26,30,2,2,168,1,2,1,5,0.396126443798874,0.421941743565771
"1369",26,24,2,1,169,3,2,0,2,0.390403541359127,0.439505806050496
"1370",26,32,2,1,170,1,1,1,5,0.383790821807405,0.296396067780033
"1371",26,33,2,2,171,2,2,1,3,0.804455857154693,0.790794754065747
"1372",26,32,2,2,172,3,1,0,1,1.08271572385399,1.02985365493548
"1373",26,35,2,1,173,3,2,0,1,1.34417528821923,1.36718576295008
"1374",26,27,2,1,174,2,1,1,3,0.686159369828264,0.695858518564221
"1375",26,25,2,1,175,3,2,0,1,1.81644386844222,1.82625392669747
"1376",26,32,2,2,176,3,1,0,2,1.43299599412478,1.35383395548522
"1377",26,30,2,1,177,2,2,0,2,1.01197424558756,0.97217683889836
"1378",26,30,2,1,178,2,1,1,4,0.475964297319286,0.496567860957695
"1379",26,24,2,1,179,2,2,0,3,0.930357390291468,0.915473822012579
"1380",26,32,2,2,180,1,2,1,5,0.243074441205917,0.16917748588273
"1381",26,33,2,1,181,2,1,1,3,0.360702837282451,0.324860843257956
"1382",26,32,2,1,182,3,1,1,3,0.913825378747698,0.925910319346296
"1383",26,35,2,1,183,1,1,1,5,0.47170097918873,0.445066640160224
"1384",26,27,2,1,184,1,2,0,3,0.499207441951101,0.509677983978116
"1385",26,25,2,1,185,1,1,1,5,0.450409116477519,0.417621399335838
"1386",26,32,2,1,186,2,2,0,3,0.708229842523607,0.703268815383411
"1387",26,30,2,2,187,2,2,1,4,0.585782011280075,0.603499618462647
"1388",26,30,2,2,188,3,2,1,2,0.781274111197533,0.803861613806282
"1389",26,24,2,2,189,1,2,1,5,0.572056495343,0.575234220626343
"1390",26,32,2,1,190,3,2,0,2,1.01136796250682,1.07949484486506
"1391",26,33,2,2,191,1,2,1,5,0.338608701874922,0.313343008090477
"1392",26,32,2,1,192,3,1,1,3,0.829811947781825,0.889764357275257
"1393",26,35,2,2,193,1,2,1,5,0.481010553232838,0.526485492100181
"1394",26,27,2,1,194,3,2,0,2,0.625809614841143,0.590074212855315
"1395",26,25,2,1,195,2,1,1,3,0.567937176210503,0.601416284099535
"1396",26,32,2,1,196,2,1,1,3,0.715340157235963,0.660551337720164
"1397",26,30,2,1,197,3,1,1,3,0.587797457054324,0.58395696221073
"1398",26,30,2,1,198,2,2,0,2,0.654571203559904,0.658531741271089
"1399",26,24,2,1,199,2,1,1,3,0.595738519694128,0.586270099791101
"1400",26,32,2,1,200,1,1,1,4,0.501349780307618,0.557526978650121
"1401",26,33,2,1,201,1,1,1,4,0.363209207189183,0.376581858779398
"1402",26,32,2,1,202,1,1,1,4,0.521016271071501,0.538903083277035
"1403",26,35,2,1,203,3,2,0,1,1.05053252641171,0.985295832437443
"1404",26,27,2,1,204,1,1,1,5,0.379443941444031,0.351871774698564
"1405",26,25,2,2,205,1,1,0,4,0.69100513290611,0.683531093845949
"1406",26,32,2,2,206,1,2,1,5,0.51341433309346,0.474804178741428
"1407",26,30,2,1,207,2,2,0,3,0.412092543237604,0.465550109839698
"1408",26,30,2,2,208,3,2,1,2,0.580256523616308,0.548379243381642
"1409",26,24,2,2,209,2,1,0,3,0.8955214084375,0.886982106996377
"1410",26,32,2,2,210,1,2,1,5,0.46866946513782,0.485450554535961
"1411",26,33,2,1,211,1,1,1,5,0.435822230718181,0.384558380637166
"1412",26,32,2,1,212,3,1,1,2,1.26709597046261,1.37856663769703
"1413",26,35,2,2,213,2,2,1,3,0.652066982997073,0.61769289991907
"1414",26,27,2,1,214,1,1,1,4,0.501677706112997,0.471837991283159
"1415",26,25,2,1,215,1,1,1,4,0.277899143517743,0.351787165626043
"1416",26,32,2,2,216,2,2,1,4,0.949353133812621,0.939107215461771
"1417",26,30,2,1,217,1,1,1,5,0.465550573894732,0.430007671055657
"1418",26,30,2,2,218,2,2,1,3,0.447570463128256,0.412088873465212
"1419",26,24,2,2,219,1,2,1,5,0.220775559798465,0.169269926914601
"1420",26,32,2,1,220,3,2,0,1,0.913655153905544,1.01533531150442
"1421",26,33,2,1,221,2,1,1,3,0.461239461738317,0.483053950709167
"1422",26,32,2,1,222,2,1,1,3,0.647001795499687,0.677331509641907
"1423",26,35,2,1,223,2,2,0,2,0.705736574355906,0.768958190130309
"1424",26,27,2,2,224,1,2,1,4,0.394265382250213,0.347711271112958
"1425",26,25,2,1,225,3,1,1,2,0.85059224107062,0.829617961157777
"1426",26,32,2,2,226,2,2,1,3,0.822626116026468,0.792460747464237
"1427",26,30,2,2,227,2,2,1,4,0.666463681614854,0.663970976816243
"1428",26,30,2,1,228,1,1,1,4,0.391976061810795,0.445311240955567
"1429",26,24,2,2,229,3,2,1,2,0.966067391414825,1.0938047941796
"1430",26,32,2,1,230,2,1,1,3,0.44720268176894,0.366135366099
"1431",26,33,2,1,231,3,1,1,3,0.823602265242048,0.765492605133571
"1432",26,32,2,2,232,3,2,1,2,0.818815844829024,0.772818801580526
"1433",26,35,2,2,233,3,2,1,2,0.965583172994755,0.954231482692022
"1434",26,27,2,1,234,2,1,1,4,0.488399131497278,0.49965746635131
"1435",26,25,2,2,235,2,2,1,3,0.731511579002178,0.775830864339115
"1436",26,32,2,2,236,3,1,0,2,0.659070741670665,0.567893113387305
"1437",26,30,2,1,237,2,1,1,3,0.655139918604189,0.678857015181346
"1438",26,30,2,2,238,2,2,1,3,0.447862494940819,0.510134590247884
"1439",26,24,2,2,239,1,2,1,5,0.336486244768259,0.416338970835268
"1440",26,32,2,1,240,3,2,0,2,0.99275614509125,0.959103004426489
"1441",25,31,1,2,1,2,2,1,3,0.67805154528474,0.711624653794656
"1442",25,26,1,1,2,2,1,1,3,0.383679322290283,0.315455508475476
"1443",25,28,1,2,3,1,2,1,5,0.514014256695182,0.442554786039049
"1444",25,21,1,1,4,2,1,1,3,0.711955088643423,0.796769443006193
"1445",25,26,1,2,5,3,1,0,1,1.15844276984974,1.07667952568262
"1446",25,27,1,1,6,1,1,1,5,0.380229223788286,0.394711179331731
"1447",25,35,1,1,7,1,1,1,5,0.275163883338054,0.252478951648638
"1448",25,29,1,1,8,1,1,1,4,0.492166232629775,0.519439131515032
"1449",25,27,1,1,9,2,2,0,2,0.820884492952669,0.799510863468827
"1450",25,30,1,1,10,1,1,1,5,0.421557866378046,0.425698154798183
"1451",25,31,1,2,11,2,2,1,4,0.430862054716731,0.442907372257997
"1452",25,26,1,2,12,2,1,0,3,0.554567169400177,0.537254909803747
"1453",25,28,1,1,13,2,2,0,3,0.730742784484471,0.654061852827709
"1454",25,21,1,1,14,1,1,1,4,0.406726394894324,0.4528301363779
"1455",25,26,1,1,15,3,2,0,1,1.92124978792158,1.95092791212625
"1456",25,27,1,2,16,1,1,0,3,0.487349863211348,0.552416512772826
"1457",25,35,1,1,17,2,1,1,4,0.701097149428262,0.696538997354488
"1458",25,29,1,1,18,2,1,1,4,0.605004680555311,0.556013078342424
"1459",25,27,1,2,19,1,2,1,4,0.474018464033637,0.467818746168913
"1460",25,30,1,1,20,2,1,1,3,0.562308227922782,0.546448877565318
"1461",25,31,1,2,21,1,2,1,4,0.210444414535001,0.236386827878457
"1462",25,26,1,2,22,1,2,1,5,0.448676627456429,0.380900829013447
"1463",25,28,1,2,23,1,2,1,5,0.476128136854205,0.395773581275444
"1464",25,21,1,1,24,2,1,1,3,0.524826654902373,0.507355551861197
"1465",25,26,1,1,25,3,2,0,1,1.61221913416179,1.6391298663242
"1466",25,27,1,2,26,2,1,0,3,0.828045612467319,0.855245812139426
"1467",25,35,1,1,27,3,1,1,3,0.986633065212446,0.989991342978852
"1468",25,29,1,2,28,3,2,1,3,0.892466162081646,0.935086969237812
"1469",25,27,1,2,29,3,1,0,1,0.690904212754827,0.724228338744472
"1470",25,30,1,1,30,2,1,1,4,0.493495063358907,0.383487040305466
"1471",25,31,1,2,31,3,2,1,3,1.02590465067875,0.978128814333739
"1472",25,26,1,2,32,1,2,1,4,0.297556839624658,0.262213053863107
"1473",25,28,1,1,33,3,1,1,2,0.751924308446656,0.80349700022085
"1474",25,21,1,2,34,3,1,0,2,1.48467542946604,1.57394871697952
"1475",25,26,1,1,35,2,1,1,3,0.662467864976735,0.771582391989772
"1476",25,27,1,2,36,3,2,1,2,1.04914249150769,1.05312439324032
"1477",25,35,1,2,37,1,2,1,5,0.484809543841334,0.544981389986427
"1478",25,29,1,1,38,3,1,1,2,0.72987690242809,0.785620925166249
"1479",25,27,1,1,39,3,2,0,1,0.820236612103195,0.824732972887241
"1480",25,30,1,1,40,1,1,1,4,0.427273116815416,0.499709064356774
"1481",25,31,1,2,41,2,1,0,2,0.84901827957421,0.827548616443934
"1482",25,26,1,1,42,2,1,1,4,0.815769810286225,0.798446449773762
"1483",25,28,1,2,43,1,2,1,4,0.268660186669823,0.216854673452907
"1484",25,21,1,2,44,3,1,0,1,1.0373957952377,1.05891766501619
"1485",25,26,1,2,45,1,2,1,5,0.362650272693509,0.406129627266942
"1486",25,27,1,1,46,3,2,0,2,0.652645359730803,0.648353554473123
"1487",25,35,1,2,47,3,1,0,1,0.789429919129715,0.819747521020572
"1488",25,29,1,1,48,2,2,0,2,0.531931011205576,0.53584610032803
"1489",25,27,1,1,49,2,1,1,4,0.620935822571754,0.582307460488641
"1490",25,30,1,2,50,2,2,1,4,0.494167412415488,0.593785058353029
"1491",25,31,1,2,51,3,1,0,1,1.25422848145847,1.26366184602268
"1492",25,26,1,1,52,1,1,1,4,0.467105861828716,0.528534792908783
"1493",25,28,1,1,53,3,1,1,2,0.892697666689584,0.85247107656544
"1494",25,21,1,1,54,1,1,1,5,0.464740210657972,0.451190308043001
"1495",25,26,1,1,55,3,2,0,2,1.26300473317268,1.2229005737235
"1496",25,27,1,1,56,3,2,0,1,0.927952741342898,0.92333233838959
"1497",25,35,1,2,57,2,2,1,3,0.541474688946605,0.566605502309343
"1498",25,29,1,1,58,1,1,1,4,0.418134513083979,0.46196675180341
"1499",25,27,1,1,59,3,2,0,2,1.23713606331609,1.22423224300759
"1500",25,30,1,2,60,3,2,1,3,0.737448524018961,0.744830345723805
"1501",25,31,1,1,61,3,1,1,2,0.710309212829576,0.672971886364206
"1502",25,26,1,2,62,2,2,1,4,0.547189894003891,0.550295559490292
"1503",25,28,1,1,63,2,2,0,3,0.507626348986023,0.588363859312615
"1504",25,21,1,1,64,1,1,1,4,0.538790073400698,0.483934615389866
"1505",25,26,1,1,65,2,1,1,3,0.398042346155647,0.409640737417104
"1506",25,27,1,1,66,1,1,1,4,0.501423238171359,0.497766985222277
"1507",25,35,1,1,67,3,2,0,2,0.926977798030949,0.972415901984672
"1508",25,29,1,2,68,2,2,1,4,0.522550222516415,0.452906580138855
"1509",25,27,1,2,69,3,2,1,2,0.808165056766505,0.782314395789522
"1510",25,30,1,1,70,1,1,1,4,0.39446681574444,0.3805761751357
"1511",25,31,1,1,71,2,1,1,4,0.77610770380651,0.751842607179982
"1512",25,26,1,2,72,1,2,1,4,0.323889641309548,0.325945387002456
"1513",25,28,1,1,73,1,2,0,4,0.576104896501543,0.552741756905069
"1514",25,21,1,1,74,3,1,1,2,1.24244693837559,1.25838960039052
"1515",25,26,1,1,75,3,1,1,2,0.996739634239172,1.09229920648602
"1516",25,27,1,2,76,3,1,0,1,1.18091914050442,1.0963348385337
"1517",25,35,1,1,77,1,1,1,5,0.369492725596444,0.409943263360509
"1518",25,29,1,2,78,2,2,1,4,0.644174790214127,0.601476406235456
"1519",25,27,1,1,79,1,1,1,4,0.372159701780923,0.352177446289422
"1520",25,30,1,2,80,3,1,0,2,0.717997045576531,0.797270488228965
"1521",25,31,1,1,81,3,1,1,3,0.897535809145022,0.757496036501642
"1522",25,26,1,2,82,3,1,0,2,1.06148810714347,1.07366177791777
"1523",25,28,1,1,83,2,1,1,3,0.578684449510251,0.637027119027773
"1524",25,21,1,1,84,1,1,1,5,0.40912617500333,0.459441615245639
"1525",25,26,1,2,85,1,2,1,5,0.435406547100882,0.314651347213669
"1526",25,27,1,2,86,2,2,1,3,0.527329007871557,0.550179981352295
"1527",25,35,1,2,87,2,2,1,4,0.475401571055409,0.408902462743332
"1528",25,29,1,1,88,3,2,0,1,0.897032719707736,0.884090876906257
"1529",25,27,1,1,89,1,1,1,4,0.486942701225585,0.446694115402076
"1530",25,30,1,2,90,1,2,1,4,0.275808017697868,0.323899436545326
"1531",25,31,1,2,91,2,2,1,3,0.700922550250969,0.673282436295107
"1532",25,26,1,2,92,1,2,1,4,0.509672446123704,0.503206310343626
"1533",25,28,1,1,93,1,1,1,4,0.40356992010374,0.355785847803635
"1534",25,21,1,2,94,2,2,1,3,0.822820577363644,0.816935301771237
"1535",25,26,1,2,95,2,2,1,3,0.559695774293056,0.529774772072448
"1536",25,27,1,2,96,2,2,1,3,0.408208371532483,0.390372643417489
"1537",25,35,1,1,97,3,1,1,3,0.592514685542784,0.576725923817412
"1538",25,29,1,1,98,2,2,0,3,0.922700675581131,0.938718004820606
"1539",25,27,1,2,99,1,2,1,5,0.254588299072052,0.27940328936516
"1540",25,30,1,2,100,2,2,1,4,0.518745579043453,0.580034967916479
"1541",25,31,1,2,101,3,2,1,3,0.494475766742269,0.56590759935202
"1542",25,26,1,2,102,2,2,1,3,0.70163052679514,0.745416494356352
"1543",25,28,1,2,103,3,1,0,2,0.949901495971569,0.99037856850522
"1544",25,21,1,2,104,2,2,1,3,0.348930677196049,0.35453996345337
"1545",25,26,1,2,105,1,1,0,3,0.557411634630831,0.473639670178577
"1546",25,27,1,2,106,2,1,0,2,0.79589542815878,0.83792027997852
"1547",25,35,1,2,107,3,1,0,1,1.18159932042202,1.20480569637446
"1548",25,29,1,2,108,3,2,1,2,1.07096529141466,1.06306853526817
"1549",25,27,1,2,109,1,1,0,4,0.593491050957185,0.503761026835584
"1550",25,30,1,2,110,1,1,0,3,0.489452515649142,0.448982476583485
"1551",25,31,1,1,111,3,1,1,2,1.11616686305667,1.19803143184467
"1552",25,26,1,2,112,2,2,1,4,0.657016486178227,0.680802126894566
"1553",25,28,1,1,113,1,1,1,4,0.441092332817738,0.369711653125778
"1554",25,21,1,1,114,1,2,0,3,0.515667675202262,0.415196529698772
"1555",25,26,1,1,115,2,2,0,2,0.77185843356328,0.850162519425746
"1556",25,27,1,1,116,3,1,1,3,0.716449663193091,0.661297729644024
"1557",25,35,1,1,117,3,1,1,3,0.701254016494804,0.622631745264687
"1558",25,29,1,1,118,1,1,1,5,0.480157108730148,0.536414044177745
"1559",25,27,1,2,119,3,2,1,2,0.931401324033934,0.89869666883693
"1560",25,30,1,2,120,1,2,1,4,0.525506479020399,0.459120726957295
"1561",25,31,1,2,121,2,2,1,4,0.535972567714917,0.530658717945714
"1562",25,26,1,2,122,2,1,0,3,0.684666014408054,0.723175178355696
"1563",25,28,1,2,123,2,2,1,4,0.640941571976295,0.609850063233773
"1564",25,21,1,1,124,2,2,0,3,0.697043628135338,0.729986700635883
"1565",25,26,1,2,125,1,2,1,4,0.300265389407376,0.225915035246468
"1566",25,27,1,2,126,3,2,1,2,0.990796382751742,0.990997433136409
"1567",25,35,1,2,127,3,1,0,1,1.17277912951791,1.1565343874458
"1568",25,29,1,1,128,1,1,1,5,0.464526973476712,0.414312229305207
"1569",25,27,1,1,129,3,1,1,3,1.14392384712861,1.15983834715458
"1570",25,30,1,2,130,1,2,1,4,0.365284183763973,0.343550493085779
"1571",25,31,1,2,131,2,1,0,3,0.780892896617206,0.743914044580374
"1572",25,26,1,1,132,3,1,1,2,1.09128210232493,1.08648184880399
"1573",25,28,1,2,133,1,2,1,4,0.312661587495194,0.252122594016607
"1574",25,21,1,1,134,3,1,1,2,1.00618432432695,1.00242240913908
"1575",25,26,1,1,135,2,1,1,4,0.848233724147461,0.852813054659
"1576",25,27,1,1,136,2,1,1,4,0.616485338119067,0.546813489313067
