"","subj_no","age","group","stim","trial","difficulty","resp","corr","conf","RT_day1","RT_day2"
"1",32,19,2,1,1,1,1,1,4,0.49211196592877,0.434685788692559
"2",32,38,2,2,2,1,1,0,4,0.487524588155821,0.448959381825679
"3",32,36,2,2,3,2,1,0,3,0.596380615498146,0.478712730247321
"4",32,29,2,1,4,2,1,1,3,0.464652646530901,0.423050654227958
"5",32,25,2,2,5,2,2,1,4,0.629388757229841,0.614514569670497
"6",32,40,2,1,6,1,1,1,4,0.324584157697032,0.416014559471266
"7",32,21,2,2,7,2,1,0,3,0.832472891230381,0.840487738903315
"8",32,39,2,1,8,3,2,0,2,1.21321700125276,1.24501391140876
"9",32,39,2,1,9,3,2,0,2,1.18291021832085,1.20562169934068
"10",32,18,2,1,10,1,1,1,4,0.408498643571215,0.416200561027249
"11",32,19,2,2,11,1,2,1,4,0.485151575114491,0.537670511586675
"12",32,38,2,2,12,3,2,1,3,1.14447127257834,1.11432247573461
"13",32,36,2,1,13,1,1,1,5,0.345985180347945,0.375719303153078
"14",32,29,2,1,14,3,1,1,2,0.622795509252622,0.623812379865749
"15",32,25,2,1,15,3,2,0,2,0.782944294158759,0.690138999661379
"16",32,40,2,1,16,2,2,0,3,0.745151564731257,0.685343524295398
"17",32,21,2,2,17,2,1,0,3,0.409097117345826,0.35847437484095
"18",32,39,2,1,18,2,2,0,3,0.648852764507545,0.64218403736048
"19",32,39,2,1,19,2,2,0,3,0.80744236157462,0.805890783971957
"20",32,18,2,2,20,2,2,1,4,0.654798546761276,0.73784154842617
"21",32,19,2,1,21,2,2,0,3,0.884342192771345,0.918675844990974
"22",32,38,2,2,22,1,2,1,5,0.421952191969796,0.474494598357128
"23",32,36,2,1,23,2,1,1,3,0.63541289975444,0.541410075803731
"24",32,29,2,1,24,2,1,1,4,0.924558682533897,0.909490164049322
"25",32,25,2,2,25,2,1,0,3,0.484013188117247,0.509556157184741
"26",32,40,2,1,26,3,2,0,2,0.72590229379553,0.672059717452541
"27",32,21,2,2,27,1,2,1,5,0.385178078348745,0.458802038646143
"28",32,39,2,2,28,3,1,0,1,0.97347459258685,1.00808859929645
"29",32,39,2,1,29,3,1,1,3,0.855385529584948,0.871098156526048
"30",32,18,2,2,30,3,1,0,2,0.800079534245245,0.725109603178995
"31",32,19,2,2,31,1,2,1,4,0.408415187635004,0.471000628029147
"32",32,38,2,2,32,1,2,1,5,0.424533427262516,0.401365754557191
"33",32,36,2,2,33,3,2,1,2,0.918892168339094,0.908802165096038
"34",32,29,2,2,34,3,1,0,1,1.5182063002981,1.5380113885003
"35",32,25,2,1,35,3,2,0,1,1.7288698478846,1.75904817092958
"36",32,40,2,2,36,1,1,0,4,0.438336122243132,0.490945224785013
"37",32,21,2,1,37,2,1,1,4,0.745315900481243,0.745154168040314
"38",32,39,2,1,38,3,2,0,2,0.872425156835112,0.832235305056676
"39",32,39,2,2,39,3,2,1,3,0.571038090178029,0.579136041393354
"40",32,18,2,1,40,1,1,1,5,0.43938914200412,0.456203024386373
"41",32,19,2,2,41,1,2,1,5,0.415664550274912,0.438301034095547
"42",32,38,2,2,42,1,2,1,4,0.299359407574732,0.216864651202347
"43",32,36,2,2,43,2,1,0,2,0.754741664364313,0.706202746982385
"44",32,29,2,1,44,3,1,1,2,0.481865125260725,0.466602181659163
"45",32,25,2,1,45,2,1,1,4,0.757547206621879,0.799901175226393
"46",32,40,2,2,46,1,1,0,3,0.630747462033534,0.574721499731156
"47",32,21,2,2,47,3,1,0,2,0.905173518313178,0.996664372499707
"48",32,39,2,1,48,1,1,1,4,0.424537272752669,0.438479090868215
"49",32,39,2,2,49,2,2,1,4,0.597233801973253,0.496731557617961
"50",32,18,2,1,50,3,1,1,3,0.823745147445505,0.888398619616233
"51",32,19,2,1,51,2,1,1,4,0.602257876151254,0.605584986074163
"52",32,38,2,1,52,1,1,1,5,0.38657116796708,0.33622023139716
"53",32,36,2,1,53,1,1,1,4,0.297674414381796,0.235259472963798
"54",32,29,2,2,54,2,1,0,3,0.734626702383375,0.730871967865083
"55",32,25,2,1,55,2,1,1,3,0.698865797422859,0.767113907918236
"56",32,40,2,1,56,3,1,1,3,0.664943791531782,0.694406799095998
"57",32,21,2,2,57,3,1,0,1,1.38534268333615,1.33632851753053
"58",32,39,2,1,58,2,2,0,3,0.864094805639991,0.970714727382271
"59",32,39,2,2,59,1,2,1,4,0.484711327407388,0.452463337708762
"60",32,18,2,2,60,2,2,1,4,0.418051429101828,0.450575108706478
"61",32,19,2,1,61,1,1,1,4,0.405643319748384,0.419579141448019
"62",32,38,2,1,62,1,1,1,4,0.422675057137365,0.491841725347857
"63",32,36,2,1,63,1,1,1,4,0.446567003482187,0.35305638411374
"64",32,29,2,2,64,1,1,0,3,0.489005292178669,0.519766637197555
"65",32,25,2,1,65,2,1,1,4,0.756500889489768,0.801732601554723
"66",32,40,2,2,66,1,2,1,4,0.486894949040257,0.530346993291701
"67",32,21,2,1,67,3,2,0,1,0.422128317270966,0.40887959283574
"68",32,39,2,1,68,3,2,0,1,1.17638048730759,1.20337469065152
"69",32,39,2,1,69,2,1,1,3,0.591643971300094,0.589364335205075
"70",32,18,2,2,70,1,2,1,4,0.364328729795011,0.336071067857006
"71",32,19,2,2,71,1,2,1,5,0.394072439028947,0.409729124809299
"72",32,38,2,2,72,1,2,1,5,0.374282085579852,0.453175135127442
"73",32,36,2,1,73,2,1,1,3,0.432054976902697,0.457851263629868
"74",32,29,2,2,74,3,2,1,3,0.960850308060891,1.04587649524529
"75",32,25,2,1,75,3,2,0,2,0.684601826228545,0.653403962542388
"76",32,40,2,2,76,3,2,1,2,0.827001901428084,0.816567341148124
"77",32,21,2,1,77,3,2,0,1,1.33811152707547,1.30265554653008
"78",32,39,2,1,78,1,1,1,5,0.308828313534298,0.334425006362002
"79",32,39,2,1,79,3,2,0,2,0.934830652759042,0.947268463391496
"80",32,18,2,2,80,1,1,0,4,0.582030522826694,0.56540246933305
"81",32,19,2,1,81,1,1,1,4,0.372103986114586,0.277735872547882
"82",32,38,2,2,82,1,2,1,5,0.354613646398865,0.369322570275354
"83",32,36,2,2,83,3,1,0,2,1.14183684117544,1.1259408265906
"84",32,29,2,1,84,2,2,0,3,0.618097500707221,0.586141387935056
"85",32,25,2,1,85,1,1,1,4,0.424321413860114,0.501315488717411
"86",32,40,2,1,86,2,1,1,3,0.587965147129918,0.591960083361935
"87",32,21,2,2,87,1,1,0,3,0.444618970293951,0.556898012687989
"88",32,39,2,2,88,2,2,1,3,0.449086374325616,0.39296478393527
"89",32,39,2,1,89,3,1,1,3,0.890930301111909,1.01384024126157
"90",32,18,2,1,90,1,1,1,4,0.310618287157155,0.282437705336053
"91",32,19,2,2,91,1,2,1,5,0.486996731899838,0.433249704519404
"92",32,38,2,2,92,1,1,0,3,0.537018106653947,0.524932451333591
"93",32,36,2,1,93,1,2,0,3,0.46976709933371,0.489454806372234
"94",32,29,2,2,94,3,1,0,1,0.6837261679313,0.708431763584117
"95",32,25,2,2,95,3,2,1,3,0.680317765623458,0.667238406032351
"96",32,40,2,2,96,3,1,0,1,0.951412229986025,1.00731672455296
"97",32,21,2,1,97,2,1,1,3,0.688472536472239,0.572830097784445
"98",32,39,2,1,98,3,1,1,3,0.944659573933995,0.938223663818142
"99",32,39,2,1,99,2,2,0,3,0.389377648601543,0.422409163334418
"100",32,18,2,2,100,1,2,1,5,0.311383658088479,0.395915052292342
"101",32,19,2,2,101,1,2,1,4,0.441379890433592,0.515583753008514
"102",32,38,2,1,102,2,2,0,3,0.353757389308774,0.320076405255166
"103",32,36,2,2,103,3,2,1,2,0.567740007117538,0.522254906978227
"104",32,29,2,1,104,1,1,1,4,0.535129605929957,0.564656020524263
"105",32,25,2,2,105,1,2,1,4,0.376875912937389,0.421216952398953
"106",32,40,2,1,106,3,2,0,1,0.944756829831547,0.947925117301866
"107",32,21,2,1,107,2,1,1,3,0.697305350375099,0.714522395470819
"108",32,39,2,2,108,3,2,1,2,0.384439702446966,0.351745336675223
"109",32,39,2,2,109,1,2,1,4,0.505040440131888,0.508949879329519
"110",32,18,2,1,110,3,2,0,1,0.745055426245805,0.76822573295414
"111",32,19,2,2,111,3,2,1,2,0.683219109381724,0.715416213945654
"112",32,38,2,2,112,3,2,1,2,0.73325923132454,0.704759187868795
"113",32,36,2,2,113,2,2,1,3,0.846706472472195,0.77324738746301
"114",32,29,2,2,114,3,2,1,3,0.458659105192032,0.470482560687034
"115",32,25,2,2,115,1,2,1,4,0.401174535126927,0.430223224055679
"116",32,40,2,2,116,1,2,1,4,0.27556649410674,0.236751444287908
"117",32,21,2,2,117,1,2,1,5,0.302668705364163,0.345899659418074
"118",32,39,2,1,118,1,1,1,5,0.451701937570799,0.519181139109962
"119",32,39,2,1,119,1,2,0,4,0.356063989596673,0.381348958488612
"120",32,18,2,1,120,3,1,1,3,0.737470261224279,0.800041691291047
"121",32,19,2,2,121,3,2,1,2,0.947005121033172,1.05912577946744
"122",32,38,2,2,122,2,1,0,3,0.88225270408095,0.935496334668194
"123",32,36,2,2,123,2,2,1,4,0.552161855329465,0.532902756554209
"124",32,29,2,1,124,3,2,0,2,0.39375639197688,0.387226333135362
"125",32,25,2,2,125,2,1,0,3,0.612428352538559,0.600163165501334
"126",32,40,2,2,126,3,1,0,1,0.860129367341656,0.835073892784332
"127",32,21,2,1,127,3,2,0,2,0.966080579257314,1.01249250358293
"128",32,39,2,2,128,1,2,1,5,0.478390743375926,0.401513512957611
"129",32,39,2,2,129,1,2,1,5,0.267452741227165,0.281537521186184
"130",32,18,2,2,130,3,1,0,1,0.6584086678609,0.674475728772582
"131",32,19,2,2,131,3,1,0,1,1.20453197548113,1.27419965345801
"132",32,38,2,1,132,2,1,1,3,0.480054333397712,0.536579823166472
"133",32,36,2,1,133,2,1,1,3,0.438255609481593,0.411698742904486
"134",32,29,2,2,134,3,1,0,2,0.704100912946798,0.726807469050598
"135",32,25,2,2,135,2,1,0,2,0.782844530523493,0.899665893999257
"136",32,40,2,1,136,3,2,0,2,0.745393887251566,0.713427183668367
"137",32,21,2,1,137,3,2,0,2,1.04260323674261,0.9958018878088
"138",32,39,2,1,138,3,2,0,2,1.04443772406146,1.00541892890156
"139",32,39,2,1,139,3,1,1,3,1.17789066247717,1.17598102142775
"140",32,18,2,2,140,1,1,0,3,0.670429524412091,0.638446102393192
"141",32,19,2,2,141,2,2,1,4,0.608090262487008,0.523939011378284
"142",32,38,2,1,142,3,1,1,3,0.607493169586742,0.583416266938156
"143",32,36,2,1,143,2,2,0,3,0.643078468270168,0.630585892582634
"144",32,29,2,2,144,3,1,0,1,0.517061763300213,0.600260346553937
"145",32,25,2,1,145,1,1,1,4,0.497742703619732,0.529929695446202
"146",32,40,2,1,146,2,1,1,3,0.45311595894093,0.462978617566874
"147",32,21,2,2,147,2,1,0,2,0.808992227182812,0.767566972797055
"148",32,39,2,2,148,1,2,1,5,0.251085218424453,0.236815312797112
"149",32,39,2,2,149,1,2,1,5,0.489293166364615,0.494063621937133
"150",32,18,2,2,150,3,2,1,3,1.15930383367913,1.11620046437919
"151",32,19,2,2,151,1,1,0,4,0.519751250757829,0.617659877032621
"152",32,38,2,2,152,1,2,1,4,0.361378253024878,0.455236074477482
"153",32,36,2,1,153,3,1,1,3,0.581572613003847,0.541128170414043
"154",32,29,2,2,154,2,2,1,4,0.581378748167762,0.57940025579322
"155",32,25,2,2,155,1,2,1,4,0.529858772448123,0.527111353974967
"156",32,40,2,1,156,2,2,0,2,0.662501208802748,0.563089074652966
"157",32,21,2,1,157,3,1,1,2,0.731675722735237,0.748208887449141
"158",32,39,2,2,158,2,2,1,3,0.525482786055891,0.557660634996162
"159",32,39,2,2,159,3,1,0,2,0.569422803518964,0.587268144397818
"160",32,18,2,1,160,2,1,1,3,0.54292994285595,0.594766492045139
"161",32,19,2,2,161,2,2,1,3,0.468289112041272,0.446214852394529
"162",32,38,2,1,162,1,1,1,5,0.296535552864023,0.256067102425286
"163",32,36,2,1,163,3,1,1,2,0.723969521179991,0.751975498941122
"164",32,29,2,2,164,3,1,0,1,0.605262864553975,0.705094599091882
"165",32,25,2,1,165,2,2,0,2,0.594784819532406,0.559770789973054
"166",32,40,2,2,166,3,1,0,1,0.758989615209777,0.778323699781982
"167",32,21,2,2,167,3,2,1,3,0.865503897050887,0.849436891494338
"168",32,39,2,2,168,2,2,1,3,0.649693135007859,0.689725008468501
"169",32,39,2,1,169,2,1,1,4,0.567509810522399,0.51334139873573
"170",32,18,2,1,170,2,2,0,2,0.463465452193948,0.43666427779118
"171",32,19,2,2,171,3,1,0,1,0.948673517108101,0.981452370557076
"172",32,38,2,2,172,2,2,1,3,0.566710274111264,0.529775654903075
"173",32,36,2,2,173,2,1,0,2,0.765313229643262,0.744179145705524
"174",32,29,2,2,174,2,2,1,3,0.624834427657077,0.52405510304288
"175",32,25,2,1,175,2,1,1,3,0.651019801203999,0.685669974255043
"176",32,40,2,2,176,2,2,1,4,0.495959035205763,0.401930707797538
"177",32,21,2,1,177,2,1,1,4,0.810569829483273,0.862276192425362
"178",32,39,2,1,178,2,1,1,4,0.557541197494129,0.56017090072551
"179",32,39,2,1,179,1,1,1,5,0.316797576316077,0.252832924635119
"180",32,18,2,1,180,1,2,0,3,0.661683383072873,0.595959690874925
"181",32,19,2,1,181,1,1,1,4,0.374650443115365,0.40115109024498
"182",32,38,2,2,182,2,2,1,3,0.321233612282381,0.237191435837571
"183",32,36,2,1,183,1,1,1,5,0.360554240272292,0.30906938098562
"184",32,29,2,1,184,2,2,0,3,0.577827639671628,0.636921240309453
"185",32,25,2,2,185,2,2,1,4,0.613596103046609,0.567886128806531
"186",32,40,2,1,186,2,1,1,3,0.674850991154779,0.590492882175666
"187",32,21,2,1,187,2,2,0,2,0.679820540643751,0.633247300686234
"188",32,39,2,2,188,1,2,1,4,0.277069940554752,0.252417752697441
"189",32,39,2,2,189,3,2,1,2,1.21487317271695,1.1468346695188
"190",32,18,2,1,190,3,2,0,2,1.32995554627724,1.35543597368707
"191",32,19,2,1,191,1,1,1,4,0.502269887880498,0.5861640857891
"192",32,38,2,1,192,2,2,0,2,0.704556678852019,0.633471570539364
"193",32,36,2,2,193,2,1,0,3,0.73636192626532,0.717982924819494
"194",32,29,2,2,194,3,1,0,1,1.50746080888183,1.45520691772197
"195",32,25,2,2,195,3,1,0,1,1.11132503741353,1.18064331379767
"196",32,40,2,1,196,1,2,0,4,0.653543240285328,0.654016374289114
"197",32,21,2,2,197,3,2,1,2,0.636783907105745,0.737352117083473
"198",32,39,2,1,198,3,1,1,2,0.768577422834523,0.80220081141089
"199",32,39,2,1,199,2,1,1,4,0.748542971823243,0.714694985619454
"200",32,18,2,1,200,3,2,0,1,1.09819307822088,1.23431850109476
"201",32,19,2,2,201,3,2,1,3,0.686905588214975,0.722410338233195
"202",32,38,2,2,202,2,1,0,2,1.0433815143056,1.02494047960673
"203",32,36,2,1,203,2,1,1,3,0.617464251108369,0.56180457038102
"204",32,29,2,2,204,1,2,1,5,0.480372641849361,0.439429276058574
"205",32,25,2,2,205,1,1,0,3,0.594264113321173,0.543363480348123
"206",32,40,2,2,206,2,2,1,4,0.84994379945099,0.845638989845444
"207",32,21,2,1,207,1,1,1,5,0.371820764244976,0.370336830197976
"208",32,39,2,1,208,3,1,1,2,0.464023799422146,0.42246898878944
"209",32,39,2,1,209,1,2,0,3,0.434450849373222,0.450515362098293
"210",32,18,2,1,210,1,1,1,4,0.403214346805659,0.368490158458248
"211",32,19,2,1,211,2,1,1,3,0.599785892280914,0.579315192436352
"212",32,38,2,1,212,3,1,1,3,0.901211850692264,0.82784367932815
"213",32,36,2,1,213,1,1,1,4,0.389571116384652,0.279487180027845
"214",32,29,2,2,214,1,2,1,4,0.324920491893031,0.274611757321701
"215",32,25,2,2,215,1,2,1,5,0.499090119937028,0.534285080608008
"216",32,40,2,2,216,1,2,1,5,0.391463730299246,0.44121653086793
"217",32,21,2,1,217,1,1,1,5,0.461404201957288,0.483776299253114
"218",32,39,2,2,218,1,2,1,4,0.444668499854088,0.421872563205856
"219",32,39,2,2,219,3,2,1,2,0.616788669559751,0.673376294984131
"220",32,18,2,1,220,3,1,1,3,0.693640871147493,0.706742777024842
"221",32,19,2,1,221,1,1,1,4,0.423803383248938,0.32657156207852
"222",32,38,2,1,222,2,1,1,4,0.449419911050589,0.421185086031243
"223",32,36,2,1,223,3,1,1,3,0.877266653917892,0.919349311323539
"224",32,29,2,2,224,2,2,1,3,0.614576120549142,0.646695889063513
"225",32,25,2,1,225,3,2,0,1,0.719805749832728,0.703720423020028
"226",32,40,2,2,226,1,2,1,4,0.510636855792245,0.448588371847064
"227",32,21,2,1,227,2,2,0,2,0.771006192696112,0.645789465985087
"228",32,39,2,2,228,2,2,1,3,0.580109196635244,0.635024852021368
"229",32,39,2,1,229,2,2,0,3,0.494505281068106,0.424111333825152
"230",32,18,2,2,230,1,2,1,5,0.386424487539089,0.285992252921947
"231",32,19,2,2,231,3,2,1,2,1.14867801392988,1.0947083068409
"232",32,38,2,1,232,1,1,1,4,0.490641543991789,0.461030052109772
"233",32,36,2,2,233,3,2,1,3,0.528149927026379,0.397535782402567
"234",32,29,2,1,234,3,2,0,1,0.2120165377731,0.183074659220869
"235",32,25,2,1,235,2,1,1,3,0.616294454286088,0.5728168075124
"236",32,40,2,2,236,3,2,1,3,0.566990341591849,0.495532696265344
"237",32,21,2,1,237,2,1,1,3,0.577461531889853,0.630861556028112
"238",32,39,2,2,238,2,2,1,4,0.733232505281268,0.694151392244488
"239",32,39,2,2,239,1,2,1,4,0.433665079692029,0.405059824297508
"240",32,18,2,1,240,2,2,0,2,0.788838884675686,0.781835596515826
"241",31,39,1,2,1,3,2,1,3,0.734032078295408,0.78859732504759
"242",31,26,1,2,2,2,2,1,3,0.64518094585079,0.683939697791429
"243",31,23,1,1,3,3,2,0,2,0.414336397395788,0.455272228264392
"244",31,36,1,2,4,2,1,0,3,0.776136708001013,0.802809491713808
"245",31,21,1,2,5,1,2,1,4,0.325761671070819,0.286145812773504
"246",31,32,1,1,6,3,1,1,2,0.718463051493144,0.742301337925235
"247",31,23,1,2,7,2,1,0,3,0.607800185125614,0.551861818181212
"248",31,33,1,2,8,3,1,0,2,0.95272446081145,1.00000528470994
"249",31,40,1,1,9,3,2,0,1,0.597461668879963,0.596102577071105
"250",31,39,1,1,10,2,2,0,2,0.747918366265061,0.764835694524399
"251",31,39,1,1,11,2,1,1,3,0.632654778962496,0.645525829115783
"252",31,26,1,1,12,1,2,0,3,0.667123306150326,0.603923453740858
"253",31,23,1,1,13,1,1,1,5,0.477844393202148,0.554976306686074
"254",31,36,1,1,14,3,1,1,3,0.499012569898777,0.541562684165141
"255",31,21,1,1,15,2,1,1,4,0.521336487821888,0.492585337986524
"256",31,32,1,2,16,2,1,0,3,0.826706246777782,0.835920684418853
"257",31,23,1,2,17,1,2,1,4,0.282838168706281,0.253553433498488
"258",31,33,1,1,18,2,1,1,4,0.499745463382283,0.38572279659366
"259",31,40,1,2,19,2,1,0,2,0.412909230035054,0.373458214756741
"260",31,39,1,1,20,2,2,0,2,0.692184449382722,0.629974326434326
"261",31,39,1,2,21,2,2,1,3,0.715272940315468,0.745744496197196
"262",31,26,1,2,22,3,2,1,3,0.829745668198691,0.84785769583877
"263",31,23,1,1,23,2,1,1,4,0.562422652487518,0.551013806131423
"264",31,36,1,2,24,1,2,1,5,0.287474813672928,0.301612037784526
"265",31,21,1,2,25,2,2,1,3,0.574481103404767,0.607609429682204
"266",31,32,1,1,26,2,1,1,3,0.678531076524962,0.681171405859677
"267",31,23,1,2,27,3,2,1,3,0.983972921340366,0.912385990923526
"268",31,33,1,2,28,2,2,1,4,0.603081503254746,0.698421899193047
"269",31,40,1,2,29,2,2,1,4,0.723833415206417,0.707503542223957
"270",31,39,1,2,30,1,1,0,3,0.422171297180964,0.455978221614154
"271",31,39,1,2,31,2,1,0,3,0.895569676219101,0.792139177953022
"272",31,26,1,2,32,1,1,0,3,0.416488466746172,0.484069568600514
"273",31,23,1,2,33,1,2,1,4,0.428908562963644,0.315369218969458
"274",31,36,1,2,34,3,2,1,2,0.714044692273725,0.767314898634189
"275",31,21,1,2,35,1,2,1,5,0.254877798270855,0.195419128742556
"276",31,32,1,2,36,1,2,1,5,0.360105112235961,0.358014243930946
"277",31,23,1,1,37,1,1,1,4,0.347560992676892,0.426449230847055
"278",31,33,1,2,38,2,1,0,3,0.651538388798656,0.668392125313254
"279",31,40,1,1,39,3,1,1,3,0.959514765432949,0.943881970967719
"280",31,39,1,2,40,3,1,0,1,1.19359045070066,1.16470129113249
"281",31,39,1,2,41,3,2,1,3,0.923838250257583,0.913826954492158
"282",31,26,1,1,42,3,2,0,2,1.05506202500154,1.04064065740472
"283",31,23,1,1,43,3,1,1,2,0.651689766109253,0.616254258006735
"284",31,36,1,1,44,3,2,0,1,0.770865063470316,0.660461494337635
"285",31,21,1,2,45,2,2,1,3,0.736866928975754,0.744155676840942
"286",31,32,1,2,46,2,1,0,2,0.835923580016314,0.834944217506877
"287",31,23,1,1,47,2,2,0,2,0.858450792437932,0.913248783708919
"288",31,33,1,2,48,2,2,1,3,0.802995052992301,0.862662654589459
"289",31,40,1,2,49,3,1,0,1,1.45722166712193,1.35105638248261
"290",31,39,1,1,50,2,2,0,2,0.333928467734978,0.325673637421456
"291",31,39,1,2,51,2,1,0,3,0.710642353987301,0.742534490769931
"292",31,26,1,1,52,2,2,0,3,0.629822850124485,0.592922664154665
"293",31,23,1,1,53,3,1,1,3,0.675212110163516,0.69085399183319
"294",31,36,1,2,54,3,2,1,2,1.00659917166499,1.06414509663386
"295",31,21,1,1,55,1,1,1,4,0.486091301541862,0.494102708698742
"296",31,32,1,2,56,1,2,1,4,0.404056459080727,0.505524722775134
"297",31,23,1,1,57,2,2,0,3,0.906316598908667,0.839909999127363
"298",31,33,1,1,58,1,1,1,4,0.417999308942044,0.424704091183423
"299",31,40,1,2,59,2,1,0,3,0.6333562354179,0.656805544273498
"300",31,39,1,2,60,2,1,0,3,0.689968380271365,0.653637616345907
"301",31,39,1,1,61,1,1,1,4,0.50489758485904,0.586073315128622
"302",31,26,1,1,62,3,2,0,1,1.93507120044802,1.99333475932593
"303",31,23,1,2,63,3,2,1,3,1.1308624667291,1.21464464582409
"304",31,36,1,1,64,3,2,0,1,0.31854065295852,0.375862002972804
"305",31,21,1,2,65,3,2,1,2,1.25403519460788,1.25227921341269
"306",31,32,1,2,66,1,2,1,5,0.216708769920172,0.174798766694713
"307",31,23,1,2,67,1,2,1,4,0.413296024625814,0.392156736945639
"308",31,33,1,2,68,3,1,0,1,0.909575539068679,0.914095238233458
"309",31,40,1,2,69,1,2,1,5,0.436275725361167,0.424301875821824
"310",31,39,1,1,70,3,1,1,2,0.951517575233841,1.06371708726836
"311",31,39,1,1,71,3,1,1,3,1.14404992857948,1.17517795413759
"312",31,26,1,1,72,3,2,0,1,1.31870129366503,1.24733697667293
"313",31,23,1,2,73,1,2,1,5,0.224050356715911,0.217309274994487
"314",31,36,1,2,74,1,2,1,4,0.418140681188888,0.479021409544918
"315",31,21,1,2,75,2,2,1,4,0.558305754257795,0.614279214474822
"316",31,32,1,2,76,1,1,0,3,0.459590223245826,0.472330153086472
"317",31,23,1,1,77,3,2,0,1,1.32024664175444,1.33376426216017
"318",31,33,1,1,78,2,2,0,3,0.782666155653875,0.752350964676468
"319",31,40,1,1,79,1,1,1,5,0.302418917647681,0.344080202290001
"320",31,39,1,1,80,3,1,1,3,0.690083937140958,0.701831682066106
"321",31,39,1,2,81,3,1,0,2,0.629438562259986,0.658906841173834
"322",31,26,1,2,82,3,2,1,3,1.08682211741476,1.11536086610756
"323",31,23,1,2,83,2,1,0,2,0.867446231192671,0.833212337413258
"324",31,36,1,1,84,3,1,1,2,0.87449985243888,0.861264614942168
"325",31,21,1,1,85,2,2,0,2,0.674621537346175,0.787113685136636
"326",31,32,1,1,86,3,1,1,2,0.462035800421989,0.420815884127032
"327",31,23,1,2,87,2,1,0,2,0.589886359645608,0.505706651270283
"328",31,33,1,1,88,1,1,1,4,0.378741383518719,0.390770605305252
"329",31,40,1,1,89,1,1,1,4,0.381220684259627,0.401142078568087
"330",31,39,1,1,90,3,2,0,2,0.709038893494445,0.684586775931388
"331",31,39,1,2,91,2,1,0,2,0.652237986895949,0.652969831548823
"332",31,26,1,2,92,1,2,1,5,0.558380044242869,0.496516637860833
"333",31,23,1,1,93,2,2,0,2,0.8656041213634,0.857393336172836
"334",31,36,1,2,94,1,2,1,4,0.41868173541113,0.46202938115509
"335",31,21,1,1,95,2,1,1,4,0.430274049555388,0.416113706203369
"336",31,32,1,1,96,2,2,0,3,0.748102528503339,0.675791400296732
"337",31,23,1,1,97,3,2,0,2,1.08620152301392,1.11169076398366
"338",31,33,1,2,98,2,1,0,3,0.859389146085797,0.865442519417146
"339",31,40,1,1,99,2,2,0,2,0.901327566169302,0.959050399648931
"340",31,39,1,2,100,1,1,0,4,0.616595455531917,0.580313278924118
"341",31,39,1,1,101,1,1,1,5,0.327915906268688,0.378040213361449
"342",31,26,1,2,102,2,1,0,2,0.664228428875963,0.666615023098953
"343",31,23,1,2,103,1,2,1,5,0.41081679026118,0.457537392603913
"344",31,36,1,2,104,1,2,1,4,0.368278342263116,0.40969099135131
"345",31,21,1,2,105,1,2,1,5,0.519574825579279,0.507390514476487
"346",31,32,1,1,106,3,1,1,3,0.937614768875032,1.01831174789127
"347",31,23,1,2,107,2,1,0,3,0.720745225089143,0.742458887437524
"348",31,33,1,1,108,3,1,1,2,0.619219343289485,0.524717155252545
"349",31,40,1,2,109,1,2,1,4,0.439201643927862,0.576220348842104
"350",31,39,1,1,110,3,2,0,2,0.402988595946646,0.389420212276414
"351",31,39,1,1,111,1,1,1,5,0.494569553375992,0.533627754205556
"352",31,26,1,1,112,1,2,0,4,0.429557336165697,0.29704672356844
"353",31,23,1,2,113,1,2,1,5,0.388330157800848,0.270734121764291
"354",31,36,1,1,114,2,2,0,2,0.794933647740859,0.773066989340158
"355",31,21,1,1,115,3,1,1,2,0.900775986185655,0.912143362145909
"356",31,32,1,1,116,1,2,0,4,0.562299837158296,0.546719357299457
"357",31,23,1,1,117,2,2,0,2,0.777206167778483,0.753687312531015
"358",31,33,1,1,118,1,1,1,4,0.153505244361831,0.25403036041857
"359",31,40,1,1,119,1,1,1,5,0.604999801941298,0.609934491904394
"360",31,39,1,1,120,1,1,1,4,0.447699802437164,0.417913367968694
"361",31,39,1,2,121,3,1,0,1,0.821336749415729,0.817316615658334
"362",31,26,1,2,122,3,1,0,1,1.11965037098826,1.14193893375679
"363",31,23,1,2,123,1,2,1,4,0.335812950746587,0.275194928891112
"364",31,36,1,1,124,1,1,1,5,0.356341175819181,0.276654831879889
"365",31,21,1,1,125,3,2,0,1,1.32381094561765,1.40349048579295
"366",31,32,1,2,126,2,1,0,2,0.561482835403112,0.532902199396563
"367",31,23,1,1,127,1,1,1,5,0.451781188438161,0.431951695323178
"368",31,33,1,2,128,3,2,1,2,0.817772367959838,0.870788704301624
"369",31,40,1,1,129,1,1,1,5,0.227981095487413,0.228400534399354
"370",31,39,1,1,130,3,2,0,2,1.32112646312815,1.37389883138207
"371",31,39,1,1,131,3,1,1,3,0.761306328462385,0.765964695841488
"372",31,26,1,2,132,3,1,0,2,1.0632809761058,1.09214570654614
"373",31,23,1,2,133,1,2,1,5,0.23869431689917,0.265869212696509
"374",31,36,1,2,134,2,1,0,3,0.874773116704434,0.916285251313067
"375",31,21,1,2,135,2,2,1,4,0.550899426399354,0.603271365926952
"376",31,32,1,1,136,1,1,1,4,0.404235838517357,0.394669051812455
"377",31,23,1,1,137,1,1,1,4,0.239031726099919,0.259857457573975
"378",31,33,1,2,138,1,1,0,4,0.499909140156346,0.436692186389093
"379",31,40,1,1,139,3,2,0,2,0.917537044009661,0.93624305380183
"380",31,39,1,1,140,2,1,1,4,0.598086301786254,0.582099221384336
"381",31,39,1,1,141,2,2,0,3,0.642299899429402,0.661360475705509
"382",31,26,1,1,142,2,2,0,3,0.8180418841086,0.854996247483519
"383",31,23,1,2,143,2,2,1,3,0.539436411025041,0.584039042067254
"384",31,36,1,2,144,2,1,0,2,0.8769175324086,0.786348846852043
"385",31,21,1,2,145,2,1,0,3,0.843081861094626,0.750863743231429
"386",31,32,1,2,146,1,2,1,4,0.35805701820845,0.369973989746283
"387",31,23,1,1,147,3,1,1,2,0.724153349693243,0.802672842393035
"388",31,33,1,2,148,3,2,1,2,0.965803082535713,0.967475933173147
"389",31,40,1,2,149,3,1,0,1,0.963343026397482,0.923190716022473
"390",31,39,1,1,150,3,2,0,1,0.893692659302299,0.948216616356068
"391",31,39,1,2,151,2,1,0,2,0.610546442269559,0.616209506751444
"392",31,26,1,2,152,2,1,0,2,0.490684363931611,0.481002882141509
"393",31,23,1,2,153,2,2,1,3,0.653432694582093,0.684604100204126
"394",31,36,1,1,154,2,1,1,4,0.559057475558448,0.485662721060448
"395",31,21,1,1,155,3,1,1,2,0.774281452307584,0.73803211499207
"396",31,32,1,2,156,1,2,1,5,0.433748383199507,0.407678368771361
"397",31,23,1,2,157,1,2,1,5,0.444918554434946,0.463207853438725
"398",31,33,1,1,158,2,2,0,2,0.701252977280841,0.711076851506183
"399",31,40,1,2,159,3,2,1,2,0.573921217177237,0.628600971641108
"400",31,39,1,1,160,2,1,1,4,0.666030077911418,0.636229946327911
"401",31,39,1,1,161,3,1,1,3,0.977738606974924,0.982275506864893
"402",31,26,1,1,162,1,1,1,4,0.428157984628052,0.450441784827498
"403",31,23,1,1,163,1,1,1,5,0.423456259578962,0.534997094473603
"404",31,36,1,1,164,1,1,1,5,0.416667540885447,0.39419744588754
"405",31,21,1,2,165,2,2,1,4,0.614579556171519,0.681288470347953
"406",31,32,1,1,166,1,1,1,4,0.337291350952985,0.356249211744786
"407",31,23,1,1,167,1,1,1,5,0.376990609894456,0.42445590740656
"408",31,33,1,1,168,3,1,1,2,0.543954535501463,0.550605703598984
"409",31,40,1,1,169,3,1,1,3,0.995444641336949,1.0224390225652
"410",31,39,1,2,170,3,1,0,2,1.16998107690175,1.12453641755638
"411",31,39,1,2,171,1,1,0,4,0.648969532402478,0.523402822748776
"412",31,26,1,1,172,3,1,1,3,0.462539132988461,0.386921573804915
"413",31,23,1,1,173,1,1,1,4,0.331302861488874,0.340412674936204
"414",31,36,1,2,174,2,2,1,4,0.562405138565129,0.548485070320453
"415",31,21,1,2,175,1,2,1,4,0.333264201346561,0.380030034364562
"416",31,32,1,1,176,3,2,0,2,0.718132250237826,0.733657852976457
"417",31,23,1,2,177,2,1,0,3,0.804257695591346,0.769666335712724
"418",31,33,1,1,178,2,2,0,3,0.655086625500217,0.684364131452522
"419",31,40,1,1,179,1,2,0,3,0.370126213670316,0.412019455903802
"420",31,39,1,2,180,2,1,0,2,0.820221735324043,0.81252330722192
"421",31,39,1,1,181,1,1,1,4,0.262735407294395,0.308883930729435
"422",31,26,1,2,182,1,2,1,4,0.284642065077952,0.188046399527471
"423",31,23,1,2,183,3,1,0,1,1.23974630056173,1.2492176993633
"424",31,36,1,1,184,2,1,1,3,0.486939629062881,0.561578777749348
"425",31,21,1,1,185,1,1,1,5,0.455591002540754,0.492723435682763
"426",31,32,1,2,186,1,2,1,4,0.348985192841774,0.329791407180961
"427",31,23,1,2,187,3,1,0,1,0.686199598644415,0.731441449713343
"428",31,33,1,1,188,2,1,1,4,0.48032566889748,0.525110880305156
"429",31,40,1,1,189,3,2,0,2,0.626578145091143,0.639890885277117
"430",31,39,1,1,190,1,2,0,3,0.446281600858442,0.417044304149257
"431",31,39,1,1,191,3,2,0,2,0.955459036530006,1.01333382925917
"432",31,26,1,2,192,1,2,1,4,0.394647145656911,0.417781339377396
"433",31,23,1,2,193,3,1,0,2,0.776444562804023,0.751795787215389
"434",31,36,1,1,194,3,2,0,2,1.26002952545691,1.22571980445585
"435",31,21,1,2,195,1,2,1,5,0.479071123866664,0.437815733533677
"436",31,32,1,1,196,1,2,0,4,0.45221149301371,0.439133201918358
"437",31,23,1,1,197,1,1,1,5,0.333963739591146,0.369371452448125
"438",31,33,1,2,198,1,2,1,4,0.47606907920322,0.464296362308123
"439",31,40,1,2,199,1,2,1,5,0.291112912404434,0.314981319729849
"440",31,39,1,1,200,1,2,0,4,0.498273031280803,0.563660391841247
"441",31,39,1,2,201,3,1,0,1,0.516155640569589,0.514529624683656
"442",31,26,1,1,202,1,1,1,4,0.472447916381614,0.493144684538711
"443",31,23,1,1,203,2,2,0,3,0.744747705242744,0.755613361131147
"444",31,36,1,2,204,2,2,1,4,0.705182340625006,0.747106154801967
"445",31,21,1,2,205,2,2,1,4,0.746241592585556,0.71544609993289
"446",31,32,1,1,206,2,2,0,3,0.951592907028505,0.942081138148577
"447",31,23,1,1,207,3,2,0,1,1.08246456729327,1.06472119495492
"448",31,33,1,2,208,3,2,1,2,0.111280259848902,0.149804018461648
"449",31,40,1,1,209,2,1,1,4,0.575626863255834,0.540078267201136
"450",31,39,1,2,210,3,2,1,3,0.698826787593481,0.72055619069181
"451",31,39,1,1,211,3,2,0,2,0.576826797207359,0.623250099687565
"452",31,26,1,2,212,1,1,0,4,0.495986586907067,0.552633157781378
"453",31,23,1,2,213,3,2,1,3,1.00726858639389,0.95974208094211
"454",31,36,1,2,214,3,1,0,1,1.24247367912291,1.29145210244299
"455",31,21,1,2,215,2,1,0,3,0.711019884261413,0.646802736910976
"456",31,32,1,2,216,2,2,1,3,0.542900391136242,0.55197703003798
"457",31,23,1,1,217,1,1,1,4,0.211306620872656,0.292738532152649
"458",31,33,1,1,218,3,1,1,2,1.13395721787659,1.12368651097536
"459",31,40,1,2,219,3,1,0,2,0.718435210256801,0.686464018446402
"460",31,39,1,1,220,3,1,1,3,0.728284909389658,0.737245952036429
"461",31,39,1,1,221,2,2,0,3,0.401696623517265,0.435109184238597
"462",31,26,1,2,222,2,1,0,3,0.684482261207969,0.577829231187302
"463",31,23,1,1,223,3,2,0,1,1.0779709016561,1.0843167439805
"464",31,36,1,1,224,1,1,1,4,0.306571528507474,0.364075302312358
"465",31,21,1,2,225,1,2,1,4,0.442969702751011,0.424146611855051
"466",31,32,1,2,226,3,1,0,2,0.741968701079607,0.717420419121508
"467",31,23,1,1,227,1,1,1,5,0.532887062370023,0.44071144764374
"468",31,33,1,2,228,2,1,0,2,0.898332630734967,0.906234398073821
"469",31,40,1,2,229,1,2,1,5,0.562274177177982,0.564274603068788
"470",31,39,1,2,230,3,1,0,1,1.03188365741958,1.03154923403827
"471",31,39,1,1,231,3,1,1,3,0.957567142817633,0.959731038008573
"472",31,26,1,1,232,2,1,1,3,0.678173693607231,0.738659439198852
"473",31,23,1,2,233,2,2,1,3,0.732467075239394,0.723618130753811
"474",31,36,1,2,234,2,2,1,4,0.645904180933872,0.571364950581892
"475",31,21,1,2,235,2,1,0,3,0.821195167769943,0.823567896955196
"476",31,32,1,1,236,2,1,1,3,0.607001537646458,0.577199850053765
"477",31,23,1,1,237,3,2,0,2,0.767508205338557,0.687229319533066
"478",31,33,1,2,238,1,1,0,3,0.348424254767741,0.285153659037033
"479",31,40,1,1,239,3,1,1,2,0.70404829863511,0.719235521611013
"480",31,39,1,1,240,1,1,1,4,0.298061376091442,0.307365595259592
"481",30,33,2,1,1,2,2,0,2,0.727858766188425,0.761275605921261
"482",30,34,2,1,2,3,2,0,2,1.48397929116957,1.50585086637306
"483",30,27,2,2,3,1,2,1,5,0.523575857031506,0.477948649077708
"484",30,20,2,2,4,3,1,0,1,1.26504795580157,1.27914098660242
"485",30,18,2,2,5,3,1,0,1,1.70212307089747,1.6355243753274
"486",30,18,2,2,6,2,2,1,3,0.630659920614686,0.729145270781512
"487",30,37,2,1,7,1,1,1,4,0.268960215624396,0.1387770314374
"488",30,28,2,2,8,1,2,1,5,0.478085675113666,0.413926137522448
"489",30,26,2,2,9,1,2,1,5,0.326910135781256,0.366737657767244
"490",30,21,2,1,10,3,1,1,2,0.759800329153404,0.718775580630754
"491",30,33,2,1,11,1,1,1,4,0.360050442094358,0.191054138105676
"492",30,34,2,1,12,1,1,1,4,0.347035900607325,0.425631747327213
"493",30,27,2,2,13,1,2,1,4,0.32410887814543,0.291858701342158
"494",30,20,2,2,14,1,2,1,5,0.252007812257521,0.199197407473179
"495",30,18,2,2,15,1,2,1,4,0.470894486853069,0.519560318997932
"496",30,18,2,2,16,2,1,0,3,0.707336624464473,0.665355560051531
"497",30,37,2,1,17,3,1,1,2,1.00042274324816,1.02369281313092
"498",30,28,2,1,18,2,1,1,4,0.612341167954418,0.608522989208855
"499",30,26,2,2,19,1,2,1,5,0.405362245189961,0.458937245624103
"500",30,21,2,2,20,2,2,1,4,0.781084449309112,0.794340166351435
"501",30,33,2,1,21,3,1,1,2,0.888221012518438,0.877860277921932
"502",30,34,2,1,22,2,2,0,2,0.855282696081123,0.862284580881085
"503",30,27,2,1,23,1,1,1,5,0.361332230269072,0.335373823053151
"504",30,20,2,1,24,3,2,0,2,1.04591287541593,1.06947942362252
"505",30,18,2,1,25,2,1,1,3,0.83499328056424,0.832716328673495
"506",30,18,2,2,26,3,1,0,2,1.08984137599612,0.992700685404726
"507",30,37,2,2,27,2,1,0,3,0.603145512583453,0.556437076504927
"508",30,28,2,2,28,1,2,1,5,0.300422705792418,0.292009151409761
"509",30,26,2,2,29,2,1,0,2,0.650002997284921,0.680153463461004
"510",30,21,2,2,30,1,2,1,4,0.314757975338155,0.378194942126842
"511",30,33,2,2,31,1,2,1,4,0.465330858763247,0.462942165904599
"512",30,34,2,2,32,3,2,1,3,0.874807317768356,0.789465906803686
"513",30,27,2,1,33,3,2,0,2,1.24127693132033,1.26138419519787
"514",30,20,2,1,34,2,2,0,3,0.528149303746894,0.516486737894061
"515",30,18,2,2,35,2,2,1,4,0.73316523742862,0.748024939071181
"516",30,18,2,2,36,1,2,1,5,0.451379464459355,0.431371553563354
"517",30,37,2,1,37,3,1,1,3,0.80844654174609,0.778227471495374
"518",30,28,2,1,38,1,1,1,4,0.410315249361329,0.362525327982417
"519",30,26,2,2,39,2,1,0,2,0.615845509172086,0.594187783877099
"520",30,21,2,2,40,2,1,0,2,0.96634446628685,1.00375013275243
"521",30,33,2,1,41,2,1,1,3,0.839361732686242,0.910860305282014
"522",30,34,2,1,42,3,1,1,3,0.980147786325011,0.998448898684731
"523",30,27,2,1,43,1,1,1,4,0.478871481839813,0.483522690804471
"524",30,20,2,1,44,3,2,0,1,0.994049786487619,0.934514002362543
"525",30,18,2,1,45,3,2,0,2,0.992836335213123,1.00961724167239
"526",30,18,2,1,46,2,1,1,3,0.701548349486478,0.630917245601956
"527",30,37,2,2,47,3,1,0,2,1.14994961127324,1.12780830980663
"528",30,28,2,1,48,2,2,0,2,0.621025776901127,0.512991884459901
"529",30,26,2,1,49,2,1,1,4,0.511604137724059,0.480364428039718
"530",30,21,2,2,50,2,1,0,3,0.668298685518681,0.674140953490527
"531",30,33,2,1,51,1,1,1,5,0.372196941644749,0.432914348193998
"532",30,34,2,2,52,2,2,1,4,0.525383390429834,0.622925109938461
"533",30,27,2,1,53,2,1,1,3,0.836061086830987,0.896517759339667
"534",30,20,2,1,54,1,1,1,4,0.353656848813853,0.215013246085907
"535",30,18,2,1,55,2,1,1,4,0.653368453371115,0.729282423820214
"536",30,18,2,1,56,2,1,1,4,0.710821589627131,0.658984867989401
"537",30,37,2,2,57,3,1,0,2,1.05158715032718,1.12600521038384
"538",30,28,2,1,58,1,1,1,5,0.38281672987436,0.425923288620574
"539",30,26,2,2,59,3,2,1,2,0.860565740049099,0.790648783095118
"540",30,21,2,2,60,2,1,0,3,0.634319592198023,0.683151190729854
"541",30,33,2,1,61,1,1,1,5,0.410771979183895,0.435852969517334
"542",30,34,2,2,62,3,2,1,2,1.17734071784382,1.22303038887716
"543",30,27,2,1,63,3,1,1,2,0.956378030206296,0.955182591272224
"544",30,20,2,2,64,3,1,0,1,1.00263087498447,1.01670082299444
"545",30,18,2,2,65,1,2,1,5,0.383113263176902,0.370616775831822
"546",30,18,2,1,66,3,1,1,3,0.792157054093256,0.887288950485115
"547",30,37,2,1,67,1,1,1,5,0.397054931840874,0.38114954921611
"548",30,28,2,2,68,3,2,1,3,0.680131860475445,0.644717293664027
"549",30,26,2,2,69,1,2,1,5,0.394021207129453,0.350570564657684
"550",30,21,2,2,70,2,1,0,2,0.676378275084862,0.739086906200181
"551",30,33,2,2,71,2,2,1,4,0.51910864851843,0.547490177245973
"552",30,34,2,2,72,3,1,0,1,0.951153737087458,0.888227902621516
"553",30,27,2,2,73,2,2,1,4,0.621475588454695,0.621383816723972
"554",30,20,2,2,74,2,1,0,2,0.673586570754657,0.630849981241007
"555",30,18,2,2,75,2,1,0,2,0.704430933790293,0.651897138265324
"556",30,18,2,1,76,1,1,1,5,0.19172291051711,0.141511653828338
"557",30,37,2,2,77,3,2,1,2,0.742681009426022,0.740292409608593
"558",30,28,2,1,78,2,1,1,3,0.540489389667198,0.504564386844374
"559",30,26,2,2,79,3,1,0,1,0.979355277326524,1.00030754043619
"560",30,21,2,2,80,3,1,0,2,0.921881600101019,0.879102617270598
"561",30,33,2,2,81,2,2,1,3,0.69218890830271,0.832325483531822
"562",30,34,2,1,82,1,1,1,5,0.347279310873754,0.355241741568474
"563",30,27,2,2,83,1,1,0,3,0.800001036036942,0.797288147054703
"564",30,20,2,2,84,3,2,1,2,0.736389124294314,0.714835183025645
"565",30,18,2,1,85,2,2,0,2,0.7378097057445,0.790611187098621
"566",30,18,2,1,86,2,1,1,4,0.678054653045776,0.706179558909851
"567",30,37,2,2,87,3,2,1,2,1.00378922854669,0.980197973082524
"568",30,28,2,2,88,1,2,1,5,0.632229635164744,0.749515834190398
"569",30,26,2,2,89,3,2,1,2,1.09860792562632,1.04122053650308
"570",30,21,2,2,90,2,2,1,4,0.544118508785659,0.582348752448197
"571",30,33,2,1,91,1,1,1,4,0.384739943691529,0.390479897804231
"572",30,34,2,1,92,1,1,1,5,0.473906230548919,0.439928789166652
"573",30,27,2,2,93,2,1,0,3,0.75247442661175,0.717996837249805
"574",30,20,2,1,94,1,1,1,5,0.408143389316739,0.322066002890776
"575",30,18,2,1,95,2,1,1,3,0.67030834227171,0.619057562261817
"576",30,18,2,1,96,3,2,0,2,0.432603773488633,0.404036568993687
"577",30,37,2,1,97,2,2,0,2,0.679438533840509,0.60323774671245
"578",30,28,2,1,98,3,2,0,2,0.575897580348443,0.648190582732307
"579",30,26,2,1,99,2,1,1,3,0.524845205269873,0.463233666653144
"580",30,21,2,1,100,2,1,1,4,0.622969503890827,0.679654621927518
"581",30,33,2,1,101,2,1,1,4,0.485400807537028,0.502909198500655
"582",30,34,2,1,102,2,1,1,3,0.855571676780641,0.81538510818653
"583",30,27,2,1,103,3,1,1,3,0.957305972363378,1.06129834519771
"584",30,20,2,2,104,2,2,1,3,0.813565305142781,0.796763488325363
"585",30,18,2,2,105,2,2,1,3,0.518194755419521,0.508894108605005
"586",30,18,2,1,106,1,1,1,5,0.35690406055887,0.321395415443645
"587",30,37,2,1,107,3,2,0,2,1.13993559710891,1.23468628406374
"588",30,28,2,2,108,1,2,1,4,0.411434908278965,0.360433457791005
"589",30,26,2,1,109,1,1,1,4,0.439312812322247,0.469721093284184
"590",30,21,2,2,110,2,1,0,2,0.629862918088198,0.656649250078678
"591",30,33,2,1,111,1,1,1,4,0.259569268931678,0.274165378013937
"592",30,34,2,2,112,3,2,1,2,0.862538042336041,0.898492643680293
"593",30,27,2,2,113,1,2,1,4,0.300958344467846,0.328057795475659
"594",30,20,2,1,114,3,1,1,3,0.826974732458428,0.83334874088482
"595",30,18,2,1,115,2,1,1,4,0.455009847303328,0.419170230826833
"596",30,18,2,1,116,2,2,0,2,0.723309554762283,0.713017859273903
"597",30,37,2,2,117,1,1,0,4,0.45212475439985,0.469894752845352
"598",30,28,2,1,118,3,2,0,2,0.060583248551265,0.0885745027399142
"599",30,26,2,2,119,1,2,1,4,0.369769357521156,0.389802150138696
"600",30,21,2,1,120,2,2,0,3,0.875008289886322,0.846293605703833
"601",30,33,2,1,121,1,2,0,3,0.636916583834775,0.67900142466708
"602",30,34,2,1,122,1,1,1,5,0.358819821658244,0.373328615294419
"603",30,27,2,1,123,2,2,0,2,0.906201183511469,0.86983722453358
"604",30,20,2,2,124,2,2,1,3,0.949647682993134,0.891811147763215
"605",30,18,2,2,125,2,1,0,2,0.809663557351965,0.83056935220733
"606",30,18,2,2,126,2,2,1,3,0.744525835895752,0.775545441306739
"607",30,37,2,2,127,2,1,0,2,0.758096266950657,0.668252743123768
"608",30,28,2,1,128,2,1,1,3,0.589429492339733,0.64745581030822
"609",30,26,2,1,129,1,2,0,3,0.607580242974765,0.604337501481799
"610",30,21,2,1,130,1,1,1,5,0.413271302077946,0.395316067845205
"611",30,33,2,2,131,2,2,1,3,0.309722519127304,0.261521835854097
"612",30,34,2,1,132,2,1,1,3,0.352596391936357,0.346518347943642
"613",30,27,2,2,133,3,2,1,3,0.874261627357226,0.855533915075288
"614",30,20,2,2,134,1,1,0,3,0.524090214338543,0.464762424311257
"615",30,18,2,2,135,3,2,1,2,0.949921710452155,0.999516920734706
"616",30,18,2,1,136,3,2,0,2,1.45585677684205,1.3818523923018
"617",30,37,2,1,137,2,1,1,4,0.691609580820344,0.64744807646535
"618",30,28,2,1,138,1,1,1,4,0.407029501544916,0.347899664622946
"619",30,26,2,2,139,3,2,1,2,0.642693647373194,0.656709863110769
"620",30,21,2,2,140,3,1,0,1,1.15305846366858,1.18036680162764
"621",30,33,2,2,141,3,2,1,3,0.904434974807129,1.01683337480445
"622",30,34,2,1,142,3,1,1,3,0.589887140911061,0.562827053040787
"623",30,27,2,2,143,1,2,1,4,0.501031652071747,0.508620499538611
"624",30,20,2,1,144,1,1,1,4,0.411646451534511,0.382981804547712
"625",30,18,2,2,145,2,1,0,3,0.47692693347395,0.428088225642255
"626",30,18,2,1,146,3,1,1,2,1.01914340495778,1.03429890388397
"627",30,37,2,2,147,2,1,0,3,0.868613567477578,0.930912635502317
"628",30,28,2,1,148,3,2,0,2,1.59150648716607,1.6489736335288
"629",30,26,2,2,149,1,2,1,5,0.386971206500015,0.339234778351287
"630",30,21,2,2,150,3,1,0,2,0.842332063126134,0.844638102465741
"631",30,33,2,2,151,1,2,1,5,0.366994298782974,0.398218177140514
"632",30,34,2,2,152,1,2,1,4,0.336209785856931,0.313780105409948
"633",30,27,2,1,153,1,1,1,5,0.191683884399817,0.217767730564124
"634",30,20,2,1,154,2,1,1,4,0.778770198999979,0.751898593869958
"635",30,18,2,2,155,2,1,0,3,0.559804117651621,0.649046692710384
"636",30,18,2,2,156,3,2,1,2,0.831685795566269,0.788795846894876
"637",30,37,2,2,157,1,2,1,5,0.372922373722782,0.448257681975753
"638",30,28,2,1,158,3,1,1,2,0.95000340732531,0.838498974030558
"639",30,26,2,2,159,3,1,0,2,0.805833436497431,0.844605091678219
"640",30,21,2,2,160,2,1,0,2,0.642017773411161,0.648525473720937
"641",30,33,2,1,161,3,2,0,2,0.980702499106504,1.0132754131837
"642",30,34,2,2,162,3,2,1,3,0.695504252702571,0.661683174958832
"643",30,27,2,2,163,3,2,1,2,0.918702060386645,0.933739062624343
"644",30,20,2,1,164,3,1,1,2,0.852375801406904,0.821815995361228
"645",30,18,2,2,165,1,2,1,4,0.473010666149863,0.467709075325567
"646",30,18,2,1,166,1,2,0,3,0.392664046925962,0.420869374538223
"647",30,37,2,2,167,3,1,0,2,0.697163215001998,0.728559274922832
"648",30,28,2,2,168,2,2,1,3,0.353863770696532,0.376739527422832
"649",30,26,2,1,169,1,1,1,4,0.418920607785869,0.423216436936959
"650",30,21,2,1,170,3,1,1,3,0.740560683634074,0.683644125810133
"651",30,33,2,2,171,1,2,1,5,0.375024778180788,0.340488324897767
"652",30,34,2,1,172,3,1,1,2,1.03205923009766,1.04251525064981
"653",30,27,2,1,173,1,1,1,4,0.256442412866498,0.271367637763401
"654",30,20,2,1,174,1,1,1,5,0.561753354737638,0.590500397912589
"655",30,18,2,1,175,3,2,0,1,1.0316069305633,1.05099813643017
"656",30,18,2,2,176,3,1,0,1,1.29208015100643,1.30236329840085
"657",30,37,2,1,177,1,1,1,4,0.395720132454928,0.340498606443453
"658",30,28,2,2,178,3,2,1,2,1.07837985019539,1.04434933230107
"659",30,26,2,1,179,3,2,0,1,0.641759855197899,0.740439370318788
"660",30,21,2,1,180,3,2,0,1,0.644790598958422,0.574918619646069
"661",30,33,2,2,181,3,1,0,1,1.03441188208232,1.05034274731977
"662",30,34,2,1,182,2,1,1,3,0.723269439103522,0.736551938202125
"663",30,27,2,1,183,2,2,0,3,0.604587539168944,0.626479928617942
"664",30,20,2,1,184,1,1,1,4,0.391321412834478,0.390643825570584
"665",30,18,2,2,185,3,1,0,2,0.485318846391798,0.453431342641997
"666",30,18,2,2,186,3,1,0,2,0.883259781038851,0.901352838232143
"667",30,37,2,2,187,3,1,0,1,1.3316655651152,1.356574547226
"668",30,28,2,2,188,2,2,1,3,0.71074751084744,0.704566160717851
"669",30,26,2,1,189,2,2,0,2,0.66869426480067,0.711661850211806
"670",30,21,2,2,190,2,1,0,2,0.568845020281831,0.646748772523728
"671",30,33,2,1,191,3,1,1,2,0.782317642523198,0.824027979248639
"672",30,34,2,1,192,2,2,0,2,0.912866355622215,0.981530663597273
"673",30,27,2,2,193,2,1,0,3,0.814306432428746,0.871087686871015
"674",30,20,2,2,194,2,2,1,4,0.739580765454107,0.751558613068638
"675",30,18,2,2,195,3,1,0,2,0.658243834299014,0.66668859240724
"676",30,18,2,1,196,3,1,1,3,0.775601940746262,0.796239187809586
"677",30,37,2,1,197,2,1,1,4,0.7087805215734,0.736982238292641
"678",30,28,2,2,198,3,2,1,3,0.768096356292589,0.810832441581575
"679",30,26,2,2,199,3,2,1,2,0.739445795996938,0.743039310466819
"680",30,21,2,2,200,2,2,1,4,0.903968559937422,0.929053369186644
"681",30,33,2,1,201,3,1,1,2,0.839647648841397,0.865821219840665
"682",30,34,2,1,202,2,1,1,3,0.596572622769489,0.62042564622527
"683",30,27,2,1,203,2,2,0,3,0.487860257452946,0.476010912463949
"684",30,20,2,1,204,1,1,1,5,0.293190866146737,0.280115436827023
"685",30,18,2,1,205,1,1,1,5,0.465484974586054,0.465643072552964
"686",30,18,2,2,206,1,1,0,3,0.56278543655493,0.577645569606648
"687",30,37,2,1,207,1,1,1,4,0.446665780654619,0.421207120572783
"688",30,28,2,1,208,1,1,1,4,0.405487836229331,0.399564550195488
"689",30,26,2,2,209,2,2,1,3,0.630846140430518,0.572524124044124
"690",30,21,2,2,210,1,2,1,4,0.394995099857376,0.455515863822783
"691",30,33,2,1,211,1,1,1,5,0.425783613122018,0.465876489361251
"692",30,34,2,1,212,3,1,1,2,0.92822733372538,0.89895252178238
"693",30,27,2,1,213,2,1,1,3,0.806684490668615,0.832606001676001
"694",30,20,2,1,214,1,1,1,4,0.416002944075669,0.438471807764297
"695",30,18,2,1,215,2,2,0,2,0.808203563326223,0.769473226977773
"696",30,18,2,1,216,3,1,1,3,0.81346755035686,0.754531858434271
"697",30,37,2,2,217,2,1,0,2,0.843713996463791,0.865514109542331
"698",30,28,2,1,218,1,1,1,5,0.355321456555864,0.340105378697704
"699",30,26,2,2,219,1,2,1,5,0.286331021258189,0.361786634620377
"700",30,21,2,2,220,1,2,1,4,0.461072819795057,0.451548326160615
"701",30,33,2,2,221,3,2,1,3,0.722442167130283,0.769178420314113
"702",30,34,2,1,222,1,1,1,5,0.369072822146682,0.341264400535491
"703",30,27,2,1,223,1,1,1,4,0.253636762291561,0.276406259127452
"704",30,20,2,1,224,3,1,1,2,0.916877440425531,1.00373445611621
"705",30,18,2,2,225,3,2,1,2,0.91352543504501,0.853434725415354
"706",30,18,2,2,226,3,1,0,1,1.69350777877571,1.67243273042364
"707",30,37,2,2,227,1,2,1,4,0.515606643068449,0.456011908477941
"708",30,28,2,2,228,1,2,1,4,0.43873806576722,0.440113175924911
"709",30,26,2,2,229,1,2,1,4,0.4850559105849,0.439595471762939
"710",30,21,2,2,230,2,2,1,3,0.350612900861475,0.336899907190707
"711",30,33,2,1,231,3,1,1,2,1.17393997064416,1.26030179363043
"712",30,34,2,2,232,2,1,0,2,0.936047806422969,0.872371373354753
"713",30,27,2,1,233,1,2,0,3,0.43706677408505,0.425172179910748
"714",30,20,2,1,234,3,2,0,2,1.07721896448262,1.01151684119264
"715",30,18,2,1,235,3,2,0,2,0.676623193168112,0.746671714251939
"716",30,18,2,2,236,1,2,1,4,0.328458603860397,0.351180375280368
"717",30,37,2,2,237,2,2,1,4,0.627800615415035,0.644197194226092
"718",30,28,2,2,238,1,2,1,4,0.470673122628302,0.437815039233612
"719",30,26,2,2,239,1,2,1,4,0.292444666312994,0.275430046953486
"720",30,21,2,1,240,1,1,1,5,0.444001332001913,0.501090836153187
"721",29,30,1,2,1,3,2,1,2,0.729144241443875,0.752850710425862
"722",29,38,1,2,2,3,1,0,2,1.62741749818824,1.60520936693523
"723",29,35,1,1,3,1,1,1,5,0.471166270813021,0.339095234494554
"724",29,36,1,2,4,1,1,0,4,0.732097062687971,0.809777533630179
"725",29,20,1,1,5,1,1,1,4,0.3091604877554,0.273223109302683
"726",29,33,1,2,6,1,2,1,4,0.359534632591077,0.395112325560319
"727",29,37,1,2,7,2,1,0,3,0.65248354529194,0.635145038965586
"728",29,38,1,1,8,3,1,1,2,0.902519204149112,0.927810824549896
"729",29,38,1,1,9,3,1,1,2,0.526720233387621,0.563974762218966
"730",29,39,1,2,10,3,2,1,2,0.936649358292018,0.887267867697697
"731",29,30,1,2,11,3,1,0,1,1.2261280524263,1.23145688978868
"732",29,38,1,2,12,2,2,1,3,0.326163331275522,0.316067165544688
"733",29,35,1,2,13,3,2,1,3,0.975821209642398,0.922295441034528
"734",29,36,1,1,14,1,1,1,5,0.285342445857507,0.289085576856559
"735",29,20,1,2,15,3,1,0,2,0.165870060647573,0.0532667690724729
"736",29,33,1,1,16,1,2,0,3,0.513629451035835,0.551487998774512
"737",29,37,1,2,17,1,2,1,5,0.39594387553363,0.322206365210684
"738",29,38,1,1,18,3,2,0,2,0.527052947150303,0.503894092454147
"739",29,38,1,2,19,1,2,1,5,0.394679529501213,0.368056859787631
"740",29,39,1,2,20,2,2,1,4,0.644048129067717,0.637526634543963
"741",29,30,1,2,21,2,2,1,3,0.537247754033246,0.549305867622278
"742",29,38,1,1,22,1,1,1,4,0.388989165427193,0.387313533363521
"743",29,35,1,2,23,1,1,0,3,0.458879154194548,0.453939373996888
"744",29,36,1,1,24,3,2,0,2,0.572688931291743,0.583260340825283
"745",29,20,1,2,25,3,1,0,1,1.24057975317214,1.32814349707599
"746",29,33,1,1,26,1,1,1,5,0.4466673900651,0.377208421340633
"747",29,37,1,1,27,2,2,0,3,0.986699510225785,1.03742388594695
"748",29,38,1,1,28,2,1,1,4,0.527953645076783,0.50673011200719
"749",29,38,1,2,29,2,1,0,3,0.54716099614336,0.544367604679237
"750",29,39,1,1,30,3,1,1,2,0.82347121483236,0.85387304504798
"751",29,30,1,1,31,1,1,1,5,0.558458890505858,0.552009117749051
"752",29,38,1,1,32,3,1,1,3,0.755546599102935,0.764285154858559
"753",29,35,1,2,33,1,1,0,3,0.50701587859407,0.443626056191075
"754",29,36,1,1,34,3,1,1,2,1.02370794765822,1.01332623928681
"755",29,20,1,2,35,1,2,1,5,0.400076502486223,0.453778276606576
"756",29,33,1,2,36,2,2,1,4,0.528175914510548,0.506338362307915
"757",29,37,1,2,37,2,1,0,2,0.432302028794616,0.430169798521398
"758",29,38,1,1,38,3,2,0,2,0.955380197254785,0.919429081919659
"759",29,38,1,2,39,2,2,1,3,0.687655637187633,0.634472563015069
"760",29,39,1,1,40,2,2,0,3,0.596590732513743,0.630987261252454
"761",29,30,1,1,41,1,2,0,4,0.584314034519271,0.588621017325568
"762",29,38,1,2,42,1,2,1,4,0.34510138170068,0.244520800101582
"763",29,35,1,1,43,3,2,0,1,1.47898057033306,1.53476258068532
"764",29,36,1,2,44,2,2,1,3,0.718055418841965,0.712213761077074
"765",29,20,1,1,45,1,1,1,5,0.43685954339576,0.399375204609993
"766",29,33,1,2,46,2,1,0,2,0.371968986546729,0.346441723681844
"767",29,37,1,1,47,3,1,1,3,0.612022516823588,0.626632727175455
"768",29,38,1,1,48,2,2,0,2,0.732415259519259,0.704898601854287
"769",29,38,1,1,49,1,1,1,5,0.390491964835402,0.314568736359905
"770",29,39,1,2,50,1,2,1,5,0.377415915375663,0.273108616607438
"771",29,30,1,1,51,3,1,1,2,1.15438756311077,1.13313443990173
"772",29,38,1,2,52,2,1,0,3,0.620578402352746,0.64576596624141
"773",29,35,1,1,53,1,1,1,4,0.343473734811345,0.271093210859218
"774",29,36,1,1,54,2,1,1,4,0.59322190429074,0.532998585168985
"775",29,20,1,2,55,1,2,1,4,0.586734073902304,0.51842672341854
"776",29,33,1,2,56,3,2,1,2,0.48153274751189,0.450787067630806
"777",29,37,1,1,57,2,2,0,2,0.781098070625595,0.783958695600003
"778",29,38,1,2,58,2,2,1,4,0.603175234217704,0.61250165526934
"779",29,38,1,2,59,1,2,1,5,0.517142472332891,0.567021229285604
"780",29,39,1,1,60,2,1,1,3,0.842323747123391,0.863690714791592
"781",29,30,1,2,61,2,1,0,3,0.905006795440407,0.850389812089873
"782",29,38,1,1,62,3,1,1,2,0.571274122256829,0.567723719817064
"783",29,35,1,2,63,3,2,1,3,0.862960241346227,0.907905127573156
"784",29,36,1,2,64,3,1,0,1,0.87468659380311,0.892647583790559
"785",29,20,1,1,65,1,2,0,4,0.600404101369549,0.453678379822578
"786",29,33,1,2,66,2,1,0,2,0.601913781772628,0.632955965663613
"787",29,37,1,1,67,2,1,1,4,0.45826869005363,0.436620955057429
"788",29,38,1,1,68,2,1,1,3,0.437873088351414,0.494221465059121
"789",29,38,1,2,69,3,1,0,1,1.35981539610761,1.38474157729201
"790",29,39,1,1,70,2,2,0,2,0.74897107675622,0.747644167410891
"791",29,30,1,2,71,2,2,1,4,0.573151103501466,0.581908255169664
"792",29,38,1,1,72,2,2,0,3,0.793427723885127,0.717016383215167
"793",29,35,1,1,73,3,2,0,2,1.50220038364994,1.5891203554529
"794",29,36,1,1,74,3,2,0,2,0.92433534871158,0.970637311259751
"795",29,20,1,2,75,3,2,1,2,0.943974767648594,0.954022552840933
"796",29,33,1,2,76,2,2,1,3,0.542590027668554,0.592306133035191
"797",29,37,1,1,77,1,1,1,4,0.338123562420813,0.331418168423222
"798",29,38,1,2,78,3,1,0,1,1.00463661078969,1.019433029433
"799",29,38,1,1,79,1,1,1,5,0.303368289029697,0.3757831122167
"800",29,39,1,1,80,1,1,1,5,0.334602894615581,0.402742720357563
"801",29,30,1,1,81,1,1,1,5,0.296042347363137,0.238810672462801
"802",29,38,1,2,82,2,2,1,4,0.594601522667461,0.547005959727273
"803",29,35,1,1,83,1,2,0,4,0.57583753246914,0.546453605563138
"804",29,36,1,2,84,3,1,0,2,0.251297651660269,0.290949301466554
"805",29,20,1,2,85,1,2,1,4,0.260213772029077,0.307411415746741
"806",29,33,1,2,86,2,1,0,3,0.783497586529362,0.715366480796771
"807",29,37,1,1,87,2,2,0,2,0.754227291804075,0.749196058367088
"808",29,38,1,2,88,3,2,1,3,0.546173858556155,0.534218593136897
"809",29,38,1,2,89,3,1,0,2,1.51703629927839,1.52844065890799
"810",29,39,1,1,90,1,1,1,4,0.579027114407867,0.58110415764807
"811",29,30,1,2,91,1,2,1,4,0.439309851283676,0.473948255967073
"812",29,38,1,2,92,2,1,0,2,0.671127585611516,0.744305765474824
"813",29,35,1,1,93,3,1,1,3,0.976751775057691,0.90461804826911
"814",29,36,1,2,94,3,2,1,2,0.850916814426983,0.848386985625396
"815",29,20,1,1,95,3,2,0,1,0.585046196373903,0.569174121716633
"816",29,33,1,1,96,3,1,1,3,1.10384716717254,1.08058323858491
"817",29,37,1,1,97,1,2,0,4,0.73442621351482,0.728723095065979
"818",29,38,1,1,98,3,2,0,2,0.84450994398547,0.708795490274193
"819",29,38,1,2,99,2,1,0,3,0.602776911853404,0.715462075037014
"820",29,39,1,2,100,2,2,1,3,0.693591533177326,0.644288985971632
"821",29,30,1,1,101,3,2,0,1,-0.353973512460705,-0.359286066046096
"822",29,38,1,1,102,1,1,1,4,0.447647668027314,0.400023844160839
"823",29,35,1,1,103,3,1,1,3,0.650116178506279,0.683293435430905
"824",29,36,1,1,104,3,2,0,1,0.947152376815955,0.983521835867581
"825",29,20,1,1,105,3,2,0,1,0.994047878134363,1.06354761839575
"826",29,33,1,2,106,1,1,0,3,0.461782838879781,0.376984896448792
"827",29,37,1,1,107,3,1,1,2,0.779201383922484,0.786522916129107
"828",29,38,1,1,108,1,1,1,4,0.40892819015141,0.409833301933462
"829",29,38,1,1,109,1,1,1,4,0.405932913910739,0.418562471219329
"830",29,39,1,2,110,3,2,1,3,1.05808349048952,1.05173200954286
"831",29,30,1,1,111,2,2,0,2,0.527028251845489,0.533261601277207
"832",29,38,1,1,112,2,2,0,2,1.07615997441151,1.06988974724149
"833",29,35,1,1,113,1,1,1,5,0.406057892910686,0.438708685972254
"834",29,36,1,1,114,1,1,1,4,0.319548698909617,0.251911733153579
"835",29,20,1,1,115,2,2,0,3,0.664156925522216,0.714213229512876
"836",29,33,1,2,116,2,1,0,2,0.861615812250245,0.899839258618277
"837",29,37,1,1,117,3,1,1,2,0.840921154921052,0.822079011310977
"838",29,38,1,2,118,1,2,1,5,0.457997788052081,0.361420886490713
"839",29,38,1,2,119,1,2,1,5,0.433438314284937,0.421433023302829
"840",29,39,1,2,120,2,2,1,4,0.684890856407887,0.736391380043434
"841",29,30,1,1,121,2,1,1,4,0.662318445612427,0.662100797167423
"842",29,38,1,2,122,1,1,0,4,0.650648182926228,0.686137948576673
"843",29,35,1,2,123,1,2,1,5,0.405271324611274,0.522612463312787
"844",29,36,1,2,124,2,1,0,3,0.818191383107732,0.797344212189005
"845",29,20,1,2,125,2,1,0,2,0.911937442279174,0.943232987601139
"846",29,33,1,1,126,2,2,0,2,0.683223021585091,0.669469391167113
"847",29,37,1,1,127,2,1,1,3,0.467452197030465,0.535033262205748
"848",29,38,1,1,128,2,2,0,2,0.697221933879802,0.722401484164256
"849",29,38,1,1,129,2,1,1,4,0.503626146141368,0.53161206394124
"850",29,39,1,1,130,1,1,1,5,0.332416428617574,0.316369949548569
"851",29,30,1,2,131,3,1,0,1,0.590837002600825,0.612395862469909
"852",29,38,1,2,132,1,2,1,5,0.455572904285046,0.506958979491102
"853",29,35,1,1,133,1,1,1,4,0.362857361692875,0.340783712210988
"854",29,36,1,2,134,2,2,1,3,0.806177801962033,0.842371894600593
"855",29,20,1,1,135,1,2,0,4,0.568622273674487,0.646391407593484
"856",29,33,1,1,136,1,1,1,5,0.365289676465255,0.355410155576964
"857",29,37,1,2,137,2,2,1,4,0.584033776967864,0.501583955705827
"858",29,38,1,1,138,1,1,1,5,0.318318074726632,0.347912798856521
"859",29,38,1,2,139,1,2,1,4,0.465737983176896,0.490293973161097
"860",29,39,1,1,140,3,1,1,3,0.762245800131646,0.767660441606985
"861",29,30,1,2,141,2,1,0,2,0.56539275679283,0.615002180947504
"862",29,38,1,2,142,1,2,1,4,0.285776729293272,0.260979058984694
"863",29,35,1,2,143,3,1,0,1,1.21198813018913,1.14697556443563
"864",29,36,1,1,144,2,1,1,4,0.648557536470013,0.696324910374987
"865",29,20,1,1,145,1,1,1,4,0.548433049491177,0.540155490041714
"866",29,33,1,1,146,1,1,1,4,0.327548440018012,0.332529779101067
"867",29,37,1,2,147,3,2,1,2,0.651906811291548,0.589950141604189
"868",29,38,1,1,148,2,1,1,4,0.806538816433591,0.771742332044416
"869",29,38,1,2,149,2,1,0,2,0.764214148960969,0.802297305189696
"870",29,39,1,2,150,2,2,1,3,0.49735409842217,0.492319794212723
"871",29,30,1,1,151,1,2,0,3,0.637125116586167,0.55995764190757
"872",29,38,1,1,152,2,2,0,2,0.915448549423868,0.864335662646785
"873",29,35,1,1,153,2,2,0,3,0.439080783083959,0.406024987056783
"874",29,36,1,1,154,3,2,0,2,0.575824751476046,0.591785468395439
"875",29,20,1,1,155,3,1,1,2,0.411373847928684,0.507137589615192
"876",29,33,1,2,156,3,1,0,2,1.19396604276655,1.07080222827083
"877",29,37,1,1,157,1,2,0,3,0.455315327778199,0.383791334413759
"878",29,38,1,2,158,3,2,1,2,0.729826222462381,0.74431756553999
"879",29,38,1,1,159,1,1,1,5,0.405333424891686,0.452797107316857
"880",29,39,1,1,160,1,1,1,5,0.367296609951928,0.40509172415033
"881",29,30,1,2,161,3,1,0,2,0.831187323863674,0.820372685417193
"882",29,38,1,1,162,2,2,0,3,0.677376783116306,0.709462947388863
"883",29,35,1,2,163,1,2,1,5,0.490355656382074,0.491034463483227
"884",29,36,1,1,164,3,2,0,1,0.763192464915779,0.756136491636754
"885",29,20,1,1,165,2,2,0,2,0.980818173773086,0.953323540325218
"886",29,33,1,1,166,3,1,1,2,0.702979396771434,0.72418596353027
"887",29,37,1,2,167,1,2,1,4,0.423024959380953,0.387463357418072
"888",29,38,1,1,168,3,1,1,3,0.852946409510398,0.8484317494551
"889",29,38,1,1,169,1,1,1,5,0.438837097212915,0.408101540772237
"890",29,39,1,2,170,2,2,1,4,0.55749170026785,0.53911590329964
"891",29,30,1,1,171,1,1,1,4,0.467974715965659,0.47538950469916
"892",29,38,1,2,172,1,2,1,4,0.34037987115636,0.429498588464487
"893",29,35,1,1,173,1,1,1,4,0.33004807708259,0.323367429399062
"894",29,36,1,2,174,3,2,1,2,0.79160697603526,0.757929804701437
"895",29,20,1,1,175,2,1,1,3,0.527610101886137,0.532056933528574
"896",29,33,1,2,176,2,1,0,3,0.836268012776817,0.919225933257344
"897",29,37,1,1,177,2,1,1,3,0.839722140457375,0.841240359370031
"898",29,38,1,2,178,3,1,0,2,0.495897212117808,0.536419063520538
"899",29,38,1,2,179,3,2,1,3,0.899456709054894,0.974227557903038
"900",29,39,1,2,180,3,1,0,2,1.41322196998259,1.43644701439708
"901",29,30,1,2,181,2,1,0,2,0.733098527277675,0.731679466041786
"902",29,38,1,1,182,3,2,0,1,0.968074440822172,0.988167985827983
"903",29,35,1,2,183,2,1,0,2,0.952605497350468,0.93767344942057
"904",29,36,1,2,184,2,1,0,2,0.68056346225271,0.736526129770062
"905",29,20,1,2,185,2,2,1,4,0.575074270350311,0.569359568617494
"906",29,33,1,1,186,2,2,0,2,0.566645115878278,0.618915068167641
"907",29,37,1,2,187,2,2,1,4,0.637960738161203,0.702541757365121
"908",29,38,1,2,188,2,1,0,2,0.782066247085109,0.754026277449271
"909",29,38,1,2,189,1,1,0,3,0.434808270739612,0.37147959644163
"910",29,39,1,2,190,1,2,1,5,0.400868885064511,0.315936062228544
"911",29,30,1,2,191,1,2,1,5,0.220299636989633,0.323716951611087
"912",29,38,1,2,192,3,2,1,2,0.614445153703149,0.568255068207351
"913",29,35,1,2,193,3,2,1,3,0.902830752481405,0.909800471721008
"914",29,36,1,2,194,3,2,1,3,0.62779208916898,0.581098146619485
"915",29,20,1,2,195,3,1,0,2,0.647834298237636,0.660149370267845
"916",29,33,1,1,196,2,1,1,4,0.618969218883937,0.622590928234633
"917",29,37,1,1,197,1,1,1,5,0.49970447609257,0.498662547240175
"918",29,38,1,2,198,3,1,0,1,1.07483611438005,1.07732703848561
"919",29,38,1,1,199,2,1,1,4,0.65450452473349,0.655964061509308
"920",29,39,1,1,200,1,2,0,4,0.518222481668546,0.495410543795938
"921",29,30,1,2,201,3,1,0,2,0.933392071882054,0.963914940414626
"922",29,38,1,2,202,1,1,0,4,0.542992677650737,0.537913613119572
"923",29,35,1,2,203,1,2,1,5,0.342789037982232,0.358050855589606
"924",29,36,1,2,204,1,2,1,4,0.473411234370771,0.449961372334659
"925",29,20,1,1,205,3,1,1,3,0.671986286596565,0.651482553759449
"926",29,33,1,2,206,2,2,1,4,0.754521143189836,0.770190114876069
"927",29,37,1,1,207,3,1,1,2,0.261679057154817,0.2319151679101
"928",29,38,1,1,208,3,1,1,2,0.504697031887107,0.455724521485479
"929",29,38,1,2,209,3,2,1,2,0.638338444218915,0.644768160905651
"930",29,39,1,2,210,3,1,0,2,0.542125451808866,0.512073156815309
"931",29,30,1,2,211,3,2,1,2,0.872569685416188,0.821754568343247
"932",29,38,1,1,212,1,2,0,3,0.355000801902642,0.410322046576443
"933",29,35,1,2,213,3,2,1,3,0.893831163143388,0.919611189168499
"934",29,36,1,1,214,2,1,1,4,0.751833168705303,0.830314704339468
"935",29,20,1,1,215,1,1,1,4,0.388738709377806,0.374428052214568
"936",29,33,1,1,216,3,2,0,1,1.04149641835828,1.05967255106842
"937",29,37,1,1,217,2,2,0,2,0.859063747527731,0.901486267838988
"938",29,38,1,1,218,1,1,1,4,0.484376450563066,0.428982256700663
"939",29,38,1,2,219,1,1,0,4,0.363778261839401,0.368049026416666
"940",29,39,1,1,220,2,2,0,3,0.591189268164678,0.58700450834768
"941",29,30,1,2,221,3,2,1,3,0.766695924717844,0.900180893612921
"942",29,38,1,1,222,2,2,0,3,0.717935589027483,0.667027791789129
"943",29,35,1,2,223,2,2,1,3,0.680559859765696,0.705032084209325
"944",29,36,1,1,224,2,1,1,4,0.615609429879119,0.649371262209062
"945",29,20,1,1,225,1,2,0,3,0.548521076730904,0.553991770067908
"946",29,33,1,2,226,2,2,1,3,0.61323761684601,0.568529527420373
"947",29,37,1,2,227,1,2,1,4,0.384595359774721,0.384472123625983
"948",29,38,1,1,228,1,2,0,4,0.449936223500284,0.489483634412058
"949",29,38,1,2,229,3,1,0,1,0.653114276917627,0.657851749558341
"950",29,39,1,2,230,3,2,1,3,0.689931416403423,0.6426402258465
"951",29,30,1,1,231,2,2,0,2,0.68372176144001,0.544135200662895
"952",29,38,1,2,232,3,1,0,1,1.56998335139797,1.61035256345156
"953",29,35,1,2,233,1,2,1,5,0.455105131963548,0.370008881840083
"954",29,36,1,1,234,3,1,1,3,1.13554177264726,1.16706633112551
"955",29,20,1,2,235,1,2,1,4,0.405156587714783,0.356752781209241
"956",29,33,1,1,236,2,1,1,4,0.66204445276305,0.650615812712065
"957",29,37,1,2,237,3,2,1,3,0.438314628272517,0.432196799325457
"958",29,38,1,2,238,1,2,1,5,0.428367731248047,0.316688394141202
"959",29,38,1,1,239,3,1,1,3,0.717427480814201,0.729855243871887
"960",29,39,1,2,240,2,1,0,2,0.55519998875095,0.508929545981813
"961",28,23,2,1,1,1,1,1,5,0.387343890952466,0.349009135730153
"962",28,40,2,1,2,3,1,1,3,0.762461055761239,0.694506562332376
"963",28,38,2,2,3,3,2,1,3,0.806950636240506,0.839091438281853
"964",28,34,2,1,4,3,2,0,2,0.994872055273969,1.05307558646981
"965",28,40,2,1,5,2,1,1,4,0.573362599594723,0.547018117564579
"966",28,38,2,1,6,1,1,1,4,0.466316549498131,0.438035535192808
"967",28,33,2,2,7,1,2,1,5,0.423248291782582,0.478834867455161
"968",28,37,2,2,8,2,1,0,2,0.48834655341069,0.521833600682041
"969",28,23,2,1,9,1,1,1,4,0.393811552992959,0.377826112460387
"970",28,36,2,1,10,1,1,1,5,0.466624139002048,0.512480918513659
"971",28,23,2,1,11,1,1,1,4,0.507627494055794,0.552232551156928
"972",28,40,2,2,12,1,1,0,4,0.556412076077364,0.601960132356393
"973",28,38,2,2,13,2,1,0,2,0.479448802078884,0.531392018117702
"974",28,34,2,1,14,2,2,0,3,0.878038442865458,0.858084785167201
"975",28,40,2,1,15,2,2,0,3,0.90028308273333,0.98486486275866
"976",28,38,2,1,16,1,2,0,4,0.332119741453864,0.333411001001136
"977",28,33,2,1,17,3,1,1,3,0.925613186941832,0.91045447752721
"978",28,37,2,1,18,3,2,0,2,0.823897170379233,0.899362386607059
"979",28,23,2,2,19,1,2,1,5,0.462583529737357,0.449341356555351
"980",28,36,2,2,20,2,2,1,3,0.487402168805008,0.512112376214975
"981",28,23,2,2,21,3,1,0,2,1.18406908082874,1.18473720680844
"982",28,40,2,2,22,2,2,1,3,0.569997687931821,0.587142549930713
"983",28,38,2,1,23,2,1,1,3,0.661271581739622,0.672684014941558
"984",28,34,2,1,24,2,2,0,2,0.644102562431053,0.581163599699936
"985",28,40,2,1,25,1,2,0,4,0.592159811423329,0.736673102081208
"986",28,38,2,2,26,2,2,1,4,0.547703962147307,0.464141152926728
"987",28,33,2,2,27,3,2,1,2,0.545045923906176,0.612561355688912
"988",28,37,2,1,28,3,2,0,2,0.634790039209133,0.616676380715197
"989",28,23,2,2,29,2,1,0,2,0.481035675497891,0.420575439583691
"990",28,36,2,1,30,1,1,1,5,0.444728247431198,0.441510477563529
"991",28,23,2,1,31,2,1,1,3,0.404172544699146,0.360049132010187
"992",28,40,2,2,32,3,1,0,2,0.552707749783484,0.564557523104929
"993",28,38,2,2,33,3,1,0,2,0.99190234441242,1.00401474946101
"994",28,34,2,1,34,2,1,1,3,0.643942546100225,0.616358033548441
"995",28,40,2,2,35,3,1,0,1,0.784660297085003,0.72990587912123
"996",28,38,2,2,36,3,2,1,2,0.467215102647681,0.363579507581807
"997",28,33,2,1,37,2,1,1,3,0.633921577405484,0.614558491400558
"998",28,37,2,1,38,3,2,0,2,0.798321865189128,0.801017513581856
"999",28,23,2,2,39,2,1,0,3,0.75551174124425,0.774553204389973
"1000",28,36,2,2,40,1,2,1,5,0.460193989547557,0.540529610264461
"1001",28,23,2,1,41,2,1,1,3,0.342210254008524,0.339777131953826
"1002",28,40,2,2,42,3,2,1,3,0.73150942610509,0.732400058333696
"1003",28,38,2,2,43,2,2,1,3,0.540612457033736,0.444565607142702
"1004",28,34,2,2,44,3,1,0,2,0.374479012723661,0.403379446170555
"1005",28,40,2,1,45,2,2,0,2,0.641076307488465,0.664317118531594
"1006",28,38,2,2,46,1,2,1,5,0.314231021148057,0.279576767517488
"1007",28,33,2,2,47,3,1,0,1,1.04457371473124,1.08846816911532
"1008",28,37,2,1,48,2,1,1,3,0.690967370671428,0.65061298491204
"1009",28,23,2,1,49,1,1,1,5,0.374554484785656,0.375148467863866
"1010",28,36,2,1,50,2,1,1,4,0.865677742517055,0.826193332562589
"1011",28,23,2,2,51,2,2,1,4,0.780261226528694,0.756355629472528
"1012",28,40,2,2,52,2,2,1,4,0.328880122505903,0.41906101259867
"1013",28,38,2,2,53,3,1,0,1,1.5784035170391,1.53153271035447
"1014",28,34,2,2,54,2,2,1,4,0.44268003109288,0.373121640568293
"1015",28,40,2,1,55,3,2,0,2,0.350448849581453,0.307079729228353
"1016",28,38,2,2,56,2,1,0,3,0.609671787826985,0.56888085613665
"1017",28,33,2,1,57,2,1,1,3,0.531037146192969,0.565149817416351
"1018",28,37,2,2,58,1,2,1,4,0.57431029521079,0.557961254407677
"1019",28,23,2,1,59,1,1,1,4,0.404792735453614,0.478730130972037
"1020",28,36,2,2,60,3,1,0,2,1.21125973867519,1.24417925095229
"1021",28,23,2,1,61,2,2,0,2,0.92167466089603,0.971092959841295
"1022",28,40,2,2,62,3,2,1,3,0.747060809612276,0.838704116936248
"1023",28,38,2,1,63,2,1,1,4,0.652483816657078,0.630554513706951
"1024",28,34,2,1,64,1,2,0,3,0.725616981526415,0.669990141051831
"1025",28,40,2,2,65,2,2,1,3,0.560737536010496,0.54957838859255
"1026",28,38,2,1,66,3,1,1,2,0.898744198110197,0.994487672827696
"1027",28,33,2,1,67,2,2,0,2,0.306691649461966,0.34757592891039
"1028",28,37,2,1,68,1,2,0,3,0.578687468840032,0.558180160935148
"1029",28,23,2,1,69,1,1,1,4,0.404248583787735,0.427863139811376
"1030",28,36,2,2,70,2,1,0,3,0.683294765148399,0.677831126101698
"1031",28,23,2,2,71,2,2,1,3,0.671013245951846,0.663678611188249
"1032",28,40,2,1,72,2,1,1,4,0.590513316270938,0.550101762360878
"1033",28,38,2,2,73,1,2,1,5,0.387861033724029,0.349097826870074
"1034",28,34,2,1,74,1,1,1,5,0.442026627710878,0.417867398602302
"1035",28,40,2,2,75,3,1,0,2,0.897184504999593,0.902465801023637
"1036",28,38,2,1,76,2,1,1,3,0.501919264763489,0.544943205743378
"1037",28,33,2,1,77,3,2,0,1,1.28081004520283,1.28878385219102
"1038",28,37,2,1,78,2,1,1,3,0.514971515691912,0.49499468084958
"1039",28,23,2,2,79,1,2,1,4,0.404045425804345,0.309714760087566
"1040",28,36,2,2,80,3,2,1,2,0.516843488427097,0.601793576891825
"1041",28,23,2,1,81,1,1,1,4,0.478184875221616,0.388404075402652
"1042",28,40,2,2,82,1,2,1,4,0.403440106721129,0.352081123532763
"1043",28,38,2,2,83,2,2,1,3,0.74910624469033,0.798166051288544
"1044",28,34,2,1,84,3,1,1,3,0.482132702094201,0.406197855190461
"1045",28,40,2,1,85,1,1,1,4,0.430299749485416,0.45097552841365
"1046",28,38,2,1,86,2,2,0,2,0.820984566445269,0.795615355878219
"1047",28,33,2,1,87,1,1,1,4,0.514373721933933,0.537868032644119
"1048",28,37,2,1,88,2,2,0,2,0.78239912687318,0.800796648821947
"1049",28,23,2,1,89,1,1,1,5,0.365944157643609,0.358225077168315
"1050",28,36,2,2,90,3,1,0,1,1.33185203501171,1.25757340779167
"1051",28,23,2,1,91,2,2,0,3,0.795081335625445,0.849352649412706
"1052",28,40,2,1,92,3,1,1,2,0.482721154678555,0.445555838312177
"1053",28,38,2,2,93,3,2,1,3,0.874937728299017,0.89491718678039
"1054",28,34,2,2,94,2,2,1,4,0.344923318992929,0.367304968269029
"1055",28,40,2,1,95,1,1,1,5,0.497743209641883,0.488915524002984
"1056",28,38,2,1,96,2,2,0,3,0.698100427888413,0.682350898471226
"1057",28,33,2,1,97,1,1,1,4,0.408278129257648,0.438115469554204
"1058",28,37,2,2,98,3,2,1,2,0.580041845762825,0.590951434570927
"1059",28,23,2,2,99,2,1,0,3,0.506392953456802,0.491180591985355
"1060",28,36,2,2,100,2,1,0,3,0.559399609515311,0.410133986619914
"1061",28,23,2,1,101,2,1,1,3,0.487049108613196,0.478403744866411
"1062",28,40,2,1,102,1,1,1,5,0.264156115773031,0.198995390719902
"1063",28,38,2,2,103,3,2,1,3,0.74576632982005,0.748287179483361
"1064",28,34,2,1,104,3,1,1,3,0.929217305611188,0.844850810022506
"1065",28,40,2,1,105,2,1,1,4,0.820263003754473,0.836597402734078
"1066",28,38,2,2,106,1,1,0,3,0.59564434277978,0.617237408723217
"1067",28,33,2,2,107,2,2,1,4,0.620305365786726,0.53727872868282
"1068",28,37,2,1,108,3,1,1,3,0.96320937095386,0.953617575485958
"1069",28,23,2,2,109,3,2,1,2,0.694003862087279,0.692413943057568
"1070",28,36,2,1,110,2,1,1,3,0.631595045973808,0.52895679337312
"1071",28,23,2,2,111,1,2,1,5,0.537098175522657,0.463040681477158
"1072",28,40,2,2,112,1,2,1,4,0.367301185801752,0.319575965172523
"1073",28,38,2,2,113,3,1,0,2,1.1768224604239,1.11817923808824
"1074",28,34,2,2,114,1,2,1,4,0.241980094448616,0.274445312441758
"1075",28,40,2,1,115,3,1,1,2,1.03758748961156,1.06745110714497
"1076",28,38,2,1,116,1,1,1,5,0.341333290777567,0.418775473964697
"1077",28,33,2,2,117,2,2,1,4,0.540427517596599,0.551236840411996
"1078",28,37,2,2,118,2,2,1,3,0.551723342463617,0.549361958784941
"1079",28,23,2,1,119,3,1,1,3,1.05716681787428,1.01262520258745
"1080",28,36,2,2,120,1,2,1,5,0.520090238081046,0.494667538430592
"1081",28,23,2,2,121,3,1,0,2,1.24955246648578,1.30549357458769
"1082",28,40,2,2,122,3,2,1,3,0.754866437169631,0.700338206296089
"1083",28,38,2,1,123,3,1,1,3,0.601724677331693,0.557857976445391
"1084",28,34,2,1,124,3,2,0,1,0.845770664459983,0.813189544771377
"1085",28,40,2,2,125,2,2,1,4,0.951760769552121,0.897250186743226
"1086",28,38,2,2,126,2,2,1,3,0.484822276799,0.523615814948809
"1087",28,33,2,2,127,2,2,1,3,0.669971792491617,0.729340147641605
"1088",28,37,2,2,128,1,2,1,4,0.42476444790083,0.420201866882969
"1089",28,23,2,1,129,3,2,0,2,1.09224307509872,1.06998362190836
"1090",28,36,2,2,130,1,1,0,3,0.64855333707624,0.623645309971792
"1091",28,23,2,2,131,1,2,1,4,0.24134460357257,0.135644844752823
"1092",28,40,2,2,132,1,2,1,5,0.461119093810528,0.410466441604017
"1093",28,38,2,1,133,1,1,1,5,0.356214559227014,0.349711029137504
"1094",28,34,2,1,134,1,1,1,4,0.428559624741893,0.323750371047399
"1095",28,40,2,1,135,3,2,0,1,1.11345273794926,1.1026070044642
"1096",28,38,2,1,136,3,2,0,2,1.17710206906528,1.23539421636489
"1097",28,33,2,2,137,3,1,0,2,0.716099126016932,0.684809811408437
"1098",28,37,2,2,138,1,2,1,5,0.275853941718645,0.297448695820579
"1099",28,23,2,1,139,1,1,1,4,0.466008233512168,0.499851847581775
"1100",28,36,2,1,140,1,2,0,4,0.543306038172959,0.590518694301116
"1101",28,23,2,1,141,2,2,0,3,0.692369908640004,0.694880149879777
"1102",28,40,2,2,142,2,1,0,2,0.832729091885343,0.800301512309121
"1103",28,38,2,2,143,1,1,0,4,0.710095354198152,0.673107806435229
"1104",28,34,2,2,144,3,1,0,2,0.83811795259902,0.830152402387327
"1105",28,40,2,2,145,3,1,0,2,0.383224615819465,0.375641031830689
"1106",28,38,2,2,146,2,2,1,3,0.565142170849541,0.550213383534648
"1107",28,33,2,2,147,1,2,1,4,0.393539269301044,0.453809940397731
"1108",28,37,2,2,148,2,1,0,3,0.593277434067651,0.617289113598955
"1109",28,23,2,1,149,1,1,1,4,0.268794959782718,0.271960328991705
"1110",28,36,2,2,150,2,1,0,3,0.717251545341755,0.712194324385845
"1111",28,23,2,2,151,1,1,0,3,0.468005902259247,0.429516181740995
"1112",28,40,2,1,152,2,2,0,2,0.624553222860239,0.656341582545338
"1113",28,38,2,2,153,3,1,0,1,0.833725472086397,0.878420809472028
"1114",28,34,2,2,154,3,1,0,1,1.55207925924776,1.54607704888279
"1115",28,40,2,2,155,3,2,1,3,0.784650135390494,0.802658020781533
"1116",28,38,2,1,156,2,2,0,3,0.567440031216388,0.592589528075058
"1117",28,33,2,1,157,2,2,0,3,0.630636699690137,0.648694042833604
"1118",28,37,2,1,158,2,1,1,3,0.631440978154651,0.627522622998811
"1119",28,23,2,1,159,1,1,1,4,0.409375953789651,0.510940496748596
"1120",28,36,2,2,160,1,2,1,4,0.437558328983375,0.437822572785295
"1121",28,23,2,1,161,2,1,1,3,0.567141614440278,0.554450011373458
"1122",28,40,2,1,162,3,2,0,2,0.371420854399532,0.367100269148098
"1123",28,38,2,2,163,3,2,1,2,1.1314871459139,1.09633074819368
"1124",28,34,2,2,164,1,2,1,5,0.47461140890247,0.517858258205965
"1125",28,40,2,1,165,3,2,0,1,0.947246474417281,0.912583424256669
"1126",28,38,2,1,166,1,2,0,4,0.523085112167514,0.581942911799112
"1127",28,33,2,1,167,1,1,1,5,0.350811884728122,0.403316095898991
"1128",28,37,2,2,168,1,2,1,4,0.396740373063275,0.415067714032088
"1129",28,23,2,2,169,3,1,0,1,0.779013871365872,0.708827428582603
"1130",28,36,2,2,170,2,1,0,3,0.755380766532113,0.778177827916168
"1131",28,23,2,1,171,1,1,1,4,0.397870919549935,0.450053234442656
"1132",28,40,2,2,172,1,2,1,5,0.369536501641546,0.328680529519508
"1133",28,38,2,2,173,1,1,0,3,0.55567702946879,0.53022400014698
"1134",28,34,2,1,174,1,1,1,4,0.429906537272091,0.515940176162621
"1135",28,40,2,2,175,1,1,0,3,0.574472276149309,0.564893999292905
"1136",28,38,2,2,176,2,1,0,3,0.498611035858075,0.498651450724379
"1137",28,33,2,1,177,3,1,1,3,0.75574985405112,0.741795005538033
"1138",28,37,2,1,178,3,2,0,1,0.66167613524953,0.690225056639869
"1139",28,23,2,1,179,2,1,1,3,0.483940786374632,0.550295421210911
"1140",28,36,2,1,180,2,1,1,3,0.645879436819572,0.718552690515127
"1141",28,23,2,1,181,3,1,1,2,0.753221316076461,0.710431858540716
"1142",28,40,2,2,182,1,2,1,4,0.527334367595181,0.564179800623711
"1143",28,38,2,2,183,1,2,1,4,0.34371274197432,0.360115372930527
"1144",28,34,2,1,184,1,1,1,4,0.526008167099172,0.543023838276107
"1145",28,40,2,2,185,1,1,0,4,0.433776731473013,0.476333778634343
"1146",28,38,2,1,186,3,2,0,1,0.489718651501363,0.481893933969679
"1147",28,33,2,1,187,3,2,0,2,0.969363305825733,0.933871115088076
"1148",28,37,2,2,188,2,1,0,2,0.794585831630889,0.774399288876494
"1149",28,23,2,1,189,1,1,1,5,0.509609588927668,0.488587853081889
"1150",28,36,2,2,190,1,2,1,5,0.418380113222638,0.393385496881036
"1151",28,23,2,1,191,1,1,1,5,0.338659644032889,0.403365426882891
"1152",28,40,2,2,192,3,2,1,3,0.668440153357127,0.656201913757235
"1153",28,38,2,2,193,3,1,0,1,1.16023805806707,1.08558053553053
"1154",28,34,2,2,194,1,1,0,4,0.47887344505139,0.496377532608068
"1155",28,40,2,1,195,3,1,1,3,0.660884280605729,0.651144434038714
"1156",28,38,2,2,196,3,1,0,2,1.15423876736034,1.05675641696963
"1157",28,33,2,1,197,3,2,0,1,1.01008130383616,1.00535226730156
"1158",28,37,2,1,198,2,1,1,4,0.65253018152611,0.581371706441366
"1159",28,23,2,2,199,3,1,0,2,0.910653649217896,0.885769190122284
"1160",28,36,2,2,200,1,2,1,5,0.401174361306861,0.353685117707043
"1161",28,23,2,2,201,1,2,1,5,0.381039677632305,0.510868411514665
"1162",28,40,2,2,202,3,2,1,3,1.01997193196218,0.988662952499932
"1163",28,38,2,1,203,3,2,0,2,0.753208728036328,0.727686814062655
"1164",28,34,2,2,204,2,2,1,4,0.510976805290123,0.503609954236459
"1165",28,40,2,2,205,3,1,0,1,0.739212170081243,0.725703065864431
"1166",28,38,2,1,206,2,2,0,3,0.608080776910365,0.582533301975837
"1167",28,33,2,2,207,3,1,0,2,0.716485961111381,0.702806270188473
"1168",28,37,2,1,208,1,1,1,4,0.474035525091453,0.467261744579299
"1169",28,23,2,1,209,1,1,1,5,0.435996937005483,0.328025995171937
"1170",28,36,2,2,210,1,2,1,5,0.43636879869306,0.496079315256452
"1171",28,23,2,2,211,3,2,1,2,0.670105485406802,0.678416905475694
"1172",28,40,2,2,212,1,2,1,4,0.425897411290891,0.407222729095457
"1173",28,38,2,1,213,3,1,1,3,0.429472850275501,0.419337385062054
"1174",28,34,2,1,214,2,2,0,3,0.947829435951752,1.06400756520807
"1175",28,40,2,1,215,3,1,1,3,0.606418900000777,0.609821286115149
"1176",28,38,2,1,216,3,2,0,1,0.645416876573242,0.671509109607198
"1177",28,33,2,2,217,1,2,1,4,0.360404454495861,0.338358672915154
"1178",28,37,2,1,218,3,1,1,3,0.674373983840154,0.651544386338644
"1179",28,23,2,2,219,2,2,1,4,0.598210516600797,0.605783144991017
"1180",28,36,2,1,220,2,2,0,3,0.690773718927742,0.702381270201889
"1181",28,23,2,2,221,1,2,1,5,0.427598932927715,0.467844006296603
"1182",28,40,2,2,222,3,2,1,3,0.817331052808539,0.811845838176186
"1183",28,38,2,2,223,3,1,0,2,0.423287478150769,0.579480483038105
"1184",28,34,2,1,224,1,1,1,5,0.472251713126066,0.482735416764106
"1185",28,40,2,1,225,2,2,0,3,0.734568747454663,0.672703504063844
"1186",28,38,2,1,226,2,2,0,3,0.660191716001777,0.556688282947323
"1187",28,33,2,2,227,3,1,0,2,1.22203418013782,1.2504548461657
"1188",28,37,2,2,228,2,2,1,3,0.810383796001016,0.790667446048807
"1189",28,23,2,1,229,1,1,1,4,0.304222152071533,0.368586923272548
"1190",28,36,2,1,230,2,1,1,3,0.761860026337061,0.687786368599053
"1191",28,23,2,1,231,2,2,0,3,0.994856214857084,1.09260160598818
"1192",28,40,2,2,232,1,2,1,5,0.431738262050331,0.498553322781548
"1193",28,38,2,1,233,2,1,1,4,0.499642418910231,0.425969636279721
"1194",28,34,2,1,234,2,1,1,3,0.538101592700067,0.654794133252836
"1195",28,40,2,2,235,3,2,1,3,0.764861760626791,0.827954055108357
"1196",28,38,2,1,236,3,1,1,3,0.888862524396246,0.857250999937243
"1197",28,33,2,2,237,2,2,1,3,0.651413974774578,0.643154245559816
"1198",28,37,2,2,238,1,2,1,4,0.438215683023158,0.394372969957306
"1199",28,23,2,1,239,3,1,1,2,0.787768581071912,0.766089499229241
"1200",28,36,2,1,240,3,1,1,3,0.971316068417144,0.879377879457395
"1201",27,25,1,1,1,2,2,0,3,0.939298698398282,0.953219321851019
"1202",27,31,1,1,2,1,1,1,4,0.318372027483652,0.280992528495976
"1203",27,27,1,2,3,1,2,1,5,0.515325696154003,0.568565710791299
"1204",27,37,1,1,4,2,1,1,3,0.65715362549688,0.694216685326828
"1205",27,39,1,2,5,3,2,1,2,1.03119633075904,1.05834173908998
"1206",27,40,1,1,6,3,2,0,1,0.875310917582259,0.911782163919528
"1207",27,22,1,2,7,3,2,1,2,0.891183349388994,0.894102539399112
"1208",27,30,1,2,8,1,2,1,5,0.306543988111433,0.333869848625295
"1209",27,24,1,1,9,3,1,1,3,0.708721006723383,0.632370335461155
"1210",27,22,1,1,10,2,1,1,4,0.756819732169651,0.828315385521117
"1211",27,25,1,2,11,2,2,1,3,0.709371209490815,0.808693892174755
"1212",27,31,1,2,12,3,2,1,2,1.04635721567326,1.07420975268232
"1213",27,27,1,2,13,2,2,1,4,0.684993180190361,0.657215853959128
"1214",27,37,1,2,14,2,2,1,4,0.707370616505126,0.640411004858116
"1215",27,39,1,1,15,1,1,1,5,0.37799270312916,0.454710337668092
"1216",27,40,1,1,16,2,2,0,3,0.848415372864849,0.810969932126846
"1217",27,22,1,2,17,3,2,1,2,1.29088226345588,1.26309899476331
"1218",27,30,1,1,18,1,1,1,5,0.419643487613601,0.335697184627153
"1219",27,24,1,2,19,1,2,1,4,0.467283310198841,0.421443895355882
"1220",27,22,1,2,20,2,2,1,3,0.825183921099073,0.823687065418125
"1221",27,25,1,1,21,3,2,0,1,1.29481953758349,1.23349123720576
"1222",27,31,1,2,22,3,2,1,3,0.636934170096504,0.710134944299264
"1223",27,27,1,2,23,1,2,1,5,0.280972629882071,0.274156994456859
"1224",27,37,1,2,24,3,1,0,1,1.35809502266647,1.29623019097945
"1225",27,39,1,1,25,1,1,1,5,0.485303820755257,0.463944468777288
"1226",27,40,1,1,26,1,1,1,4,0.459761691360924,0.619658370199169
"1227",27,22,1,1,27,2,1,1,4,0.781636573056347,0.744987453213019
"1228",27,30,1,1,28,2,2,0,2,0.611132548844047,0.642624460329219
"1229",27,24,1,2,29,1,2,1,4,0.402709216485408,0.379655847539197
"1230",27,22,1,2,30,2,2,1,3,0.51596108715723,0.514190372508476
"1231",27,25,1,1,31,1,2,0,4,0.647616124265027,0.716134565607583
"1232",27,31,1,2,32,2,2,1,4,0.522784719842341,0.546231102157597
"1233",27,27,1,1,33,3,1,1,2,0.647896740199011,0.559931716463764
"1234",27,37,1,1,34,3,1,1,2,0.993275263706906,0.973670198686284
"1235",27,39,1,1,35,1,1,1,4,0.520956501953335,0.550875563995173
"1236",27,40,1,1,36,2,2,0,3,0.830430203424238,0.836265603102003
"1237",27,22,1,1,37,1,1,1,5,0.392786783281097,0.400371378843112
"1238",27,30,1,2,38,1,2,1,4,0.280449693317788,0.234848407117836
"1239",27,24,1,2,39,1,2,1,5,0.579952837091949,0.652736700365645
"1240",27,22,1,2,40,2,2,1,4,0.626349691153568,0.627467497862917
"1241",27,25,1,2,41,1,2,1,5,0.428465173538803,0.41028757202311
"1242",27,31,1,2,42,1,2,1,5,0.436159688906187,0.502062386361276
"1243",27,27,1,1,43,1,1,1,5,0.375278396490581,0.393688911046382
"1244",27,37,1,1,44,2,1,1,3,0.529906336988746,0.494468803401339
"1245",27,39,1,2,45,1,2,1,4,0.449444808451581,0.424920706963833
"1246",27,40,1,1,46,3,2,0,1,1.09731691199141,1.18250275866091
"1247",27,22,1,1,47,1,1,1,4,0.462559020397235,0.573147547496106
"1248",27,30,1,1,48,1,2,0,3,0.523092832613281,0.467245271041607
"1249",27,24,1,2,49,3,1,0,1,1.19429480629188,1.22934807282478
"1250",27,22,1,2,50,2,1,0,2,1.12751629638622,1.26664503666112
"1251",27,25,1,1,51,3,1,1,2,0.973051156721351,0.883607403184878
"1252",27,31,1,2,52,3,2,1,2,1.04833124107556,1.04557205878419
"1253",27,27,1,1,53,1,1,1,5,0.390653161731765,0.446639040528094
"1254",27,37,1,1,54,3,2,0,2,0.818093090357281,0.828917946483481
"1255",27,39,1,2,55,3,1,0,1,0.909481417371011,0.856342445783592
"1256",27,40,1,1,56,2,1,1,3,0.626863981839195,0.695819625259562
"1257",27,22,1,2,57,1,2,1,5,0.404635105964427,0.384660235916072
"1258",27,30,1,2,58,1,1,0,3,0.449830331699003,0.401132384193501
"1259",27,24,1,2,59,3,2,1,3,0.392647538608452,0.278200382120649
"1260",27,22,1,2,60,3,2,1,2,1.16986075411934,1.17124944091231
"1261",27,25,1,2,61,3,1,0,2,0.612186057906056,0.716199374337129
"1262",27,31,1,2,62,3,1,0,1,0.688087499461323,0.70178108018346
"1263",27,27,1,1,63,1,2,0,4,0.508850435150578,0.529312892572655
"1264",27,37,1,2,64,1,2,1,4,0.367066239905981,0.368196950908432
"1265",27,39,1,1,65,2,1,1,4,0.955057543875756,1.00655577289028
"1266",27,40,1,2,66,3,2,1,2,0.896537257208622,0.937804587520531
"1267",27,22,1,1,67,2,1,1,4,0.582085080970661,0.611061508192962
"1268",27,30,1,2,68,3,2,1,2,1.20391461605008,1.18760148744343
"1269",27,24,1,2,69,1,1,0,4,0.642284679518438,0.639204392197825
"1270",27,22,1,1,70,2,1,1,4,0.445723569507259,0.355005721073051
"1271",27,25,1,2,71,3,1,0,1,0.896670636280763,0.838350469416067
"1272",27,31,1,1,72,2,2,0,2,0.459709710230204,0.434369594638812
"1273",27,27,1,2,73,3,1,0,2,0.815192150753188,0.89818044790808
"1274",27,37,1,1,74,2,1,1,4,0.331115940887558,0.381552314299496
"1275",27,39,1,2,75,3,1,0,2,0.890894621066351,0.902663726311005
"1276",27,40,1,1,76,3,2,0,2,0.55062871073681,0.421443703159989
"1277",27,22,1,1,77,2,2,0,2,0.735466147546535,0.687806761351376
"1278",27,30,1,2,78,1,2,1,4,0.590021164425022,0.486058639204125
"1279",27,24,1,2,79,3,1,0,1,1.1527952397558,1.08569679715966
"1280",27,22,1,2,80,1,2,1,4,0.439066431005885,0.444004697772874
"1281",27,25,1,1,81,1,1,1,4,0.463788930685532,0.516925877905363
"1282",27,31,1,1,82,3,1,1,2,0.903479985969743,0.890667860142316
"1283",27,27,1,2,83,2,2,1,3,0.639510174852603,0.56445495293477
"1284",27,37,1,2,84,2,2,1,4,0.678108629892658,0.658306013995917
"1285",27,39,1,1,85,2,1,1,4,0.591737664760067,0.614126949022175
"1286",27,40,1,1,86,1,1,1,5,0.330642071764409,0.300920416861678
"1287",27,22,1,1,87,3,2,0,2,1.10725217087423,1.07592691366409
"1288",27,30,1,1,88,3,1,1,3,0.960463666334746,0.943258759446944
"1289",27,24,1,1,89,3,1,1,3,0.499989268141344,0.515153530600605
"1290",27,22,1,1,90,3,2,0,2,1.6760135791028,1.75997119359914
"1291",27,25,1,2,91,2,1,0,2,0.645217457450758,0.617985491430685
"1292",27,31,1,1,92,3,1,1,3,0.6006612723351,0.631867508274439
"1293",27,27,1,1,93,3,2,0,1,1.02477498480218,0.946362823296938
"1294",27,37,1,1,94,1,1,1,4,0.500226817716059,0.442591928765357
"1295",27,39,1,1,95,1,1,1,4,0.430334787247629,0.392246851781044
"1296",27,40,1,2,96,3,1,0,2,0.604494162761777,0.554763067762947
"1297",27,22,1,1,97,1,1,1,5,0.415580582435802,0.419893070034011
"1298",27,30,1,2,98,1,2,1,5,0.575909187702438,0.549183110612584
"1299",27,24,1,2,99,2,1,0,3,0.673198888369111,0.611588209506111
"1300",27,22,1,2,100,2,2,1,3,0.553833130720589,0.541944169213536
"1301",27,25,1,1,101,1,1,1,4,0.258199492238338,0.234456498979913
"1302",27,31,1,2,102,3,1,0,1,1.1522416200077,1.15658447582461
"1303",27,27,1,2,103,2,2,1,4,0.612766553185744,0.644605438801934
"1304",27,37,1,1,104,3,2,0,2,1.02118908260329,1.01266294589282
"1305",27,39,1,2,105,3,1,0,2,1.44916228227511,1.50877855048913
"1306",27,40,1,2,106,1,2,1,4,0.475455056006168,0.594487598764561
"1307",27,22,1,2,107,1,2,1,5,0.388077816901157,0.252225058710889
"1308",27,30,1,1,108,1,1,1,5,0.504327570501931,0.460286913853592
"1309",27,24,1,2,109,2,1,0,3,0.671838783491154,0.694364834987178
"1310",27,22,1,1,110,1,1,1,5,0.482461620878904,0.484636957008517
"1311",27,25,1,2,111,1,2,1,5,0.385459588880904,0.403190812763089
"1312",27,31,1,2,112,2,1,0,3,0.574281750888178,0.552150768884849
"1313",27,27,1,1,113,2,1,1,3,0.633580060462285,0.660990069372896
"1314",27,37,1,2,114,1,2,1,5,0.431079375366849,0.47734441498711
"1315",27,39,1,2,115,1,2,1,5,0.419459087836081,0.403486194598809
"1316",27,40,1,2,116,1,2,1,5,0.244513419151503,0.196378803485493
"1317",27,22,1,2,117,1,2,1,4,0.431658141395776,0.371307213138973
"1318",27,30,1,1,118,1,1,1,5,0.38061747420666,0.327988563042758
"1319",27,24,1,2,119,2,1,0,2,0.749442792395405,0.723545025641196
"1320",27,22,1,1,120,1,2,0,3,0.512432765420446,0.519664103565701
"1321",27,25,1,2,121,3,2,1,3,0.598693363308907,0.614710266446047
"1322",27,31,1,1,122,2,1,1,3,0.743265589825818,0.740380055354804
"1323",27,27,1,2,123,1,2,1,5,0.361129070032434,0.360782603406991
"1324",27,37,1,2,124,3,1,0,1,0.967979053119883,1.02190568116846
"1325",27,39,1,1,125,3,1,1,2,1.06084981625038,1.07019189115547
"1326",27,40,1,1,126,2,1,1,3,0.770693159555276,0.657642981717682
"1327",27,22,1,2,127,1,2,1,5,0.522833489155656,0.46409620655457
"1328",27,30,1,2,128,2,2,1,4,0.521501402108969,0.547057602969431
"1329",27,24,1,1,129,1,1,1,4,0.381180782694087,0.342013469849319
"1330",27,22,1,2,130,2,2,1,4,0.761942709998091,0.783564592817306
"1331",27,25,1,2,131,3,1,0,1,0.552310847291883,0.508260617446201
"1332",27,31,1,2,132,1,2,1,5,0.492423848186282,0.447329298191629
"1333",27,27,1,2,133,1,1,0,3,0.50474683497791,0.591396281812274
"1334",27,37,1,1,134,1,1,1,5,0.360243438023714,0.317966544713767
"1335",27,39,1,1,135,2,1,1,4,0.826066153871945,0.787462347389237
"1336",27,40,1,1,136,2,1,1,4,0.536402565042822,0.579418690952895
"1337",27,22,1,1,137,3,1,1,2,0.546070278438515,0.592327134856476
"1338",27,30,1,2,138,3,2,1,2,0.946743473485155,0.990614297040778
"1339",27,24,1,1,139,3,1,1,2,0.786862845742848,0.81183829118625
"1340",27,22,1,2,140,3,1,0,2,1.13877017775179,1.23269114353944
"1341",27,25,1,2,141,1,2,1,5,0.565264334537916,0.612813120041625
"1342",27,31,1,1,142,2,2,0,3,0.858131576644814,0.793952116432391
"1343",27,27,1,1,143,2,1,1,3,0.458182416932003,0.48010198106516
"1344",27,37,1,2,144,2,1,0,3,0.97276532460203,0.914557350173243
"1345",27,39,1,2,145,3,1,0,2,0.446591710038992,0.402287844101155
"1346",27,40,1,1,146,3,1,1,2,0.806015965071433,0.809248835938658
"1347",27,22,1,2,147,2,1,0,2,0.847147637705211,0.806791647542993
"1348",27,30,1,2,148,2,1,0,2,0.628698955032686,0.597762129564826
"1349",27,24,1,1,149,2,1,1,3,0.665789899921712,0.680234805637962
"1350",27,22,1,2,150,3,2,1,2,1.03715678344931,0.950522096026783
"1351",27,25,1,1,151,3,2,0,1,0.413309940955472,0.480879678101155
"1352",27,31,1,2,152,2,1,0,2,0.894732951927057,0.973513146654279
"1353",27,27,1,2,153,3,2,1,3,0.847653335027786,0.88895178164897
"1354",27,37,1,1,154,1,1,1,4,0.331229628935361,0.325683903545032
"1355",27,39,1,1,155,3,2,0,2,1.09344785272546,1.08810714127849
"1356",27,40,1,1,156,3,2,0,1,1.69331134571384,1.76575217573734
"1357",27,22,1,2,157,3,2,1,3,0.799819951207574,0.789305488523941
"1358",27,30,1,2,158,3,2,1,2,0.770576830333463,0.768834588487375
"1359",27,24,1,1,159,3,2,0,1,0.540303583777072,0.457624835154412
"1360",27,22,1,1,160,3,1,1,3,0.842905097972752,0.928670883480625
"1361",27,25,1,2,161,3,1,0,2,0.664424153435828,0.623038562347886
"1362",27,31,1,1,162,3,1,1,3,0.691353508353292,0.651107915181906
"1363",27,27,1,1,163,2,2,0,2,0.602138023260426,0.684730703282956
"1364",27,37,1,1,164,3,1,1,3,0.976630095469429,1.03008900494596
"1365",27,39,1,2,165,1,2,1,4,0.333685379749909,0.324174262459507
"1366",27,40,1,2,166,2,2,1,3,0.668662146326463,0.712099353313932
"1367",27,22,1,1,167,2,1,1,4,0.611488892089516,0.568688438173285
"1368",27,30,1,1,168,3,2,0,1,0.814517121986239,0.780496542987178
"1369",27,24,1,1,169,2,1,1,4,0.730342726093785,0.727395512380743
"1370",27,22,1,1,170,3,2,0,1,0.500284351367357,0.511919016606726
"1371",27,25,1,1,171,3,2,0,2,1.5989011189114,1.55509017205455
"1372",27,31,1,1,172,2,1,1,3,0.433803355256253,0.524074174368714
"1373",27,27,1,1,173,1,1,1,4,0.45293005633816,0.443013552497508
"1374",27,37,1,1,174,3,2,0,2,0.995458967196643,0.926519813894466
"1375",27,39,1,1,175,2,1,1,3,0.783973222566866,0.782447882847919
"1376",27,40,1,1,176,2,1,1,3,0.570350976479151,0.60045831871102
"1377",27,22,1,1,177,1,2,0,3,0.527693689042935,0.542806454855896
"1378",27,30,1,2,178,2,2,1,4,0.486433566713251,0.481499604196634
"1379",27,24,1,2,179,1,1,0,4,0.608981125968059,0.594364145133597
"1380",27,22,1,2,180,2,2,1,4,0.636339402870941,0.612538478659689
"1381",27,25,1,2,181,2,1,0,3,0.826444894770647,0.849258809155227
"1382",27,31,1,1,182,3,1,1,3,0.675261878942597,0.727105558194146
"1383",27,27,1,1,183,2,1,1,4,0.529828653607372,0.581214045248527
"1384",27,37,1,1,184,1,1,1,5,0.296574236713584,0.250526703027037
"1385",27,39,1,1,185,2,2,0,3,0.661247929857893,0.63084998272522
"1386",27,40,1,1,186,3,2,0,2,0.47625388150192,0.496741866845711
"1387",27,22,1,1,187,1,1,1,5,0.42658200778659,0.448115203345487
"1388",27,30,1,2,188,2,1,0,2,0.561954397769776,0.520559242620006
"1389",27,24,1,2,189,2,2,1,3,0.536193652833851,0.641316025370902
"1390",27,22,1,2,190,3,1,0,2,0.895832581367222,0.943174805268966
"1391",27,25,1,2,191,2,2,1,3,0.621219617312617,0.669406147274863
"1392",27,31,1,2,192,3,1,0,2,1.21780212769492,1.20186355491931
"1393",27,27,1,2,193,1,1,0,4,0.4030901255404,0.377928499774521
"1394",27,37,1,2,194,3,1,0,1,0.937802395662771,1.01047122765428
"1395",27,39,1,2,195,2,1,0,3,0.953761794374542,0.947671582664993
"1396",27,40,1,1,196,3,1,1,2,0.930616741848314,1.01859328667445
"1397",27,22,1,2,197,2,2,1,3,0.816786353209263,0.813055742140643
"1398",27,30,1,2,198,3,2,1,3,0.927531728240912,0.960668810315998
"1399",27,24,1,1,199,3,1,1,2,0.650614662439533,0.720247553417749
"1400",27,22,1,1,200,2,1,1,4,0.627239443653718,0.589541478207928
"1401",27,25,1,1,201,2,1,1,3,0.353393386825523,0.343237114276738
"1402",27,31,1,2,202,3,2,1,3,0.874739109719016,0.850359777529668
"1403",27,27,1,1,203,2,2,0,2,0.783043475144916,0.8381623419067
"1404",27,37,1,1,204,1,1,1,4,0.406004268422392,0.372956162236216
"1405",27,39,1,1,205,2,2,0,3,0.630378640094423,0.595302727115135
"1406",27,40,1,1,206,2,1,1,4,0.739707999303672,0.708153146341481
"1407",27,22,1,1,207,1,1,1,5,0.345451527494652,0.313763763418944
"1408",27,30,1,2,208,3,2,1,2,1.00614976787528,0.973111255971651
"1409",27,24,1,1,209,1,1,1,5,0.544310213396776,0.498331312136355
"1410",27,22,1,2,210,2,1,0,3,0.628018413529334,0.587817714238393
"1411",27,25,1,2,211,2,2,1,3,0.590552006270339,0.599044686923954
"1412",27,31,1,1,212,1,1,1,5,0.484976560650272,0.432797688269578
"1413",27,27,1,2,213,1,2,1,5,0.232033753629294,0.257484583116415
"1414",27,37,1,2,214,1,2,1,5,0.323259761688099,0.385059152369998
"1415",27,39,1,2,215,1,2,1,5,0.32031670944964,0.315918844671439
"1416",27,40,1,2,216,1,2,1,5,0.602303478240167,0.477142260752299
"1417",27,22,1,2,217,1,2,1,4,0.472480407834105,0.55220955753387
"1418",27,30,1,1,218,1,1,1,4,0.496412219502093,0.572527933785328
"1419",27,24,1,1,219,2,1,1,3,0.399764761758942,0.435669376140965
"1420",27,22,1,2,220,2,1,0,3,0.556252556173016,0.596952643577569
"1421",27,25,1,1,221,2,1,1,4,0.617230598399788,0.684698452545242
"1422",27,31,1,1,222,3,2,0,1,1.33929259686323,1.31858646785814
"1423",27,27,1,1,223,1,2,0,4,0.553613565752957,0.550707519701055
"1424",27,37,1,1,224,2,2,0,2,0.680980766657953,0.676925472679039
"1425",27,39,1,2,225,1,1,0,3,0.462965653136524,0.453668231657245
"1426",27,40,1,1,226,2,1,1,3,0.668165092243057,0.718738455816864
"1427",27,22,1,2,227,1,2,1,5,0.412665280655361,0.392766800982099
"1428",27,30,1,1,228,1,1,1,5,0.495357432596458,0.476309886238832
"1429",27,24,1,2,229,2,2,1,3,0.665869456843715,0.642146932193083
"1430",27,22,1,2,230,3,1,0,1,0.514725162447855,0.601782247410758
"1431",27,25,1,2,231,1,2,1,5,0.455319090603933,0.476378929980005
"1432",27,31,1,2,232,3,1,0,2,0.608788627525191,0.651887892446477
"1433",27,27,1,1,233,3,2,0,1,1.42488751263933,1.38587467060547
"1434",27,37,1,1,234,1,1,1,4,0.459584316481784,0.474038317830083
"1435",27,39,1,2,235,3,2,1,2,0.898093748208419,0.953390760203405
"1436",27,40,1,2,236,2,1,0,2,0.820093378619214,0.743484505335996
"1437",27,22,1,1,237,2,1,1,4,0.578124270487223,0.598595347626295
"1438",27,30,1,1,238,2,2,0,2,0.718444179331132,0.741056602278896
"1439",27,24,1,1,239,1,1,1,5,0.379926741644086,0.32792917202562
"1440",27,22,1,2,240,1,2,1,4,0.192788518889308,0.170759293175359
"1441",26,33,2,2,1,3,1,0,2,1.21217282098451,1.20674457200049
"1442",26,32,2,1,2,3,1,1,3,1.20174832507335,1.16409347671695
"1443",26,35,2,2,3,3,1,0,2,-0.405198607446584,-0.39562868051124
"1444",26,27,2,1,4,2,2,0,2,0.50056376952164,0.4628869003573
"1445",26,25,2,2,5,3,1,0,2,1.63183394123412,1.63369156431567
"1446",26,32,2,2,6,3,2,1,2,1.08296438290549,1.03741090916372
"1447",26,30,2,2,7,3,1,0,2,1.38760152745229,1.39770225191405
"1448",26,30,2,1,8,1,1,1,5,0.3863431093424,0.350034443876084
"1449",26,24,2,2,9,3,2,1,3,0.824290616088376,0.824628582155244
"1450",26,32,2,1,10,1,1,1,5,0.325689554996056,0.297629002705427
"1451",26,33,2,2,11,1,1,0,4,0.4775569818244,0.559084619022501
"1452",26,32,2,1,12,2,2,0,3,0.988519764548895,0.932849414037094
"1453",26,35,2,2,13,1,2,1,4,0.328399383732017,0.35121359426466
"1454",26,27,2,2,14,2,1,0,2,0.741045386461972,0.717606057774293
"1455",26,25,2,2,15,1,1,0,4,0.581108215912744,0.586541968075419
"1456",26,32,2,2,16,3,2,1,2,0.976059192738724,0.952431605578556
"1457",26,30,2,2,17,1,2,1,4,0.344580239198593,0.293142321026453
"1458",26,30,2,1,18,1,2,0,3,0.872185329701073,0.844928058626822
"1459",26,24,2,2,19,1,2,1,5,0.371193642795168,0.321948767648325
"1460",26,32,2,2,20,1,2,1,4,0.565819892853177,0.611286330345258
"1461",26,33,2,2,21,3,2,1,2,1.13841158271477,1.09199216578018
"1462",26,32,2,2,22,1,2,1,5,0.390194821950476,0.396619264273871
"1463",26,35,2,1,23,2,2,0,2,0.799670132694442,0.835277470972857
"1464",26,27,2,2,24,3,2,1,3,0.94475422353555,0.896474291333543
"1465",26,25,2,2,25,2,2,1,3,0.759242642857382,0.750689064056515
"1466",26,32,2,2,26,1,2,1,4,0.406536693051884,0.522572962919241
"1467",26,30,2,1,27,1,1,1,4,0.378556139457291,0.36333224033903
"1468",26,30,2,2,28,3,1,0,2,1.33312970487061,1.29305940626041
"1469",26,24,2,2,29,3,2,1,3,0.59944965797774,0.534958740665048
"1470",26,32,2,2,30,2,1,0,2,0.909675991557323,0.856939397855579
"1471",26,33,2,2,31,3,1,0,1,0.764953689113665,0.807449787665516
"1472",26,32,2,1,32,3,2,0,2,1.21744104543251,1.27025843578054
"1473",26,35,2,2,33,3,1,0,2,0.855453861852686,0.892412171010617
"1474",26,27,2,1,34,1,1,1,4,0.367213654209825,0.342695019200888
"1475",26,25,2,2,35,1,1,0,3,0.589774467746083,0.575992640772013
"1476",26,32,2,1,36,1,1,1,5,0.362612637578332,0.371654617440093
"1477",26,30,2,1,37,3,2,0,2,1.09779449794177,1.12609443340076
"1478",26,30,2,1,38,2,1,1,4,0.699261364003403,0.728535570049937
"1479",26,24,2,2,39,3,1,0,1,0.592296592770313,0.558330339610737
"1480",26,32,2,1,40,2,2,0,2,0.7048240275935,0.656196985155287
"1481",26,33,2,2,41,3,2,1,3,0.5361775750149,0.459345212532068
"1482",26,32,2,2,42,1,1,0,3,0.713687353722507,0.661253265831101
"1483",26,35,2,1,43,3,1,1,3,0.7201919198661,0.688485317514152
"1484",26,27,2,1,44,3,1,1,3,1.07443888154993,1.10535475453101
"1485",26,25,2,1,45,3,2,0,2,0.422910539682404,0.402952747488442
"1486",26,32,2,1,46,1,1,1,4,0.385011031611713,0.465161169621579
"1487",26,30,2,1,47,1,1,1,5,0.398040574675662,0.415845857074875
"1488",26,30,2,1,48,3,1,1,3,0.740715487149139,0.849005927170457
"1489",26,24,2,2,49,3,1,0,2,0.589369288363323,0.617707397959611
"1490",26,32,2,2,50,2,1,0,3,0.722416358454501,0.78619391062444
"1491",26,33,2,1,51,2,1,1,3,0.419520413591171,0.42838607311903
"1492",26,32,2,2,52,1,2,1,4,0.301266379587859,0.301643037407295
"1493",26,35,2,2,53,3,2,1,3,0.60497566646656,0.555518204140806
"1494",26,27,2,2,54,2,2,1,3,0.638074194042579,0.639550728522179
"1495",26,25,2,2,55,3,2,1,2,0.715498633480468,0.625541571832194
"1496",26,32,2,1,56,2,1,1,3,0.811344930644359,0.723451460153057
"1497",26,30,2,2,57,2,2,1,3,0.854568936861912,0.824805871151452
"1498",26,30,2,2,58,1,2,1,5,0.458842351730944,0.54999315782443
"1499",26,24,2,2,59,3,1,0,1,1.8117778291187,1.79023669046249
"1500",26,32,2,2,60,2,1,0,3,0.799195836291296,0.786985449204275
"1501",26,33,2,2,61,2,2,1,3,0.610257582276065,0.582379211193304
"1502",26,32,2,2,62,1,2,1,4,0.270591980567914,0.218767674670091
"1503",26,35,2,2,63,2,1,0,2,0.819407675650553,0.821285340778318
"1504",26,27,2,1,64,2,1,1,3,0.366041085855912,0.360375119319682
"1505",26,25,2,1,65,1,1,1,5,0.278281233104832,0.285519669754704
"1506",26,32,2,2,66,2,2,1,3,0.73089878534016,0.744615389322469
"1507",26,30,2,1,67,3,1,1,2,0.787582810614222,0.835183930976915
"1508",26,30,2,2,68,1,2,1,5,0.358470379649554,0.41732206065798
"1509",26,24,2,2,69,1,1,0,4,0.411236018619288,0.480443436445874
"1510",26,32,2,1,70,3,2,0,1,1.33381289584598,1.20896445001299
"1511",26,33,2,2,71,1,1,0,4,0.411111319849962,0.391166410780095
"1512",26,32,2,2,72,2,2,1,3,0.846650065466159,0.80630504503726
"1513",26,35,2,1,73,1,2,0,4,0.794335798647071,0.77537041575489
"1514",26,27,2,2,74,2,1,0,3,0.672293368022088,0.652565287567559
"1515",26,25,2,1,75,1,1,1,4,0.379929177911479,0.429507219013873
"1516",26,32,2,2,76,1,1,0,3,0.613714681329252,0.654957503866783
"1517",26,30,2,2,77,3,2,1,2,0.66128182736891,0.730012186927966
"1518",26,30,2,2,78,3,1,0,2,0.637061191602452,0.627907771301314
"1519",26,24,2,2,79,3,1,0,1,1.01448141581008,1.02490378860256
"1520",26,32,2,1,80,3,1,1,2,0.829008584315869,0.829232037915885
"1521",26,33,2,1,81,2,2,0,2,0.770311323832344,0.752845248153318
"1522",26,32,2,1,82,1,1,1,4,0.434637907757728,0.492773112469269
"1523",26,35,2,2,83,1,2,1,5,0.445911407750725,0.464926813564615
"1524",26,27,2,2,84,2,1,0,2,0.764403439994887,0.835173201920491
"1525",26,25,2,2,85,1,2,1,5,0.424469669486966,0.452224265933006
"1526",26,32,2,2,86,3,1,0,1,1.54843959046099,1.49661764595312
"1527",26,30,2,2,87,2,2,1,4,0.62732271339504,0.67633276517239
"1528",26,30,2,1,88,3,2,0,1,0.696524079222421,0.726599241330326
"1529",26,24,2,1,89,2,2,0,2,0.629881221364629,0.631950874764611
"1530",26,32,2,2,90,2,1,0,2,0.659407160176442,0.62055865413278
"1531",26,33,2,2,91,3,2,1,3,0.993365233368713,1.02719628014773
"1532",26,32,2,2,92,2,1,0,3,0.765004726999585,0.804316128451617
"1533",26,35,2,2,93,3,1,0,2,0.848402431301686,0.798568394048455
"1534",26,27,2,2,94,2,2,1,3,0.520536799066677,0.515076693087658
"1535",26,25,2,2,95,2,2,1,4,0.659606100358289,0.68573157659625
"1536",26,32,2,2,96,3,2,1,2,0.835161434402791,0.901230733807622
"1537",26,30,2,2,97,3,1,0,2,1.38626131743163,1.41731429707648
"1538",26,30,2,1,98,2,2,0,3,0.620583744355614,0.598196559562218
"1539",26,24,2,1,99,3,2,0,1,1.21566745010652,1.19946332378376
"1540",26,32,2,2,100,1,2,1,4,0.353460030316926,0.359728838449027
"1541",26,33,2,1,101,1,1,1,5,0.570210288342335,0.579043650666485
"1542",26,32,2,1,102,2,1,1,4,0.48128017594036,0.480723340297133
"1543",26,35,2,1,103,1,1,1,5,0.338522172322134,0.368255005481282
"1544",26,27,2,1,104,3,1,1,2,0.457394458798711,0.482111388427146
"1545",26,25,2,2,105,2,1,0,3,0.849169484332965,0.872130710296986
"1546",26,32,2,2,106,3,1,0,2,0.881244594158158,0.862821997299263
"1547",26,30,2,2,107,1,2,1,4,0.430976585943556,0.533412696732087
"1548",26,30,2,1,108,1,1,1,4,0.507543221776898,0.569679089810958
"1549",26,24,2,2,109,3,1,0,2,0.832865276498824,0.772856280825267
"1550",26,32,2,2,110,2,2,1,3,0.540342869483765,0.575801114554023
"1551",26,33,2,2,111,2,2,1,3,0.726724063726242,0.788066391947956
"1552",26,32,2,1,112,1,1,1,4,0.45013221160554,0.520850356116105
"1553",26,35,2,1,113,1,1,1,5,0.345614733008588,0.322660314066077
"1554",26,27,2,2,114,2,2,1,3,0.677425560610789,0.635402032050874
"1555",26,25,2,1,115,3,1,1,2,0.898897304559215,0.893191145860013
"1556",26,32,2,1,116,1,1,1,4,0.422897203028571,0.341000579989281
"1557",26,30,2,1,117,1,1,1,5,0.44747610666775,0.443229519934965
"1558",26,30,2,2,118,2,2,1,3,0.726878719453325,0.708232775405563
"1559",26,24,2,1,119,3,2,0,1,0.826979501840851,0.950394917679591
"1560",26,32,2,2,120,1,2,1,5,0.421303863684618,0.430014217559368
"1561",26,33,2,2,121,1,1,0,3,0.491436590033491,0.534507345701004
"1562",26,32,2,1,122,1,1,1,4,0.374338442117467,0.442371686545746
"1563",26,35,2,1,123,3,2,0,2,0.735192722592426,0.750383072697302
"1564",26,27,2,2,124,2,1,0,2,0.659431468247558,0.588462978548453
"1565",26,25,2,1,125,3,1,1,3,0.748132958725783,0.765718896485217
"1566",26,32,2,2,126,1,1,0,3,0.499439579012873,0.538274476760142
"1567",26,30,2,1,127,1,1,1,5,0.473185616756473,0.445866714725168
"1568",26,30,2,1,128,3,2,0,1,0.612834327136041,0.583386954634079
"1569",26,24,2,2,129,2,1,0,2,0.64425414453686,0.702870137313986
"1570",26,32,2,2,130,1,2,1,5,0.271566839103838,0.239592093669797
"1571",26,33,2,1,131,3,1,1,2,0.632765907418039,0.603620449870059
"1572",26,32,2,1,132,2,2,0,2,0.879679001069143,0.855394413440484
"1573",26,35,2,1,133,2,1,1,4,0.277349919501331,0.246121987794024
"1574",26,27,2,1,134,3,1,1,3,0.78100501324435,0.758464901167339
"1575",26,25,2,1,135,1,1,1,5,0.511883989895339,0.427048853355443
