"","subj_no","age","group","stim","trial","difficulty","resp","corr","conf","RT_day1","RT_day2"
"1",33,30,1,2,1,1,1,0,3,0.499203479299172,0.45496595397586
"2",33,39,1,2,2,3,1,0,1,0.718465216133718,0.754909969771603
"3",33,27,1,2,3,3,1,0,2,0.712877576358449,0.68753726378674
"4",33,26,1,1,4,2,1,1,3,0.638059045214233,0.568655417371757
"5",33,28,1,1,5,2,1,1,4,0.388788685970838,0.318750109926897
"6",33,28,1,1,6,3,2,0,2,1.28143106316824,1.36271854388214
"7",33,23,1,1,7,1,1,1,5,0.364590822424005,0.355009401839583
"8",33,20,1,2,8,1,2,1,5,0.531267123081828,0.530133708728847
"9",33,39,1,1,9,1,1,1,5,0.413005143839451,0.35323731535483
"10",33,24,1,1,10,1,1,1,5,0.397411291826959,0.372845294049824
"11",33,30,1,2,11,1,2,1,4,0.408349324675142,0.427422798409913
"12",33,39,1,2,12,2,2,1,3,0.603131049963991,0.617888956275961
"13",33,27,1,2,13,2,1,0,3,0.929040541162604,1.06862544065998
"14",33,26,1,2,14,2,2,1,3,0.49225815792384,0.541652309230528
"15",33,28,1,1,15,2,2,0,2,0.62371412213334,0.562753097665618
"16",33,28,1,1,16,3,2,0,2,1.59919308986112,1.70741364142515
"17",33,23,1,2,17,3,2,1,2,0.956992262074069,0.97164273597305
"18",33,20,1,1,18,3,1,1,3,0.629024818976091,0.573114548796289
"19",33,39,1,1,19,2,1,1,3,0.425631084935034,0.424045201508454
"20",33,24,1,1,20,2,2,0,2,0.614479878409873,0.592024782291467
"21",33,30,1,2,21,2,2,1,4,0.639657183187489,0.628054022710678
"22",33,39,1,2,22,3,1,0,2,0.294674591350386,0.333250185209583
"23",33,27,1,1,23,1,1,1,4,0.254902577951548,0.299796348480143
"24",33,26,1,2,24,3,1,0,1,0.684675748151994,0.716970448076428
"25",33,28,1,1,25,1,1,1,4,0.457142297252093,0.481094748909932
"26",33,28,1,2,26,3,1,0,1,1.10036002375514,1.163628235123
"27",33,23,1,2,27,2,1,0,2,0.766901199016665,0.7880921518293
"28",33,20,1,1,28,3,1,1,3,1.01194809551028,1.03773928702381
"29",33,39,1,1,29,2,1,1,4,0.647886517381621,0.656170890775976
"30",33,24,1,1,30,1,1,1,5,0.367043546058779,0.366560297432075
"31",33,30,1,2,31,3,2,1,3,0.523837148560999,0.472621418521134
"32",33,39,1,2,32,3,2,1,2,0.999651442814619,0.956095965994236
"33",33,27,1,1,33,2,2,0,3,0.567194620864472,0.65708778199769
"34",33,26,1,2,34,1,2,1,5,0.278649884788089,0.270068931259902
"35",33,28,1,1,35,2,1,1,4,0.674562480671737,0.630357559247527
"36",33,28,1,1,36,2,2,0,3,0.510121235008656,0.484925063756577
"37",33,23,1,2,37,1,2,1,5,0.495835449720162,0.530693748487802
"38",33,20,1,1,38,2,2,0,3,0.674277336577287,0.697761744497267
"39",33,39,1,1,39,2,1,1,3,0.704584263933371,0.699537944575969
"40",33,24,1,2,40,3,1,0,2,0.967032401362217,0.940438898685029
"41",33,30,1,1,41,1,2,0,3,0.597980958004714,0.527666658660683
"42",33,39,1,1,42,1,1,1,4,0.49097446771777,0.47918939738245
"43",33,27,1,1,43,1,1,1,5,0.460971640902722,0.490560510463163
"44",33,26,1,2,44,1,2,1,5,0.468242001363164,0.461119673521148
"45",33,28,1,1,45,3,2,0,1,1.54143485992828,1.5840190036199
"46",33,28,1,2,46,1,2,1,4,0.398777299028842,0.31884334534436
"47",33,23,1,2,47,2,1,0,2,0.49156955273965,0.480624620604857
"48",33,20,1,2,48,1,2,1,5,0.361378869767874,0.455985443020514
"49",33,39,1,1,49,1,1,1,5,0.39292092719705,0.425444679665552
"50",33,24,1,2,50,1,1,0,3,0.672081456565006,0.740040799175996
"51",33,30,1,1,51,2,2,0,2,0.898517889976085,0.878027544862303
"52",33,39,1,1,52,3,2,0,1,1.01785723503963,1.01427681354275
"53",33,27,1,1,53,1,1,1,5,0.399102085065749,0.370586243419942
"54",33,26,1,2,54,3,1,0,2,1.1654317368235,1.1940766526745
"55",33,28,1,2,55,2,2,1,3,0.675087902379142,0.767788669316915
"56",33,28,1,1,56,2,1,1,3,0.55827261146542,0.558702025570443
"57",33,23,1,2,57,2,1,0,3,0.786836799338706,0.837112053633368
"58",33,20,1,1,58,2,2,0,3,0.546441991128313,0.58193190946667
"59",33,39,1,1,59,3,2,0,1,0.710387107154669,0.679247026137613
"60",33,24,1,2,60,2,1,0,3,0.73215217810054,0.630641733846513
"61",33,30,1,1,61,2,1,1,3,0.339922585360122,0.299914717681981
"62",33,39,1,2,62,3,2,1,2,0.8131665942524,0.74944180570383
"63",33,27,1,1,63,3,2,0,1,1.12101913570461,1.14720639299923
"64",33,26,1,2,64,2,2,1,3,0.645591937260502,0.562217788293446
"65",33,28,1,2,65,1,2,1,4,0.529566809119113,0.522432426595819
"66",33,28,1,2,66,2,2,1,3,0.59746616861012,0.602519986040093
"67",33,23,1,1,67,2,1,1,3,0.68525923963126,0.62265590516743
"68",33,20,1,1,68,1,1,1,4,0.380876641246709,0.364359425503715
"69",33,39,1,2,69,3,2,1,2,1.13166627304495,1.08954041162196
"70",33,24,1,2,70,1,2,1,5,0.44883961638462,0.504119950412321
"71",33,30,1,1,71,2,1,1,4,0.662412943445667,0.61448462000925
"72",33,39,1,2,72,1,2,1,4,0.319179731907513,0.239599216627158
"73",33,27,1,1,73,2,1,1,3,0.783263426881186,0.808813422775784
"74",33,26,1,1,74,1,2,0,4,0.73584952979103,0.756200444585236
"75",33,28,1,1,75,1,1,1,4,0.463926725543503,0.555385082951463
"76",33,28,1,1,76,1,1,1,5,0.376752749366141,0.391300959522742
"77",33,23,1,2,77,1,2,1,5,0.475545425099945,0.455385047510632
"78",33,20,1,2,78,3,1,0,1,0.851099786985925,0.903620888118048
"79",33,39,1,1,79,3,1,1,3,0.586357018848674,0.593580132664142
"80",33,24,1,2,80,1,2,1,5,0.27700277716985,0.25087931411558
"81",33,30,1,2,81,2,2,1,3,0.683410760811313,0.601693503886613
"82",33,39,1,2,82,2,2,1,4,0.67980994534713,0.644828949672337
"83",33,27,1,2,83,3,1,0,1,0.825609318780461,0.76608957299677
"84",33,26,1,1,84,1,1,1,4,0.431249851383877,0.438920685871207
"85",33,28,1,2,85,1,2,1,5,0.246425094803644,0.245650769656062
"86",33,28,1,1,86,3,1,1,3,1.17525162508077,1.1201431727415
"87",33,23,1,2,87,1,2,1,5,0.346724700092606,0.36562036835758
"88",33,20,1,1,88,1,2,0,3,0.850906471153634,0.944790591388683
"89",33,39,1,2,89,2,1,0,3,0.437948637414969,0.423147801641171
"90",33,24,1,2,90,2,1,0,2,0.502472628313437,0.495705427312147
"91",33,30,1,2,91,2,2,1,4,0.463348246351142,0.486256333869396
"92",33,39,1,1,92,3,2,0,2,1.17980005602699,1.2140765889189
"93",33,27,1,2,93,3,1,0,1,0.528882955279424,0.545209086609324
"94",33,26,1,1,94,3,1,1,2,0.65397506812979,0.688829278015422
"95",33,28,1,2,95,3,1,0,1,1.30940224844696,1.34004041068298
"96",33,28,1,2,96,1,1,0,4,0.61966111779767,0.580262193179765
"97",33,23,1,1,97,1,2,0,4,0.510466994984941,0.492516582164689
"98",33,20,1,2,98,3,2,1,2,1.00112055659177,0.993266617148257
"99",33,39,1,2,99,3,1,0,1,0.536137391695862,0.536257724785452
"100",33,24,1,2,100,1,2,1,4,0.398353664449987,0.461593699946323
"101",33,30,1,2,101,2,2,1,3,0.668470748306152,0.612486291272564
"102",33,39,1,1,102,3,1,1,3,1.11640569804571,1.1300810538541
"103",33,27,1,1,103,3,2,0,1,1.20874140504095,1.2562729682395
"104",33,26,1,1,104,1,1,1,5,0.386094184309653,0.388601720316812
"105",33,28,1,2,105,2,1,0,2,0.666521862989615,0.727262799814871
"106",33,28,1,1,106,1,1,1,4,0.414421130284952,0.422311836147886
"107",33,23,1,2,107,3,2,1,2,0.840495240670868,0.833469365302527
"108",33,20,1,1,108,2,2,0,2,0.598741879800504,0.549916413585199
"109",33,39,1,2,109,3,1,0,2,1.04285934303782,0.944920625552571
"110",33,24,1,1,110,2,2,0,2,0.930987425954782,0.921285754578318
"111",33,30,1,1,111,3,1,1,2,0.754556434059745,0.800341800378009
"112",33,39,1,2,112,1,2,1,5,0.342290162854275,0.311624101937498
"113",33,27,1,1,113,2,1,1,4,0.520263573395818,0.576682192164484
"114",33,26,1,2,114,2,1,0,2,0.687246427954514,0.747278440567336
"115",33,28,1,1,115,3,1,1,3,0.868123735361235,0.838870797664629
"116",33,28,1,2,116,3,1,0,2,1.19187896833893,1.29074596735998
"117",33,23,1,2,117,3,1,0,1,0.766000419739293,0.787473004604773
"118",33,20,1,1,118,1,2,0,4,0.449704301134905,0.491614750279105
"119",33,39,1,1,119,2,1,1,3,0.618634128490603,0.591368958074899
"120",33,24,1,1,120,1,1,1,5,0.48171828642484,0.596086163136162
"121",33,30,1,1,121,1,1,1,4,0.40011135941095,0.50046744244508
"122",33,39,1,2,122,1,1,0,4,0.707337918941106,0.692553963443498
"123",33,27,1,2,123,2,1,0,2,0.703024218226723,0.740050948948475
"124",33,26,1,1,124,3,1,1,3,0.844939957731007,0.744497973593594
"125",33,28,1,1,125,1,2,0,3,0.700425901020485,0.707584476800873
"126",33,28,1,2,126,3,1,0,1,0.522405793988654,0.529767506339813
"127",33,23,1,2,127,3,1,0,1,0.818420117631852,0.827881166893166
"128",33,20,1,1,128,2,1,1,3,0.56690051399224,0.609137650995144
"129",33,39,1,1,129,2,2,0,2,0.702472775060766,0.727477772619763
"130",33,24,1,2,130,1,2,1,5,0.291377297580335,0.347611479092481
"131",33,30,1,1,131,2,1,1,4,0.593856568712124,0.585097865424289
"132",33,39,1,2,132,1,2,1,4,0.325091565872607,0.354182917851758
"133",33,27,1,2,133,1,2,1,5,0.41731833531595,0.413158589051665
"134",33,26,1,2,134,2,2,1,4,0.505193309381631,0.471883460016865
"135",33,28,1,1,135,2,1,1,4,0.561100485163768,0.574390477830728
"136",33,28,1,2,136,2,1,0,3,0.494268141188243,0.524076245133105
"137",33,23,1,2,137,1,1,0,3,0.48887143374786,0.473650019170901
"138",33,20,1,2,138,3,2,1,2,0.604874026452239,0.575939728563117
"139",33,39,1,2,139,1,2,1,4,0.211991226798833,0.270900427848987
"140",33,24,1,1,140,3,2,0,2,0.323748224581073,0.268338852134469
"141",33,30,1,1,141,2,2,0,3,0.507144764281904,0.459901351649144
"142",33,39,1,1,142,3,2,0,1,0.424033002444885,0.449809911097048
"143",33,27,1,2,143,2,1,0,2,0.646251917270768,0.689494769391643
"144",33,26,1,2,144,2,2,1,3,0.77394034175449,0.845951173614761
"145",33,28,1,2,145,2,2,1,3,0.542058638326531,0.529149983880448
"146",33,28,1,2,146,3,2,1,3,0.857070834995624,0.860979264792347
"147",33,23,1,2,147,3,1,0,1,1.15083945368296,1.10249832539905
"148",33,20,1,1,148,1,1,1,5,0.392441602340649,0.430803786184066
"149",33,39,1,2,149,2,1,0,3,0.871083840277364,0.87325309540903
"150",33,24,1,2,150,1,2,1,5,0.308667252718462,0.342789946528775
"151",33,30,1,1,151,2,2,0,3,1.05217139480132,1.09404407147625
"152",33,39,1,2,152,2,2,1,3,0.522299539583125,0.494901964581681
"153",33,27,1,1,153,3,2,0,2,1.44388306197342,1.37602932325887
"154",33,26,1,2,154,2,2,1,4,0.770370399444785,0.756702981016145
"155",33,28,1,1,155,2,2,0,2,0.628782342343415,0.661458066235984
"156",33,28,1,1,156,3,2,0,2,0.503990727340926,0.528561910100705
"157",33,23,1,1,157,1,2,0,4,0.492337776217404,0.467963886612151
"158",33,20,1,2,158,1,1,0,4,0.349208701167796,0.377503281346314
"159",33,39,1,2,159,2,2,1,3,0.641869873098836,0.594555450719585
"160",33,24,1,1,160,1,2,0,4,0.52835191191119,0.521399647754404
"161",33,30,1,1,161,3,1,1,2,0.880856287733741,0.881463250782882
"162",33,39,1,1,162,3,2,0,2,0.750475071940243,0.733154469020137
"163",33,27,1,2,163,3,2,1,3,0.637087581615264,0.64218916903134
"164",33,26,1,2,164,2,1,0,2,0.484752632791115,0.425316723257493
"165",33,28,1,2,165,2,1,0,3,0.778524697670945,0.748022515826384
"166",33,28,1,1,166,1,1,1,4,0.341883870133843,0.388619634409512
"167",33,23,1,1,167,2,1,1,3,0.446447565308899,0.538339369734941
"168",33,20,1,1,168,1,1,1,5,0.382311108039088,0.344032430169807
"169",33,39,1,2,169,3,1,0,2,0.873546521278509,0.882173947339374
"170",33,24,1,1,170,1,1,1,4,0.499812267159389,0.527654711138271
"171",33,30,1,1,171,1,1,1,5,0.397249289182746,0.452764200352194
"172",33,39,1,2,172,2,2,1,3,0.553033380331078,0.562798038200539
"173",33,27,1,2,173,2,2,1,3,0.703519410725512,0.699106933825305
"174",33,26,1,2,174,1,2,1,4,0.443410718958835,0.469587430603536
"175",33,28,1,1,175,1,1,1,4,0.446822917625758,0.415978037181296
"176",33,28,1,1,176,1,1,1,5,0.438421012963641,0.466782865920259
"177",33,23,1,1,177,2,1,1,3,0.560491834422306,0.50440837943557
"178",33,20,1,1,178,1,1,1,4,0.416322948841163,0.502160245684322
"179",33,39,1,1,179,2,1,1,3,0.538529427026589,0.493633616666467
"180",33,24,1,2,180,2,1,0,3,0.827952844705564,0.768369905710729
"181",33,30,1,1,181,3,1,1,2,0.73054975559389,0.766881634345701
"182",33,39,1,1,182,2,1,1,3,0.524475476590914,0.507359778565733
"183",33,27,1,2,183,3,2,1,2,0.593930663017531,0.593882296227702
"184",33,26,1,2,184,2,2,1,3,0.646939153767584,0.673812531459853
"185",33,28,1,1,185,1,1,1,5,0.4078709522727,0.368956417298262
"186",33,28,1,2,186,2,2,1,4,0.625285275175494,0.717065610088322
"187",33,23,1,2,187,3,2,1,3,0.701864200453283,0.65795404349277
"188",33,20,1,2,188,2,1,0,3,0.851147110235469,0.863469334627499
"189",33,39,1,1,189,3,1,1,3,0.461211605550907,0.469954042561971
"190",33,24,1,2,190,3,1,0,1,1.29645881960563,1.28821589068192
"191",33,30,1,1,191,3,2,0,1,1.69696549239949,1.76749397239948
"192",33,39,1,1,192,2,1,1,3,0.539964408361715,0.481191771801277
"193",33,27,1,1,193,1,1,1,5,0.445390645007942,0.396126653923673
"194",33,26,1,1,194,1,1,1,5,0.432588549880784,0.364523569967695
"195",33,28,1,1,195,1,2,0,3,0.467318836835562,0.479454386569935
"196",33,28,1,2,196,3,2,1,2,0.805016605248516,0.81223186187357
"197",33,23,1,1,197,3,1,1,3,1.04315181247888,0.998994305376361
"198",33,20,1,1,198,3,1,1,3,0.436175798426128,0.291280532686644
"199",33,39,1,2,199,1,2,1,4,0.47544054782972,0.521185236718365
"200",33,24,1,1,200,2,2,0,2,0.575493437862023,0.634907701685941
"201",33,30,1,2,201,1,2,1,4,0.380527825972698,0.334545116199335
"202",33,39,1,2,202,2,1,0,3,0.570459587986407,0.528201680657103
"203",33,27,1,2,203,2,1,0,3,0.559406249030752,0.555503477056814
"204",33,26,1,2,204,3,2,1,2,0.795751047705518,0.712647746595152
"205",33,28,1,2,205,3,1,0,2,1.13068522105833,1.1061577334503
"206",33,28,1,2,206,1,1,0,4,0.565075948781136,0.489483226864423
"207",33,23,1,1,207,2,1,1,3,0.684665921028052,0.598621539680225
"208",33,20,1,2,208,3,2,1,3,0.503349729997344,0.610176575129957
"209",33,39,1,1,209,1,1,1,4,0.422547274889436,0.407261517528014
"210",33,24,1,2,210,2,1,0,3,0.631522306765621,0.609080549138075
"211",33,30,1,1,211,3,2,0,1,1.10262531090463,1.03799414978916
"212",33,39,1,1,212,3,1,1,3,0.872333036901519,0.989763805079152
"213",33,27,1,2,213,3,1,0,2,1.42331540532892,1.45073939605654
"214",33,26,1,1,214,2,1,1,4,0.65564242631386,0.652076410496972
"215",33,28,1,2,215,2,2,1,3,0.440235804843131,0.319879932341635
"216",33,28,1,2,216,3,2,1,2,0.846737791667472,0.775692748685064
"217",33,23,1,1,217,3,2,0,2,0.525265493380573,0.524107307657761
"218",33,20,1,1,218,1,1,1,5,0.452427643183957,0.456976167028059
"219",33,39,1,1,219,3,1,1,3,0.796243338738657,0.819457682584957
"220",33,24,1,1,220,3,1,1,2,0.647625598746846,0.701073759338076
"221",33,30,1,2,221,3,2,1,3,0.932314521979763,0.895791112234011
"222",33,39,1,2,222,3,2,1,3,0.826222329706148,0.745193796252435
"223",33,27,1,2,223,3,1,0,2,1.50041405317018,1.48467644265818
"224",33,26,1,1,224,3,2,0,1,0.893109666635535,1.04556531346256
"225",33,28,1,2,225,1,2,1,4,0.496711990621619,0.409997945032099
"226",33,28,1,1,226,3,2,0,1,1.39465460889423,1.37933894758559
"227",33,23,1,2,227,3,2,1,2,0.994266412297564,0.986607841696352
"228",33,20,1,2,228,1,2,1,5,0.404226953081684,0.355268816632513
"229",33,39,1,2,229,1,1,0,4,0.550149623532308,0.477127123421705
"230",33,24,1,1,230,1,1,1,4,0.398603488837811,0.393216446629911
"231",33,30,1,1,231,1,1,1,4,0.338619016807892,0.371395268685126
"232",33,39,1,1,232,3,1,1,3,0.332211090966876,0.377490925804456
"233",33,27,1,1,233,1,1,1,4,0.392201372061315,0.434977380346814
"234",33,26,1,2,234,1,1,0,4,0.500421252926998,0.562119606072938
"235",33,28,1,2,235,1,2,1,4,0.424534089934572,0.403492370575995
"236",33,28,1,1,236,2,1,1,4,0.722141995152055,0.710715041166099
"237",33,23,1,1,237,2,2,0,2,0.650905561572903,0.706509625549424
"238",33,20,1,2,238,3,1,0,1,0.862635117827833,0.904630086492463
"239",33,39,1,1,239,3,1,1,2,0.742380325030151,0.750049593193788
"240",33,24,1,1,240,1,1,1,4,0.367343316149777,0.311005225316578
"241",32,19,2,1,1,1,1,1,4,0.49211196592877,0.434685788692559
"242",32,38,2,2,2,1,1,0,4,0.487524588155821,0.448959381825679
"243",32,36,2,2,3,2,1,0,3,0.596380615498146,0.478712730247321
"244",32,29,2,1,4,2,1,1,3,0.464652646530901,0.423050654227958
"245",32,25,2,2,5,2,2,1,4,0.629388757229841,0.614514569670497
"246",32,40,2,1,6,1,1,1,4,0.324584157697032,0.416014559471266
"247",32,21,2,2,7,2,1,0,3,0.832472891230381,0.840487738903315
"248",32,39,2,1,8,3,2,0,2,1.21321700125276,1.24501391140876
"249",32,39,2,1,9,3,2,0,2,1.18291021832085,1.20562169934068
"250",32,18,2,1,10,1,1,1,4,0.408498643571215,0.416200561027249
"251",32,19,2,2,11,1,2,1,4,0.485151575114491,0.537670511586675
"252",32,38,2,2,12,3,2,1,3,1.14447127257834,1.11432247573461
"253",32,36,2,1,13,1,1,1,5,0.345985180347945,0.375719303153078
"254",32,29,2,1,14,3,1,1,2,0.622795509252622,0.623812379865749
"255",32,25,2,1,15,3,2,0,2,0.782944294158759,0.690138999661379
"256",32,40,2,1,16,2,2,0,3,0.745151564731257,0.685343524295398
"257",32,21,2,2,17,2,1,0,3,0.409097117345826,0.35847437484095
"258",32,39,2,1,18,2,2,0,3,0.648852764507545,0.64218403736048
"259",32,39,2,1,19,2,2,0,3,0.80744236157462,0.805890783971957
"260",32,18,2,2,20,2,2,1,4,0.654798546761276,0.73784154842617
"261",32,19,2,1,21,2,2,0,3,0.884342192771345,0.918675844990974
"262",32,38,2,2,22,1,2,1,5,0.421952191969796,0.474494598357128
"263",32,36,2,1,23,2,1,1,3,0.63541289975444,0.541410075803731
"264",32,29,2,1,24,2,1,1,4,0.924558682533897,0.909490164049322
"265",32,25,2,2,25,2,1,0,3,0.484013188117247,0.509556157184741
"266",32,40,2,1,26,3,2,0,2,0.72590229379553,0.672059717452541
"267",32,21,2,2,27,1,2,1,5,0.385178078348745,0.458802038646143
"268",32,39,2,2,28,3,1,0,1,0.97347459258685,1.00808859929645
"269",32,39,2,1,29,3,1,1,3,0.855385529584948,0.871098156526048
"270",32,18,2,2,30,3,1,0,2,0.800079534245245,0.725109603178995
"271",32,19,2,2,31,1,2,1,4,0.408415187635004,0.471000628029147
"272",32,38,2,2,32,1,2,1,5,0.424533427262516,0.401365754557191
"273",32,36,2,2,33,3,2,1,2,0.918892168339094,0.908802165096038
"274",32,29,2,2,34,3,1,0,1,1.5182063002981,1.5380113885003
"275",32,25,2,1,35,3,2,0,1,1.7288698478846,1.75904817092958
"276",32,40,2,2,36,1,1,0,4,0.438336122243132,0.490945224785013
"277",32,21,2,1,37,2,1,1,4,0.745315900481243,0.745154168040314
"278",32,39,2,1,38,3,2,0,2,0.872425156835112,0.832235305056676
"279",32,39,2,2,39,3,2,1,3,0.571038090178029,0.579136041393354
"280",32,18,2,1,40,1,1,1,5,0.43938914200412,0.456203024386373
"281",32,19,2,2,41,1,2,1,5,0.415664550274912,0.438301034095547
"282",32,38,2,2,42,1,2,1,4,0.299359407574732,0.216864651202347
"283",32,36,2,2,43,2,1,0,2,0.754741664364313,0.706202746982385
"284",32,29,2,1,44,3,1,1,2,0.481865125260725,0.466602181659163
"285",32,25,2,1,45,2,1,1,4,0.757547206621879,0.799901175226393
"286",32,40,2,2,46,1,1,0,3,0.630747462033534,0.574721499731156
"287",32,21,2,2,47,3,1,0,2,0.905173518313178,0.996664372499707
"288",32,39,2,1,48,1,1,1,4,0.424537272752669,0.438479090868215
"289",32,39,2,2,49,2,2,1,4,0.597233801973253,0.496731557617961
"290",32,18,2,1,50,3,1,1,3,0.823745147445505,0.888398619616233
"291",32,19,2,1,51,2,1,1,4,0.602257876151254,0.605584986074163
"292",32,38,2,1,52,1,1,1,5,0.38657116796708,0.33622023139716
"293",32,36,2,1,53,1,1,1,4,0.297674414381796,0.235259472963798
"294",32,29,2,2,54,2,1,0,3,0.734626702383375,0.730871967865083
"295",32,25,2,1,55,2,1,1,3,0.698865797422859,0.767113907918236
"296",32,40,2,1,56,3,1,1,3,0.664943791531782,0.694406799095998
"297",32,21,2,2,57,3,1,0,1,1.38534268333615,1.33632851753053
"298",32,39,2,1,58,2,2,0,3,0.864094805639991,0.970714727382271
"299",32,39,2,2,59,1,2,1,4,0.484711327407388,0.452463337708762
"300",32,18,2,2,60,2,2,1,4,0.418051429101828,0.450575108706478
"301",32,19,2,1,61,1,1,1,4,0.405643319748384,0.419579141448019
"302",32,38,2,1,62,1,1,1,4,0.422675057137365,0.491841725347857
"303",32,36,2,1,63,1,1,1,4,0.446567003482187,0.35305638411374
"304",32,29,2,2,64,1,1,0,3,0.489005292178669,0.519766637197555
"305",32,25,2,1,65,2,1,1,4,0.756500889489768,0.801732601554723
"306",32,40,2,2,66,1,2,1,4,0.486894949040257,0.530346993291701
"307",32,21,2,1,67,3,2,0,1,0.422128317270966,0.40887959283574
"308",32,39,2,1,68,3,2,0,1,1.17638048730759,1.20337469065152
"309",32,39,2,1,69,2,1,1,3,0.591643971300094,0.589364335205075
"310",32,18,2,2,70,1,2,1,4,0.364328729795011,0.336071067857006
"311",32,19,2,2,71,1,2,1,5,0.394072439028947,0.409729124809299
"312",32,38,2,2,72,1,2,1,5,0.374282085579852,0.453175135127442
"313",32,36,2,1,73,2,1,1,3,0.432054976902697,0.457851263629868
"314",32,29,2,2,74,3,2,1,3,0.960850308060891,1.04587649524529
"315",32,25,2,1,75,3,2,0,2,0.684601826228545,0.653403962542388
"316",32,40,2,2,76,3,2,1,2,0.827001901428084,0.816567341148124
"317",32,21,2,1,77,3,2,0,1,1.33811152707547,1.30265554653008
"318",32,39,2,1,78,1,1,1,5,0.308828313534298,0.334425006362002
"319",32,39,2,1,79,3,2,0,2,0.934830652759042,0.947268463391496
"320",32,18,2,2,80,1,1,0,4,0.582030522826694,0.56540246933305
"321",32,19,2,1,81,1,1,1,4,0.372103986114586,0.277735872547882
"322",32,38,2,2,82,1,2,1,5,0.354613646398865,0.369322570275354
"323",32,36,2,2,83,3,1,0,2,1.14183684117544,1.1259408265906
"324",32,29,2,1,84,2,2,0,3,0.618097500707221,0.586141387935056
"325",32,25,2,1,85,1,1,1,4,0.424321413860114,0.501315488717411
"326",32,40,2,1,86,2,1,1,3,0.587965147129918,0.591960083361935
"327",32,21,2,2,87,1,1,0,3,0.444618970293951,0.556898012687989
"328",32,39,2,2,88,2,2,1,3,0.449086374325616,0.39296478393527
"329",32,39,2,1,89,3,1,1,3,0.890930301111909,1.01384024126157
"330",32,18,2,1,90,1,1,1,4,0.310618287157155,0.282437705336053
"331",32,19,2,2,91,1,2,1,5,0.486996731899838,0.433249704519404
"332",32,38,2,2,92,1,1,0,3,0.537018106653947,0.524932451333591
"333",32,36,2,1,93,1,2,0,3,0.46976709933371,0.489454806372234
"334",32,29,2,2,94,3,1,0,1,0.6837261679313,0.708431763584117
"335",32,25,2,2,95,3,2,1,3,0.680317765623458,0.667238406032351
"336",32,40,2,2,96,3,1,0,1,0.951412229986025,1.00731672455296
"337",32,21,2,1,97,2,1,1,3,0.688472536472239,0.572830097784445
"338",32,39,2,1,98,3,1,1,3,0.944659573933995,0.938223663818142
"339",32,39,2,1,99,2,2,0,3,0.389377648601543,0.422409163334418
"340",32,18,2,2,100,1,2,1,5,0.311383658088479,0.395915052292342
"341",32,19,2,2,101,1,2,1,4,0.441379890433592,0.515583753008514
"342",32,38,2,1,102,2,2,0,3,0.353757389308774,0.320076405255166
"343",32,36,2,2,103,3,2,1,2,0.567740007117538,0.522254906978227
"344",32,29,2,1,104,1,1,1,4,0.535129605929957,0.564656020524263
"345",32,25,2,2,105,1,2,1,4,0.376875912937389,0.421216952398953
"346",32,40,2,1,106,3,2,0,1,0.944756829831547,0.947925117301866
"347",32,21,2,1,107,2,1,1,3,0.697305350375099,0.714522395470819
"348",32,39,2,2,108,3,2,1,2,0.384439702446966,0.351745336675223
"349",32,39,2,2,109,1,2,1,4,0.505040440131888,0.508949879329519
"350",32,18,2,1,110,3,2,0,1,0.745055426245805,0.76822573295414
"351",32,19,2,2,111,3,2,1,2,0.683219109381724,0.715416213945654
"352",32,38,2,2,112,3,2,1,2,0.73325923132454,0.704759187868795
"353",32,36,2,2,113,2,2,1,3,0.846706472472195,0.77324738746301
"354",32,29,2,2,114,3,2,1,3,0.458659105192032,0.470482560687034
"355",32,25,2,2,115,1,2,1,4,0.401174535126927,0.430223224055679
"356",32,40,2,2,116,1,2,1,4,0.27556649410674,0.236751444287908
"357",32,21,2,2,117,1,2,1,5,0.302668705364163,0.345899659418074
"358",32,39,2,1,118,1,1,1,5,0.451701937570799,0.519181139109962
"359",32,39,2,1,119,1,2,0,4,0.356063989596673,0.381348958488612
"360",32,18,2,1,120,3,1,1,3,0.737470261224279,0.800041691291047
"361",32,19,2,2,121,3,2,1,2,0.947005121033172,1.05912577946744
"362",32,38,2,2,122,2,1,0,3,0.88225270408095,0.935496334668194
"363",32,36,2,2,123,2,2,1,4,0.552161855329465,0.532902756554209
"364",32,29,2,1,124,3,2,0,2,0.39375639197688,0.387226333135362
"365",32,25,2,2,125,2,1,0,3,0.612428352538559,0.600163165501334
"366",32,40,2,2,126,3,1,0,1,0.860129367341656,0.835073892784332
"367",32,21,2,1,127,3,2,0,2,0.966080579257314,1.01249250358293
"368",32,39,2,2,128,1,2,1,5,0.478390743375926,0.401513512957611
"369",32,39,2,2,129,1,2,1,5,0.267452741227165,0.281537521186184
"370",32,18,2,2,130,3,1,0,1,0.6584086678609,0.674475728772582
"371",32,19,2,2,131,3,1,0,1,1.20453197548113,1.27419965345801
"372",32,38,2,1,132,2,1,1,3,0.480054333397712,0.536579823166472
"373",32,36,2,1,133,2,1,1,3,0.438255609481593,0.411698742904486
"374",32,29,2,2,134,3,1,0,2,0.704100912946798,0.726807469050598
"375",32,25,2,2,135,2,1,0,2,0.782844530523493,0.899665893999257
"376",32,40,2,1,136,3,2,0,2,0.745393887251566,0.713427183668367
"377",32,21,2,1,137,3,2,0,2,1.04260323674261,0.9958018878088
"378",32,39,2,1,138,3,2,0,2,1.04443772406146,1.00541892890156
"379",32,39,2,1,139,3,1,1,3,1.17789066247717,1.17598102142775
"380",32,18,2,2,140,1,1,0,3,0.670429524412091,0.638446102393192
"381",32,19,2,2,141,2,2,1,4,0.608090262487008,0.523939011378284
"382",32,38,2,1,142,3,1,1,3,0.607493169586742,0.583416266938156
"383",32,36,2,1,143,2,2,0,3,0.643078468270168,0.630585892582634
"384",32,29,2,2,144,3,1,0,1,0.517061763300213,0.600260346553937
"385",32,25,2,1,145,1,1,1,4,0.497742703619732,0.529929695446202
"386",32,40,2,1,146,2,1,1,3,0.45311595894093,0.462978617566874
"387",32,21,2,2,147,2,1,0,2,0.808992227182812,0.767566972797055
"388",32,39,2,2,148,1,2,1,5,0.251085218424453,0.236815312797112
"389",32,39,2,2,149,1,2,1,5,0.489293166364615,0.494063621937133
"390",32,18,2,2,150,3,2,1,3,1.15930383367913,1.11620046437919
"391",32,19,2,2,151,1,1,0,4,0.519751250757829,0.617659877032621
"392",32,38,2,2,152,1,2,1,4,0.361378253024878,0.455236074477482
"393",32,36,2,1,153,3,1,1,3,0.581572613003847,0.541128170414043
"394",32,29,2,2,154,2,2,1,4,0.581378748167762,0.57940025579322
"395",32,25,2,2,155,1,2,1,4,0.529858772448123,0.527111353974967
"396",32,40,2,1,156,2,2,0,2,0.662501208802748,0.563089074652966
"397",32,21,2,1,157,3,1,1,2,0.731675722735237,0.748208887449141
"398",32,39,2,2,158,2,2,1,3,0.525482786055891,0.557660634996162
"399",32,39,2,2,159,3,1,0,2,0.569422803518964,0.587268144397818
"400",32,18,2,1,160,2,1,1,3,0.54292994285595,0.594766492045139
"401",32,19,2,2,161,2,2,1,3,0.468289112041272,0.446214852394529
"402",32,38,2,1,162,1,1,1,5,0.296535552864023,0.256067102425286
"403",32,36,2,1,163,3,1,1,2,0.723969521179991,0.751975498941122
"404",32,29,2,2,164,3,1,0,1,0.605262864553975,0.705094599091882
"405",32,25,2,1,165,2,2,0,2,0.594784819532406,0.559770789973054
"406",32,40,2,2,166,3,1,0,1,0.758989615209777,0.778323699781982
"407",32,21,2,2,167,3,2,1,3,0.865503897050887,0.849436891494338
"408",32,39,2,2,168,2,2,1,3,0.649693135007859,0.689725008468501
"409",32,39,2,1,169,2,1,1,4,0.567509810522399,0.51334139873573
"410",32,18,2,1,170,2,2,0,2,0.463465452193948,0.43666427779118
"411",32,19,2,2,171,3,1,0,1,0.948673517108101,0.981452370557076
"412",32,38,2,2,172,2,2,1,3,0.566710274111264,0.529775654903075
"413",32,36,2,2,173,2,1,0,2,0.765313229643262,0.744179145705524
"414",32,29,2,2,174,2,2,1,3,0.624834427657077,0.52405510304288
"415",32,25,2,1,175,2,1,1,3,0.651019801203999,0.685669974255043
"416",32,40,2,2,176,2,2,1,4,0.495959035205763,0.401930707797538
"417",32,21,2,1,177,2,1,1,4,0.810569829483273,0.862276192425362
"418",32,39,2,1,178,2,1,1,4,0.557541197494129,0.56017090072551
"419",32,39,2,1,179,1,1,1,5,0.316797576316077,0.252832924635119
"420",32,18,2,1,180,1,2,0,3,0.661683383072873,0.595959690874925
"421",32,19,2,1,181,1,1,1,4,0.374650443115365,0.40115109024498
"422",32,38,2,2,182,2,2,1,3,0.321233612282381,0.237191435837571
"423",32,36,2,1,183,1,1,1,5,0.360554240272292,0.30906938098562
"424",32,29,2,1,184,2,2,0,3,0.577827639671628,0.636921240309453
"425",32,25,2,2,185,2,2,1,4,0.613596103046609,0.567886128806531
"426",32,40,2,1,186,2,1,1,3,0.674850991154779,0.590492882175666
"427",32,21,2,1,187,2,2,0,2,0.679820540643751,0.633247300686234
"428",32,39,2,2,188,1,2,1,4,0.277069940554752,0.252417752697441
"429",32,39,2,2,189,3,2,1,2,1.21487317271695,1.1468346695188
"430",32,18,2,1,190,3,2,0,2,1.32995554627724,1.35543597368707
"431",32,19,2,1,191,1,1,1,4,0.502269887880498,0.5861640857891
"432",32,38,2,1,192,2,2,0,2,0.704556678852019,0.633471570539364
"433",32,36,2,2,193,2,1,0,3,0.73636192626532,0.717982924819494
"434",32,29,2,2,194,3,1,0,1,1.50746080888183,1.45520691772197
"435",32,25,2,2,195,3,1,0,1,1.11132503741353,1.18064331379767
"436",32,40,2,1,196,1,2,0,4,0.653543240285328,0.654016374289114
"437",32,21,2,2,197,3,2,1,2,0.636783907105745,0.737352117083473
"438",32,39,2,1,198,3,1,1,2,0.768577422834523,0.80220081141089
"439",32,39,2,1,199,2,1,1,4,0.748542971823243,0.714694985619454
"440",32,18,2,1,200,3,2,0,1,1.09819307822088,1.23431850109476
"441",32,19,2,2,201,3,2,1,3,0.686905588214975,0.722410338233195
"442",32,38,2,2,202,2,1,0,2,1.0433815143056,1.02494047960673
"443",32,36,2,1,203,2,1,1,3,0.617464251108369,0.56180457038102
"444",32,29,2,2,204,1,2,1,5,0.480372641849361,0.439429276058574
"445",32,25,2,2,205,1,1,0,3,0.594264113321173,0.543363480348123
"446",32,40,2,2,206,2,2,1,4,0.84994379945099,0.845638989845444
"447",32,21,2,1,207,1,1,1,5,0.371820764244976,0.370336830197976
"448",32,39,2,1,208,3,1,1,2,0.464023799422146,0.42246898878944
"449",32,39,2,1,209,1,2,0,3,0.434450849373222,0.450515362098293
"450",32,18,2,1,210,1,1,1,4,0.403214346805659,0.368490158458248
"451",32,19,2,1,211,2,1,1,3,0.599785892280914,0.579315192436352
"452",32,38,2,1,212,3,1,1,3,0.901211850692264,0.82784367932815
"453",32,36,2,1,213,1,1,1,4,0.389571116384652,0.279487180027845
"454",32,29,2,2,214,1,2,1,4,0.324920491893031,0.274611757321701
"455",32,25,2,2,215,1,2,1,5,0.499090119937028,0.534285080608008
"456",32,40,2,2,216,1,2,1,5,0.391463730299246,0.44121653086793
"457",32,21,2,1,217,1,1,1,5,0.461404201957288,0.483776299253114
"458",32,39,2,2,218,1,2,1,4,0.444668499854088,0.421872563205856
"459",32,39,2,2,219,3,2,1,2,0.616788669559751,0.673376294984131
"460",32,18,2,1,220,3,1,1,3,0.693640871147493,0.706742777024842
"461",32,19,2,1,221,1,1,1,4,0.423803383248938,0.32657156207852
"462",32,38,2,1,222,2,1,1,4,0.449419911050589,0.421185086031243
"463",32,36,2,1,223,3,1,1,3,0.877266653917892,0.919349311323539
"464",32,29,2,2,224,2,2,1,3,0.614576120549142,0.646695889063513
"465",32,25,2,1,225,3,2,0,1,0.719805749832728,0.703720423020028
"466",32,40,2,2,226,1,2,1,4,0.510636855792245,0.448588371847064
"467",32,21,2,1,227,2,2,0,2,0.771006192696112,0.645789465985087
"468",32,39,2,2,228,2,2,1,3,0.580109196635244,0.635024852021368
"469",32,39,2,1,229,2,2,0,3,0.494505281068106,0.424111333825152
"470",32,18,2,2,230,1,2,1,5,0.386424487539089,0.285992252921947
"471",32,19,2,2,231,3,2,1,2,1.14867801392988,1.0947083068409
"472",32,38,2,1,232,1,1,1,4,0.490641543991789,0.461030052109772
"473",32,36,2,2,233,3,2,1,3,0.528149927026379,0.397535782402567
"474",32,29,2,1,234,3,2,0,1,0.2120165377731,0.183074659220869
"475",32,25,2,1,235,2,1,1,3,0.616294454286088,0.5728168075124
"476",32,40,2,2,236,3,2,1,3,0.566990341591849,0.495532696265344
"477",32,21,2,1,237,2,1,1,3,0.577461531889853,0.630861556028112
"478",32,39,2,2,238,2,2,1,4,0.733232505281268,0.694151392244488
"479",32,39,2,2,239,1,2,1,4,0.433665079692029,0.405059824297508
"480",32,18,2,1,240,2,2,0,2,0.788838884675686,0.781835596515826
"481",31,39,1,2,1,3,2,1,3,0.734032078295408,0.78859732504759
"482",31,26,1,2,2,2,2,1,3,0.64518094585079,0.683939697791429
"483",31,23,1,1,3,3,2,0,2,0.414336397395788,0.455272228264392
"484",31,36,1,2,4,2,1,0,3,0.776136708001013,0.802809491713808
"485",31,21,1,2,5,1,2,1,4,0.325761671070819,0.286145812773504
"486",31,32,1,1,6,3,1,1,2,0.718463051493144,0.742301337925235
"487",31,23,1,2,7,2,1,0,3,0.607800185125614,0.551861818181212
"488",31,33,1,2,8,3,1,0,2,0.95272446081145,1.00000528470994
"489",31,40,1,1,9,3,2,0,1,0.597461668879963,0.596102577071105
"490",31,39,1,1,10,2,2,0,2,0.747918366265061,0.764835694524399
"491",31,39,1,1,11,2,1,1,3,0.632654778962496,0.645525829115783
"492",31,26,1,1,12,1,2,0,3,0.667123306150326,0.603923453740858
"493",31,23,1,1,13,1,1,1,5,0.477844393202148,0.554976306686074
"494",31,36,1,1,14,3,1,1,3,0.499012569898777,0.541562684165141
"495",31,21,1,1,15,2,1,1,4,0.521336487821888,0.492585337986524
"496",31,32,1,2,16,2,1,0,3,0.826706246777782,0.835920684418853
"497",31,23,1,2,17,1,2,1,4,0.282838168706281,0.253553433498488
"498",31,33,1,1,18,2,1,1,4,0.499745463382283,0.38572279659366
"499",31,40,1,2,19,2,1,0,2,0.412909230035054,0.373458214756741
"500",31,39,1,1,20,2,2,0,2,0.692184449382722,0.629974326434326
"501",31,39,1,2,21,2,2,1,3,0.715272940315468,0.745744496197196
"502",31,26,1,2,22,3,2,1,3,0.829745668198691,0.84785769583877
"503",31,23,1,1,23,2,1,1,4,0.562422652487518,0.551013806131423
"504",31,36,1,2,24,1,2,1,5,0.287474813672928,0.301612037784526
"505",31,21,1,2,25,2,2,1,3,0.574481103404767,0.607609429682204
"506",31,32,1,1,26,2,1,1,3,0.678531076524962,0.681171405859677
"507",31,23,1,2,27,3,2,1,3,0.983972921340366,0.912385990923526
"508",31,33,1,2,28,2,2,1,4,0.603081503254746,0.698421899193047
"509",31,40,1,2,29,2,2,1,4,0.723833415206417,0.707503542223957
"510",31,39,1,2,30,1,1,0,3,0.422171297180964,0.455978221614154
"511",31,39,1,2,31,2,1,0,3,0.895569676219101,0.792139177953022
"512",31,26,1,2,32,1,1,0,3,0.416488466746172,0.484069568600514
"513",31,23,1,2,33,1,2,1,4,0.428908562963644,0.315369218969458
"514",31,36,1,2,34,3,2,1,2,0.714044692273725,0.767314898634189
"515",31,21,1,2,35,1,2,1,5,0.254877798270855,0.195419128742556
"516",31,32,1,2,36,1,2,1,5,0.360105112235961,0.358014243930946
"517",31,23,1,1,37,1,1,1,4,0.347560992676892,0.426449230847055
"518",31,33,1,2,38,2,1,0,3,0.651538388798656,0.668392125313254
"519",31,40,1,1,39,3,1,1,3,0.959514765432949,0.943881970967719
"520",31,39,1,2,40,3,1,0,1,1.19359045070066,1.16470129113249
"521",31,39,1,2,41,3,2,1,3,0.923838250257583,0.913826954492158
"522",31,26,1,1,42,3,2,0,2,1.05506202500154,1.04064065740472
"523",31,23,1,1,43,3,1,1,2,0.651689766109253,0.616254258006735
"524",31,36,1,1,44,3,2,0,1,0.770865063470316,0.660461494337635
"525",31,21,1,2,45,2,2,1,3,0.736866928975754,0.744155676840942
"526",31,32,1,2,46,2,1,0,2,0.835923580016314,0.834944217506877
"527",31,23,1,1,47,2,2,0,2,0.858450792437932,0.913248783708919
"528",31,33,1,2,48,2,2,1,3,0.802995052992301,0.862662654589459
"529",31,40,1,2,49,3,1,0,1,1.45722166712193,1.35105638248261
"530",31,39,1,1,50,2,2,0,2,0.333928467734978,0.325673637421456
"531",31,39,1,2,51,2,1,0,3,0.710642353987301,0.742534490769931
"532",31,26,1,1,52,2,2,0,3,0.629822850124485,0.592922664154665
"533",31,23,1,1,53,3,1,1,3,0.675212110163516,0.69085399183319
"534",31,36,1,2,54,3,2,1,2,1.00659917166499,1.06414509663386
"535",31,21,1,1,55,1,1,1,4,0.486091301541862,0.494102708698742
"536",31,32,1,2,56,1,2,1,4,0.404056459080727,0.505524722775134
"537",31,23,1,1,57,2,2,0,3,0.906316598908667,0.839909999127363
"538",31,33,1,1,58,1,1,1,4,0.417999308942044,0.424704091183423
"539",31,40,1,2,59,2,1,0,3,0.6333562354179,0.656805544273498
"540",31,39,1,2,60,2,1,0,3,0.689968380271365,0.653637616345907
"541",31,39,1,1,61,1,1,1,4,0.50489758485904,0.586073315128622
"542",31,26,1,1,62,3,2,0,1,1.93507120044802,1.99333475932593
"543",31,23,1,2,63,3,2,1,3,1.1308624667291,1.21464464582409
"544",31,36,1,1,64,3,2,0,1,0.31854065295852,0.375862002972804
"545",31,21,1,2,65,3,2,1,2,1.25403519460788,1.25227921341269
"546",31,32,1,2,66,1,2,1,5,0.216708769920172,0.174798766694713
"547",31,23,1,2,67,1,2,1,4,0.413296024625814,0.392156736945639
"548",31,33,1,2,68,3,1,0,1,0.909575539068679,0.914095238233458
"549",31,40,1,2,69,1,2,1,5,0.436275725361167,0.424301875821824
"550",31,39,1,1,70,3,1,1,2,0.951517575233841,1.06371708726836
"551",31,39,1,1,71,3,1,1,3,1.14404992857948,1.17517795413759
"552",31,26,1,1,72,3,2,0,1,1.31870129366503,1.24733697667293
"553",31,23,1,2,73,1,2,1,5,0.224050356715911,0.217309274994487
"554",31,36,1,2,74,1,2,1,4,0.418140681188888,0.479021409544918
"555",31,21,1,2,75,2,2,1,4,0.558305754257795,0.614279214474822
"556",31,32,1,2,76,1,1,0,3,0.459590223245826,0.472330153086472
"557",31,23,1,1,77,3,2,0,1,1.32024664175444,1.33376426216017
"558",31,33,1,1,78,2,2,0,3,0.782666155653875,0.752350964676468
"559",31,40,1,1,79,1,1,1,5,0.302418917647681,0.344080202290001
"560",31,39,1,1,80,3,1,1,3,0.690083937140958,0.701831682066106
"561",31,39,1,2,81,3,1,0,2,0.629438562259986,0.658906841173834
"562",31,26,1,2,82,3,2,1,3,1.08682211741476,1.11536086610756
"563",31,23,1,2,83,2,1,0,2,0.867446231192671,0.833212337413258
"564",31,36,1,1,84,3,1,1,2,0.87449985243888,0.861264614942168
"565",31,21,1,1,85,2,2,0,2,0.674621537346175,0.787113685136636
"566",31,32,1,1,86,3,1,1,2,0.462035800421989,0.420815884127032
"567",31,23,1,2,87,2,1,0,2,0.589886359645608,0.505706651270283
"568",31,33,1,1,88,1,1,1,4,0.378741383518719,0.390770605305252
"569",31,40,1,1,89,1,1,1,4,0.381220684259627,0.401142078568087
"570",31,39,1,1,90,3,2,0,2,0.709038893494445,0.684586775931388
"571",31,39,1,2,91,2,1,0,2,0.652237986895949,0.652969831548823
"572",31,26,1,2,92,1,2,1,5,0.558380044242869,0.496516637860833
"573",31,23,1,1,93,2,2,0,2,0.8656041213634,0.857393336172836
"574",31,36,1,2,94,1,2,1,4,0.41868173541113,0.46202938115509
"575",31,21,1,1,95,2,1,1,4,0.430274049555388,0.416113706203369
"576",31,32,1,1,96,2,2,0,3,0.748102528503339,0.675791400296732
"577",31,23,1,1,97,3,2,0,2,1.08620152301392,1.11169076398366
"578",31,33,1,2,98,2,1,0,3,0.859389146085797,0.865442519417146
"579",31,40,1,1,99,2,2,0,2,0.901327566169302,0.959050399648931
"580",31,39,1,2,100,1,1,0,4,0.616595455531917,0.580313278924118
"581",31,39,1,1,101,1,1,1,5,0.327915906268688,0.378040213361449
"582",31,26,1,2,102,2,1,0,2,0.664228428875963,0.666615023098953
"583",31,23,1,2,103,1,2,1,5,0.41081679026118,0.457537392603913
"584",31,36,1,2,104,1,2,1,4,0.368278342263116,0.40969099135131
"585",31,21,1,2,105,1,2,1,5,0.519574825579279,0.507390514476487
"586",31,32,1,1,106,3,1,1,3,0.937614768875032,1.01831174789127
"587",31,23,1,2,107,2,1,0,3,0.720745225089143,0.742458887437524
"588",31,33,1,1,108,3,1,1,2,0.619219343289485,0.524717155252545
"589",31,40,1,2,109,1,2,1,4,0.439201643927862,0.576220348842104
"590",31,39,1,1,110,3,2,0,2,0.402988595946646,0.389420212276414
"591",31,39,1,1,111,1,1,1,5,0.494569553375992,0.533627754205556
"592",31,26,1,1,112,1,2,0,4,0.429557336165697,0.29704672356844
"593",31,23,1,2,113,1,2,1,5,0.388330157800848,0.270734121764291
"594",31,36,1,1,114,2,2,0,2,0.794933647740859,0.773066989340158
"595",31,21,1,1,115,3,1,1,2,0.900775986185655,0.912143362145909
"596",31,32,1,1,116,1,2,0,4,0.562299837158296,0.546719357299457
"597",31,23,1,1,117,2,2,0,2,0.777206167778483,0.753687312531015
"598",31,33,1,1,118,1,1,1,4,0.153505244361831,0.25403036041857
"599",31,40,1,1,119,1,1,1,5,0.604999801941298,0.609934491904394
"600",31,39,1,1,120,1,1,1,4,0.447699802437164,0.417913367968694
"601",31,39,1,2,121,3,1,0,1,0.821336749415729,0.817316615658334
"602",31,26,1,2,122,3,1,0,1,1.11965037098826,1.14193893375679
"603",31,23,1,2,123,1,2,1,4,0.335812950746587,0.275194928891112
"604",31,36,1,1,124,1,1,1,5,0.356341175819181,0.276654831879889
"605",31,21,1,1,125,3,2,0,1,1.32381094561765,1.40349048579295
"606",31,32,1,2,126,2,1,0,2,0.561482835403112,0.532902199396563
"607",31,23,1,1,127,1,1,1,5,0.451781188438161,0.431951695323178
"608",31,33,1,2,128,3,2,1,2,0.817772367959838,0.870788704301624
"609",31,40,1,1,129,1,1,1,5,0.227981095487413,0.228400534399354
"610",31,39,1,1,130,3,2,0,2,1.32112646312815,1.37389883138207
"611",31,39,1,1,131,3,1,1,3,0.761306328462385,0.765964695841488
"612",31,26,1,2,132,3,1,0,2,1.0632809761058,1.09214570654614
"613",31,23,1,2,133,1,2,1,5,0.23869431689917,0.265869212696509
"614",31,36,1,2,134,2,1,0,3,0.874773116704434,0.916285251313067
"615",31,21,1,2,135,2,2,1,4,0.550899426399354,0.603271365926952
"616",31,32,1,1,136,1,1,1,4,0.404235838517357,0.394669051812455
"617",31,23,1,1,137,1,1,1,4,0.239031726099919,0.259857457573975
"618",31,33,1,2,138,1,1,0,4,0.499909140156346,0.436692186389093
"619",31,40,1,1,139,3,2,0,2,0.917537044009661,0.93624305380183
"620",31,39,1,1,140,2,1,1,4,0.598086301786254,0.582099221384336
"621",31,39,1,1,141,2,2,0,3,0.642299899429402,0.661360475705509
"622",31,26,1,1,142,2,2,0,3,0.8180418841086,0.854996247483519
"623",31,23,1,2,143,2,2,1,3,0.539436411025041,0.584039042067254
"624",31,36,1,2,144,2,1,0,2,0.8769175324086,0.786348846852043
"625",31,21,1,2,145,2,1,0,3,0.843081861094626,0.750863743231429
"626",31,32,1,2,146,1,2,1,4,0.35805701820845,0.369973989746283
"627",31,23,1,1,147,3,1,1,2,0.724153349693243,0.802672842393035
"628",31,33,1,2,148,3,2,1,2,0.965803082535713,0.967475933173147
"629",31,40,1,2,149,3,1,0,1,0.963343026397482,0.923190716022473
"630",31,39,1,1,150,3,2,0,1,0.893692659302299,0.948216616356068
"631",31,39,1,2,151,2,1,0,2,0.610546442269559,0.616209506751444
"632",31,26,1,2,152,2,1,0,2,0.490684363931611,0.481002882141509
"633",31,23,1,2,153,2,2,1,3,0.653432694582093,0.684604100204126
"634",31,36,1,1,154,2,1,1,4,0.559057475558448,0.485662721060448
"635",31,21,1,1,155,3,1,1,2,0.774281452307584,0.73803211499207
"636",31,32,1,2,156,1,2,1,5,0.433748383199507,0.407678368771361
"637",31,23,1,2,157,1,2,1,5,0.444918554434946,0.463207853438725
"638",31,33,1,1,158,2,2,0,2,0.701252977280841,0.711076851506183
"639",31,40,1,2,159,3,2,1,2,0.573921217177237,0.628600971641108
"640",31,39,1,1,160,2,1,1,4,0.666030077911418,0.636229946327911
"641",31,39,1,1,161,3,1,1,3,0.977738606974924,0.982275506864893
"642",31,26,1,1,162,1,1,1,4,0.428157984628052,0.450441784827498
"643",31,23,1,1,163,1,1,1,5,0.423456259578962,0.534997094473603
"644",31,36,1,1,164,1,1,1,5,0.416667540885447,0.39419744588754
"645",31,21,1,2,165,2,2,1,4,0.614579556171519,0.681288470347953
"646",31,32,1,1,166,1,1,1,4,0.337291350952985,0.356249211744786
"647",31,23,1,1,167,1,1,1,5,0.376990609894456,0.42445590740656
"648",31,33,1,1,168,3,1,1,2,0.543954535501463,0.550605703598984
"649",31,40,1,1,169,3,1,1,3,0.995444641336949,1.0224390225652
"650",31,39,1,2,170,3,1,0,2,1.16998107690175,1.12453641755638
"651",31,39,1,2,171,1,1,0,4,0.648969532402478,0.523402822748776
"652",31,26,1,1,172,3,1,1,3,0.462539132988461,0.386921573804915
"653",31,23,1,1,173,1,1,1,4,0.331302861488874,0.340412674936204
"654",31,36,1,2,174,2,2,1,4,0.562405138565129,0.548485070320453
"655",31,21,1,2,175,1,2,1,4,0.333264201346561,0.380030034364562
"656",31,32,1,1,176,3,2,0,2,0.718132250237826,0.733657852976457
"657",31,23,1,2,177,2,1,0,3,0.804257695591346,0.769666335712724
"658",31,33,1,1,178,2,2,0,3,0.655086625500217,0.684364131452522
"659",31,40,1,1,179,1,2,0,3,0.370126213670316,0.412019455903802
"660",31,39,1,2,180,2,1,0,2,0.820221735324043,0.81252330722192
"661",31,39,1,1,181,1,1,1,4,0.262735407294395,0.308883930729435
"662",31,26,1,2,182,1,2,1,4,0.284642065077952,0.188046399527471
"663",31,23,1,2,183,3,1,0,1,1.23974630056173,1.2492176993633
"664",31,36,1,1,184,2,1,1,3,0.486939629062881,0.561578777749348
"665",31,21,1,1,185,1,1,1,5,0.455591002540754,0.492723435682763
"666",31,32,1,2,186,1,2,1,4,0.348985192841774,0.329791407180961
"667",31,23,1,2,187,3,1,0,1,0.686199598644415,0.731441449713343
"668",31,33,1,1,188,2,1,1,4,0.48032566889748,0.525110880305156
"669",31,40,1,1,189,3,2,0,2,0.626578145091143,0.639890885277117
"670",31,39,1,1,190,1,2,0,3,0.446281600858442,0.417044304149257
"671",31,39,1,1,191,3,2,0,2,0.955459036530006,1.01333382925917
"672",31,26,1,2,192,1,2,1,4,0.394647145656911,0.417781339377396
"673",31,23,1,2,193,3,1,0,2,0.776444562804023,0.751795787215389
"674",31,36,1,1,194,3,2,0,2,1.26002952545691,1.22571980445585
"675",31,21,1,2,195,1,2,1,5,0.479071123866664,0.437815733533677
"676",31,32,1,1,196,1,2,0,4,0.45221149301371,0.439133201918358
"677",31,23,1,1,197,1,1,1,5,0.333963739591146,0.369371452448125
"678",31,33,1,2,198,1,2,1,4,0.47606907920322,0.464296362308123
"679",31,40,1,2,199,1,2,1,5,0.291112912404434,0.314981319729849
"680",31,39,1,1,200,1,2,0,4,0.498273031280803,0.563660391841247
"681",31,39,1,2,201,3,1,0,1,0.516155640569589,0.514529624683656
"682",31,26,1,1,202,1,1,1,4,0.472447916381614,0.493144684538711
"683",31,23,1,1,203,2,2,0,3,0.744747705242744,0.755613361131147
"684",31,36,1,2,204,2,2,1,4,0.705182340625006,0.747106154801967
"685",31,21,1,2,205,2,2,1,4,0.746241592585556,0.71544609993289
"686",31,32,1,1,206,2,2,0,3,0.951592907028505,0.942081138148577
"687",31,23,1,1,207,3,2,0,1,1.08246456729327,1.06472119495492
"688",31,33,1,2,208,3,2,1,2,0.111280259848902,0.149804018461648
"689",31,40,1,1,209,2,1,1,4,0.575626863255834,0.540078267201136
"690",31,39,1,2,210,3,2,1,3,0.698826787593481,0.72055619069181
"691",31,39,1,1,211,3,2,0,2,0.576826797207359,0.623250099687565
"692",31,26,1,2,212,1,1,0,4,0.495986586907067,0.552633157781378
"693",31,23,1,2,213,3,2,1,3,1.00726858639389,0.95974208094211
"694",31,36,1,2,214,3,1,0,1,1.24247367912291,1.29145210244299
"695",31,21,1,2,215,2,1,0,3,0.711019884261413,0.646802736910976
"696",31,32,1,2,216,2,2,1,3,0.542900391136242,0.55197703003798
"697",31,23,1,1,217,1,1,1,4,0.211306620872656,0.292738532152649
"698",31,33,1,1,218,3,1,1,2,1.13395721787659,1.12368651097536
"699",31,40,1,2,219,3,1,0,2,0.718435210256801,0.686464018446402
"700",31,39,1,1,220,3,1,1,3,0.728284909389658,0.737245952036429
"701",31,39,1,1,221,2,2,0,3,0.401696623517265,0.435109184238597
"702",31,26,1,2,222,2,1,0,3,0.684482261207969,0.577829231187302
"703",31,23,1,1,223,3,2,0,1,1.0779709016561,1.0843167439805
"704",31,36,1,1,224,1,1,1,4,0.306571528507474,0.364075302312358
"705",31,21,1,2,225,1,2,1,4,0.442969702751011,0.424146611855051
"706",31,32,1,2,226,3,1,0,2,0.741968701079607,0.717420419121508
"707",31,23,1,1,227,1,1,1,5,0.532887062370023,0.44071144764374
"708",31,33,1,2,228,2,1,0,2,0.898332630734967,0.906234398073821
"709",31,40,1,2,229,1,2,1,5,0.562274177177982,0.564274603068788
"710",31,39,1,2,230,3,1,0,1,1.03188365741958,1.03154923403827
"711",31,39,1,1,231,3,1,1,3,0.957567142817633,0.959731038008573
"712",31,26,1,1,232,2,1,1,3,0.678173693607231,0.738659439198852
"713",31,23,1,2,233,2,2,1,3,0.732467075239394,0.723618130753811
"714",31,36,1,2,234,2,2,1,4,0.645904180933872,0.571364950581892
"715",31,21,1,2,235,2,1,0,3,0.821195167769943,0.823567896955196
"716",31,32,1,1,236,2,1,1,3,0.607001537646458,0.577199850053765
"717",31,23,1,1,237,3,2,0,2,0.767508205338557,0.687229319533066
"718",31,33,1,2,238,1,1,0,3,0.348424254767741,0.285153659037033
"719",31,40,1,1,239,3,1,1,2,0.70404829863511,0.719235521611013
"720",31,39,1,1,240,1,1,1,4,0.298061376091442,0.307365595259592
"721",30,33,2,1,1,2,2,0,2,0.727858766188425,0.761275605921261
"722",30,34,2,1,2,3,2,0,2,1.48397929116957,1.50585086637306
"723",30,27,2,2,3,1,2,1,5,0.523575857031506,0.477948649077708
"724",30,20,2,2,4,3,1,0,1,1.26504795580157,1.27914098660242
"725",30,18,2,2,5,3,1,0,1,1.70212307089747,1.6355243753274
"726",30,18,2,2,6,2,2,1,3,0.630659920614686,0.729145270781512
"727",30,37,2,1,7,1,1,1,4,0.268960215624396,0.1387770314374
"728",30,28,2,2,8,1,2,1,5,0.478085675113666,0.413926137522448
"729",30,26,2,2,9,1,2,1,5,0.326910135781256,0.366737657767244
"730",30,21,2,1,10,3,1,1,2,0.759800329153404,0.718775580630754
"731",30,33,2,1,11,1,1,1,4,0.360050442094358,0.191054138105676
"732",30,34,2,1,12,1,1,1,4,0.347035900607325,0.425631747327213
"733",30,27,2,2,13,1,2,1,4,0.32410887814543,0.291858701342158
"734",30,20,2,2,14,1,2,1,5,0.252007812257521,0.199197407473179
"735",30,18,2,2,15,1,2,1,4,0.470894486853069,0.519560318997932
"736",30,18,2,2,16,2,1,0,3,0.707336624464473,0.665355560051531
"737",30,37,2,1,17,3,1,1,2,1.00042274324816,1.02369281313092
"738",30,28,2,1,18,2,1,1,4,0.612341167954418,0.608522989208855
"739",30,26,2,2,19,1,2,1,5,0.405362245189961,0.458937245624103
"740",30,21,2,2,20,2,2,1,4,0.781084449309112,0.794340166351435
"741",30,33,2,1,21,3,1,1,2,0.888221012518438,0.877860277921932
"742",30,34,2,1,22,2,2,0,2,0.855282696081123,0.862284580881085
"743",30,27,2,1,23,1,1,1,5,0.361332230269072,0.335373823053151
"744",30,20,2,1,24,3,2,0,2,1.04591287541593,1.06947942362252
"745",30,18,2,1,25,2,1,1,3,0.83499328056424,0.832716328673495
"746",30,18,2,2,26,3,1,0,2,1.08984137599612,0.992700685404726
"747",30,37,2,2,27,2,1,0,3,0.603145512583453,0.556437076504927
"748",30,28,2,2,28,1,2,1,5,0.300422705792418,0.292009151409761
"749",30,26,2,2,29,2,1,0,2,0.650002997284921,0.680153463461004
"750",30,21,2,2,30,1,2,1,4,0.314757975338155,0.378194942126842
"751",30,33,2,2,31,1,2,1,4,0.465330858763247,0.462942165904599
"752",30,34,2,2,32,3,2,1,3,0.874807317768356,0.789465906803686
"753",30,27,2,1,33,3,2,0,2,1.24127693132033,1.26138419519787
"754",30,20,2,1,34,2,2,0,3,0.528149303746894,0.516486737894061
"755",30,18,2,2,35,2,2,1,4,0.73316523742862,0.748024939071181
"756",30,18,2,2,36,1,2,1,5,0.451379464459355,0.431371553563354
"757",30,37,2,1,37,3,1,1,3,0.80844654174609,0.778227471495374
"758",30,28,2,1,38,1,1,1,4,0.410315249361329,0.362525327982417
"759",30,26,2,2,39,2,1,0,2,0.615845509172086,0.594187783877099
"760",30,21,2,2,40,2,1,0,2,0.96634446628685,1.00375013275243
"761",30,33,2,1,41,2,1,1,3,0.839361732686242,0.910860305282014
"762",30,34,2,1,42,3,1,1,3,0.980147786325011,0.998448898684731
"763",30,27,2,1,43,1,1,1,4,0.478871481839813,0.483522690804471
"764",30,20,2,1,44,3,2,0,1,0.994049786487619,0.934514002362543
"765",30,18,2,1,45,3,2,0,2,0.992836335213123,1.00961724167239
"766",30,18,2,1,46,2,1,1,3,0.701548349486478,0.630917245601956
"767",30,37,2,2,47,3,1,0,2,1.14994961127324,1.12780830980663
"768",30,28,2,1,48,2,2,0,2,0.621025776901127,0.512991884459901
"769",30,26,2,1,49,2,1,1,4,0.511604137724059,0.480364428039718
"770",30,21,2,2,50,2,1,0,3,0.668298685518681,0.674140953490527
"771",30,33,2,1,51,1,1,1,5,0.372196941644749,0.432914348193998
"772",30,34,2,2,52,2,2,1,4,0.525383390429834,0.622925109938461
"773",30,27,2,1,53,2,1,1,3,0.836061086830987,0.896517759339667
"774",30,20,2,1,54,1,1,1,4,0.353656848813853,0.215013246085907
"775",30,18,2,1,55,2,1,1,4,0.653368453371115,0.729282423820214
"776",30,18,2,1,56,2,1,1,4,0.710821589627131,0.658984867989401
"777",30,37,2,2,57,3,1,0,2,1.05158715032718,1.12600521038384
"778",30,28,2,1,58,1,1,1,5,0.38281672987436,0.425923288620574
"779",30,26,2,2,59,3,2,1,2,0.860565740049099,0.790648783095118
"780",30,21,2,2,60,2,1,0,3,0.634319592198023,0.683151190729854
"781",30,33,2,1,61,1,1,1,5,0.410771979183895,0.435852969517334
"782",30,34,2,2,62,3,2,1,2,1.17734071784382,1.22303038887716
"783",30,27,2,1,63,3,1,1,2,0.956378030206296,0.955182591272224
"784",30,20,2,2,64,3,1,0,1,1.00263087498447,1.01670082299444
"785",30,18,2,2,65,1,2,1,5,0.383113263176902,0.370616775831822
"786",30,18,2,1,66,3,1,1,3,0.792157054093256,0.887288950485115
"787",30,37,2,1,67,1,1,1,5,0.397054931840874,0.38114954921611
"788",30,28,2,2,68,3,2,1,3,0.680131860475445,0.644717293664027
"789",30,26,2,2,69,1,2,1,5,0.394021207129453,0.350570564657684
"790",30,21,2,2,70,2,1,0,2,0.676378275084862,0.739086906200181
"791",30,33,2,2,71,2,2,1,4,0.51910864851843,0.547490177245973
"792",30,34,2,2,72,3,1,0,1,0.951153737087458,0.888227902621516
"793",30,27,2,2,73,2,2,1,4,0.621475588454695,0.621383816723972
"794",30,20,2,2,74,2,1,0,2,0.673586570754657,0.630849981241007
"795",30,18,2,2,75,2,1,0,2,0.704430933790293,0.651897138265324
"796",30,18,2,1,76,1,1,1,5,0.19172291051711,0.141511653828338
"797",30,37,2,2,77,3,2,1,2,0.742681009426022,0.740292409608593
"798",30,28,2,1,78,2,1,1,3,0.540489389667198,0.504564386844374
"799",30,26,2,2,79,3,1,0,1,0.979355277326524,1.00030754043619
"800",30,21,2,2,80,3,1,0,2,0.921881600101019,0.879102617270598
"801",30,33,2,2,81,2,2,1,3,0.69218890830271,0.832325483531822
"802",30,34,2,1,82,1,1,1,5,0.347279310873754,0.355241741568474
"803",30,27,2,2,83,1,1,0,3,0.800001036036942,0.797288147054703
"804",30,20,2,2,84,3,2,1,2,0.736389124294314,0.714835183025645
"805",30,18,2,1,85,2,2,0,2,0.7378097057445,0.790611187098621
"806",30,18,2,1,86,2,1,1,4,0.678054653045776,0.706179558909851
"807",30,37,2,2,87,3,2,1,2,1.00378922854669,0.980197973082524
"808",30,28,2,2,88,1,2,1,5,0.632229635164744,0.749515834190398
"809",30,26,2,2,89,3,2,1,2,1.09860792562632,1.04122053650308
"810",30,21,2,2,90,2,2,1,4,0.544118508785659,0.582348752448197
"811",30,33,2,1,91,1,1,1,4,0.384739943691529,0.390479897804231
"812",30,34,2,1,92,1,1,1,5,0.473906230548919,0.439928789166652
"813",30,27,2,2,93,2,1,0,3,0.75247442661175,0.717996837249805
"814",30,20,2,1,94,1,1,1,5,0.408143389316739,0.322066002890776
"815",30,18,2,1,95,2,1,1,3,0.67030834227171,0.619057562261817
"816",30,18,2,1,96,3,2,0,2,0.432603773488633,0.404036568993687
"817",30,37,2,1,97,2,2,0,2,0.679438533840509,0.60323774671245
"818",30,28,2,1,98,3,2,0,2,0.575897580348443,0.648190582732307
"819",30,26,2,1,99,2,1,1,3,0.524845205269873,0.463233666653144
"820",30,21,2,1,100,2,1,1,4,0.622969503890827,0.679654621927518
"821",30,33,2,1,101,2,1,1,4,0.485400807537028,0.502909198500655
"822",30,34,2,1,102,2,1,1,3,0.855571676780641,0.81538510818653
"823",30,27,2,1,103,3,1,1,3,0.957305972363378,1.06129834519771
"824",30,20,2,2,104,2,2,1,3,0.813565305142781,0.796763488325363
"825",30,18,2,2,105,2,2,1,3,0.518194755419521,0.508894108605005
"826",30,18,2,1,106,1,1,1,5,0.35690406055887,0.321395415443645
"827",30,37,2,1,107,3,2,0,2,1.13993559710891,1.23468628406374
"828",30,28,2,2,108,1,2,1,4,0.411434908278965,0.360433457791005
"829",30,26,2,1,109,1,1,1,4,0.439312812322247,0.469721093284184
"830",30,21,2,2,110,2,1,0,2,0.629862918088198,0.656649250078678
"831",30,33,2,1,111,1,1,1,4,0.259569268931678,0.274165378013937
"832",30,34,2,2,112,3,2,1,2,0.862538042336041,0.898492643680293
"833",30,27,2,2,113,1,2,1,4,0.300958344467846,0.328057795475659
"834",30,20,2,1,114,3,1,1,3,0.826974732458428,0.83334874088482
"835",30,18,2,1,115,2,1,1,4,0.455009847303328,0.419170230826833
"836",30,18,2,1,116,2,2,0,2,0.723309554762283,0.713017859273903
"837",30,37,2,2,117,1,1,0,4,0.45212475439985,0.469894752845352
"838",30,28,2,1,118,3,2,0,2,0.060583248551265,0.0885745027399142
"839",30,26,2,2,119,1,2,1,4,0.369769357521156,0.389802150138696
"840",30,21,2,1,120,2,2,0,3,0.875008289886322,0.846293605703833
"841",30,33,2,1,121,1,2,0,3,0.636916583834775,0.67900142466708
"842",30,34,2,1,122,1,1,1,5,0.358819821658244,0.373328615294419
"843",30,27,2,1,123,2,2,0,2,0.906201183511469,0.86983722453358
"844",30,20,2,2,124,2,2,1,3,0.949647682993134,0.891811147763215
"845",30,18,2,2,125,2,1,0,2,0.809663557351965,0.83056935220733
"846",30,18,2,2,126,2,2,1,3,0.744525835895752,0.775545441306739
"847",30,37,2,2,127,2,1,0,2,0.758096266950657,0.668252743123768
"848",30,28,2,1,128,2,1,1,3,0.589429492339733,0.64745581030822
"849",30,26,2,1,129,1,2,0,3,0.607580242974765,0.604337501481799
"850",30,21,2,1,130,1,1,1,5,0.413271302077946,0.395316067845205
"851",30,33,2,2,131,2,2,1,3,0.309722519127304,0.261521835854097
"852",30,34,2,1,132,2,1,1,3,0.352596391936357,0.346518347943642
"853",30,27,2,2,133,3,2,1,3,0.874261627357226,0.855533915075288
"854",30,20,2,2,134,1,1,0,3,0.524090214338543,0.464762424311257
"855",30,18,2,2,135,3,2,1,2,0.949921710452155,0.999516920734706
"856",30,18,2,1,136,3,2,0,2,1.45585677684205,1.3818523923018
"857",30,37,2,1,137,2,1,1,4,0.691609580820344,0.64744807646535
"858",30,28,2,1,138,1,1,1,4,0.407029501544916,0.347899664622946
"859",30,26,2,2,139,3,2,1,2,0.642693647373194,0.656709863110769
"860",30,21,2,2,140,3,1,0,1,1.15305846366858,1.18036680162764
"861",30,33,2,2,141,3,2,1,3,0.904434974807129,1.01683337480445
"862",30,34,2,1,142,3,1,1,3,0.589887140911061,0.562827053040787
"863",30,27,2,2,143,1,2,1,4,0.501031652071747,0.508620499538611
"864",30,20,2,1,144,1,1,1,4,0.411646451534511,0.382981804547712
"865",30,18,2,2,145,2,1,0,3,0.47692693347395,0.428088225642255
"866",30,18,2,1,146,3,1,1,2,1.01914340495778,1.03429890388397
"867",30,37,2,2,147,2,1,0,3,0.868613567477578,0.930912635502317
"868",30,28,2,1,148,3,2,0,2,1.59150648716607,1.6489736335288
"869",30,26,2,2,149,1,2,1,5,0.386971206500015,0.339234778351287
"870",30,21,2,2,150,3,1,0,2,0.842332063126134,0.844638102465741
"871",30,33,2,2,151,1,2,1,5,0.366994298782974,0.398218177140514
"872",30,34,2,2,152,1,2,1,4,0.336209785856931,0.313780105409948
"873",30,27,2,1,153,1,1,1,5,0.191683884399817,0.217767730564124
"874",30,20,2,1,154,2,1,1,4,0.778770198999979,0.751898593869958
"875",30,18,2,2,155,2,1,0,3,0.559804117651621,0.649046692710384
"876",30,18,2,2,156,3,2,1,2,0.831685795566269,0.788795846894876
"877",30,37,2,2,157,1,2,1,5,0.372922373722782,0.448257681975753
"878",30,28,2,1,158,3,1,1,2,0.95000340732531,0.838498974030558
"879",30,26,2,2,159,3,1,0,2,0.805833436497431,0.844605091678219
"880",30,21,2,2,160,2,1,0,2,0.642017773411161,0.648525473720937
"881",30,33,2,1,161,3,2,0,2,0.980702499106504,1.0132754131837
"882",30,34,2,2,162,3,2,1,3,0.695504252702571,0.661683174958832
"883",30,27,2,2,163,3,2,1,2,0.918702060386645,0.933739062624343
"884",30,20,2,1,164,3,1,1,2,0.852375801406904,0.821815995361228
"885",30,18,2,2,165,1,2,1,4,0.473010666149863,0.467709075325567
"886",30,18,2,1,166,1,2,0,3,0.392664046925962,0.420869374538223
"887",30,37,2,2,167,3,1,0,2,0.697163215001998,0.728559274922832
"888",30,28,2,2,168,2,2,1,3,0.353863770696532,0.376739527422832
"889",30,26,2,1,169,1,1,1,4,0.418920607785869,0.423216436936959
"890",30,21,2,1,170,3,1,1,3,0.740560683634074,0.683644125810133
"891",30,33,2,2,171,1,2,1,5,0.375024778180788,0.340488324897767
"892",30,34,2,1,172,3,1,1,2,1.03205923009766,1.04251525064981
"893",30,27,2,1,173,1,1,1,4,0.256442412866498,0.271367637763401
"894",30,20,2,1,174,1,1,1,5,0.561753354737638,0.590500397912589
"895",30,18,2,1,175,3,2,0,1,1.0316069305633,1.05099813643017
"896",30,18,2,2,176,3,1,0,1,1.29208015100643,1.30236329840085
"897",30,37,2,1,177,1,1,1,4,0.395720132454928,0.340498606443453
"898",30,28,2,2,178,3,2,1,2,1.07837985019539,1.04434933230107
"899",30,26,2,1,179,3,2,0,1,0.641759855197899,0.740439370318788
"900",30,21,2,1,180,3,2,0,1,0.644790598958422,0.574918619646069
"901",30,33,2,2,181,3,1,0,1,1.03441188208232,1.05034274731977
"902",30,34,2,1,182,2,1,1,3,0.723269439103522,0.736551938202125
"903",30,27,2,1,183,2,2,0,3,0.604587539168944,0.626479928617942
"904",30,20,2,1,184,1,1,1,4,0.391321412834478,0.390643825570584
"905",30,18,2,2,185,3,1,0,2,0.485318846391798,0.453431342641997
"906",30,18,2,2,186,3,1,0,2,0.883259781038851,0.901352838232143
"907",30,37,2,2,187,3,1,0,1,1.3316655651152,1.356574547226
"908",30,28,2,2,188,2,2,1,3,0.71074751084744,0.704566160717851
"909",30,26,2,1,189,2,2,0,2,0.66869426480067,0.711661850211806
"910",30,21,2,2,190,2,1,0,2,0.568845020281831,0.646748772523728
"911",30,33,2,1,191,3,1,1,2,0.782317642523198,0.824027979248639
"912",30,34,2,1,192,2,2,0,2,0.912866355622215,0.981530663597273
"913",30,27,2,2,193,2,1,0,3,0.814306432428746,0.871087686871015
"914",30,20,2,2,194,2,2,1,4,0.739580765454107,0.751558613068638
"915",30,18,2,2,195,3,1,0,2,0.658243834299014,0.66668859240724
"916",30,18,2,1,196,3,1,1,3,0.775601940746262,0.796239187809586
"917",30,37,2,1,197,2,1,1,4,0.7087805215734,0.736982238292641
"918",30,28,2,2,198,3,2,1,3,0.768096356292589,0.810832441581575
"919",30,26,2,2,199,3,2,1,2,0.739445795996938,0.743039310466819
"920",30,21,2,2,200,2,2,1,4,0.903968559937422,0.929053369186644
"921",30,33,2,1,201,3,1,1,2,0.839647648841397,0.865821219840665
"922",30,34,2,1,202,2,1,1,3,0.596572622769489,0.62042564622527
"923",30,27,2,1,203,2,2,0,3,0.487860257452946,0.476010912463949
"924",30,20,2,1,204,1,1,1,5,0.293190866146737,0.280115436827023
"925",30,18,2,1,205,1,1,1,5,0.465484974586054,0.465643072552964
"926",30,18,2,2,206,1,1,0,3,0.56278543655493,0.577645569606648
"927",30,37,2,1,207,1,1,1,4,0.446665780654619,0.421207120572783
"928",30,28,2,1,208,1,1,1,4,0.405487836229331,0.399564550195488
"929",30,26,2,2,209,2,2,1,3,0.630846140430518,0.572524124044124
"930",30,21,2,2,210,1,2,1,4,0.394995099857376,0.455515863822783
"931",30,33,2,1,211,1,1,1,5,0.425783613122018,0.465876489361251
"932",30,34,2,1,212,3,1,1,2,0.92822733372538,0.89895252178238
"933",30,27,2,1,213,2,1,1,3,0.806684490668615,0.832606001676001
"934",30,20,2,1,214,1,1,1,4,0.416002944075669,0.438471807764297
"935",30,18,2,1,215,2,2,0,2,0.808203563326223,0.769473226977773
"936",30,18,2,1,216,3,1,1,3,0.81346755035686,0.754531858434271
"937",30,37,2,2,217,2,1,0,2,0.843713996463791,0.865514109542331
"938",30,28,2,1,218,1,1,1,5,0.355321456555864,0.340105378697704
"939",30,26,2,2,219,1,2,1,5,0.286331021258189,0.361786634620377
"940",30,21,2,2,220,1,2,1,4,0.461072819795057,0.451548326160615
"941",30,33,2,2,221,3,2,1,3,0.722442167130283,0.769178420314113
"942",30,34,2,1,222,1,1,1,5,0.369072822146682,0.341264400535491
"943",30,27,2,1,223,1,1,1,4,0.253636762291561,0.276406259127452
"944",30,20,2,1,224,3,1,1,2,0.916877440425531,1.00373445611621
"945",30,18,2,2,225,3,2,1,2,0.91352543504501,0.853434725415354
"946",30,18,2,2,226,3,1,0,1,1.69350777877571,1.67243273042364
"947",30,37,2,2,227,1,2,1,4,0.515606643068449,0.456011908477941
"948",30,28,2,2,228,1,2,1,4,0.43873806576722,0.440113175924911
"949",30,26,2,2,229,1,2,1,4,0.4850559105849,0.439595471762939
"950",30,21,2,2,230,2,2,1,3,0.350612900861475,0.336899907190707
"951",30,33,2,1,231,3,1,1,2,1.17393997064416,1.26030179363043
"952",30,34,2,2,232,2,1,0,2,0.936047806422969,0.872371373354753
"953",30,27,2,1,233,1,2,0,3,0.43706677408505,0.425172179910748
"954",30,20,2,1,234,3,2,0,2,1.07721896448262,1.01151684119264
"955",30,18,2,1,235,3,2,0,2,0.676623193168112,0.746671714251939
"956",30,18,2,2,236,1,2,1,4,0.328458603860397,0.351180375280368
"957",30,37,2,2,237,2,2,1,4,0.627800615415035,0.644197194226092
"958",30,28,2,2,238,1,2,1,4,0.470673122628302,0.437815039233612
"959",30,26,2,2,239,1,2,1,4,0.292444666312994,0.275430046953486
"960",30,21,2,1,240,1,1,1,5,0.444001332001913,0.501090836153187
"961",29,30,1,2,1,3,2,1,2,0.729144241443875,0.752850710425862
"962",29,38,1,2,2,3,1,0,2,1.62741749818824,1.60520936693523
"963",29,35,1,1,3,1,1,1,5,0.471166270813021,0.339095234494554
"964",29,36,1,2,4,1,1,0,4,0.732097062687971,0.809777533630179
"965",29,20,1,1,5,1,1,1,4,0.3091604877554,0.273223109302683
"966",29,33,1,2,6,1,2,1,4,0.359534632591077,0.395112325560319
"967",29,37,1,2,7,2,1,0,3,0.65248354529194,0.635145038965586
"968",29,38,1,1,8,3,1,1,2,0.902519204149112,0.927810824549896
"969",29,38,1,1,9,3,1,1,2,0.526720233387621,0.563974762218966
"970",29,39,1,2,10,3,2,1,2,0.936649358292018,0.887267867697697
"971",29,30,1,2,11,3,1,0,1,1.2261280524263,1.23145688978868
"972",29,38,1,2,12,2,2,1,3,0.326163331275522,0.316067165544688
"973",29,35,1,2,13,3,2,1,3,0.975821209642398,0.922295441034528
"974",29,36,1,1,14,1,1,1,5,0.285342445857507,0.289085576856559
"975",29,20,1,2,15,3,1,0,2,0.165870060647573,0.0532667690724729
"976",29,33,1,1,16,1,2,0,3,0.513629451035835,0.551487998774512
"977",29,37,1,2,17,1,2,1,5,0.39594387553363,0.322206365210684
"978",29,38,1,1,18,3,2,0,2,0.527052947150303,0.503894092454147
"979",29,38,1,2,19,1,2,1,5,0.394679529501213,0.368056859787631
"980",29,39,1,2,20,2,2,1,4,0.644048129067717,0.637526634543963
"981",29,30,1,2,21,2,2,1,3,0.537247754033246,0.549305867622278
"982",29,38,1,1,22,1,1,1,4,0.388989165427193,0.387313533363521
"983",29,35,1,2,23,1,1,0,3,0.458879154194548,0.453939373996888
"984",29,36,1,1,24,3,2,0,2,0.572688931291743,0.583260340825283
"985",29,20,1,2,25,3,1,0,1,1.24057975317214,1.32814349707599
"986",29,33,1,1,26,1,1,1,5,0.4466673900651,0.377208421340633
"987",29,37,1,1,27,2,2,0,3,0.986699510225785,1.03742388594695
"988",29,38,1,1,28,2,1,1,4,0.527953645076783,0.50673011200719
"989",29,38,1,2,29,2,1,0,3,0.54716099614336,0.544367604679237
"990",29,39,1,1,30,3,1,1,2,0.82347121483236,0.85387304504798
"991",29,30,1,1,31,1,1,1,5,0.558458890505858,0.552009117749051
"992",29,38,1,1,32,3,1,1,3,0.755546599102935,0.764285154858559
"993",29,35,1,2,33,1,1,0,3,0.50701587859407,0.443626056191075
"994",29,36,1,1,34,3,1,1,2,1.02370794765822,1.01332623928681
"995",29,20,1,2,35,1,2,1,5,0.400076502486223,0.453778276606576
"996",29,33,1,2,36,2,2,1,4,0.528175914510548,0.506338362307915
"997",29,37,1,2,37,2,1,0,2,0.432302028794616,0.430169798521398
"998",29,38,1,1,38,3,2,0,2,0.955380197254785,0.919429081919659
"999",29,38,1,2,39,2,2,1,3,0.687655637187633,0.634472563015069
"1000",29,39,1,1,40,2,2,0,3,0.596590732513743,0.630987261252454
"1001",29,30,1,1,41,1,2,0,4,0.584314034519271,0.588621017325568
"1002",29,38,1,2,42,1,2,1,4,0.34510138170068,0.244520800101582
"1003",29,35,1,1,43,3,2,0,1,1.47898057033306,1.53476258068532
"1004",29,36,1,2,44,2,2,1,3,0.718055418841965,0.712213761077074
"1005",29,20,1,1,45,1,1,1,5,0.43685954339576,0.399375204609993
"1006",29,33,1,2,46,2,1,0,2,0.371968986546729,0.346441723681844
"1007",29,37,1,1,47,3,1,1,3,0.612022516823588,0.626632727175455
"1008",29,38,1,1,48,2,2,0,2,0.732415259519259,0.704898601854287
"1009",29,38,1,1,49,1,1,1,5,0.390491964835402,0.314568736359905
"1010",29,39,1,2,50,1,2,1,5,0.377415915375663,0.273108616607438
"1011",29,30,1,1,51,3,1,1,2,1.15438756311077,1.13313443990173
"1012",29,38,1,2,52,2,1,0,3,0.620578402352746,0.64576596624141
"1013",29,35,1,1,53,1,1,1,4,0.343473734811345,0.271093210859218
"1014",29,36,1,1,54,2,1,1,4,0.59322190429074,0.532998585168985
"1015",29,20,1,2,55,1,2,1,4,0.586734073902304,0.51842672341854
"1016",29,33,1,2,56,3,2,1,2,0.48153274751189,0.450787067630806
"1017",29,37,1,1,57,2,2,0,2,0.781098070625595,0.783958695600003
"1018",29,38,1,2,58,2,2,1,4,0.603175234217704,0.61250165526934
"1019",29,38,1,2,59,1,2,1,5,0.517142472332891,0.567021229285604
"1020",29,39,1,1,60,2,1,1,3,0.842323747123391,0.863690714791592
"1021",29,30,1,2,61,2,1,0,3,0.905006795440407,0.850389812089873
"1022",29,38,1,1,62,3,1,1,2,0.571274122256829,0.567723719817064
"1023",29,35,1,2,63,3,2,1,3,0.862960241346227,0.907905127573156
"1024",29,36,1,2,64,3,1,0,1,0.87468659380311,0.892647583790559
"1025",29,20,1,1,65,1,2,0,4,0.600404101369549,0.453678379822578
"1026",29,33,1,2,66,2,1,0,2,0.601913781772628,0.632955965663613
"1027",29,37,1,1,67,2,1,1,4,0.45826869005363,0.436620955057429
"1028",29,38,1,1,68,2,1,1,3,0.437873088351414,0.494221465059121
"1029",29,38,1,2,69,3,1,0,1,1.35981539610761,1.38474157729201
"1030",29,39,1,1,70,2,2,0,2,0.74897107675622,0.747644167410891
"1031",29,30,1,2,71,2,2,1,4,0.573151103501466,0.581908255169664
"1032",29,38,1,1,72,2,2,0,3,0.793427723885127,0.717016383215167
"1033",29,35,1,1,73,3,2,0,2,1.50220038364994,1.5891203554529
"1034",29,36,1,1,74,3,2,0,2,0.92433534871158,0.970637311259751
"1035",29,20,1,2,75,3,2,1,2,0.943974767648594,0.954022552840933
"1036",29,33,1,2,76,2,2,1,3,0.542590027668554,0.592306133035191
"1037",29,37,1,1,77,1,1,1,4,0.338123562420813,0.331418168423222
"1038",29,38,1,2,78,3,1,0,1,1.00463661078969,1.019433029433
"1039",29,38,1,1,79,1,1,1,5,0.303368289029697,0.3757831122167
"1040",29,39,1,1,80,1,1,1,5,0.334602894615581,0.402742720357563
"1041",29,30,1,1,81,1,1,1,5,0.296042347363137,0.238810672462801
"1042",29,38,1,2,82,2,2,1,4,0.594601522667461,0.547005959727273
"1043",29,35,1,1,83,1,2,0,4,0.57583753246914,0.546453605563138
"1044",29,36,1,2,84,3,1,0,2,0.251297651660269,0.290949301466554
"1045",29,20,1,2,85,1,2,1,4,0.260213772029077,0.307411415746741
"1046",29,33,1,2,86,2,1,0,3,0.783497586529362,0.715366480796771
"1047",29,37,1,1,87,2,2,0,2,0.754227291804075,0.749196058367088
"1048",29,38,1,2,88,3,2,1,3,0.546173858556155,0.534218593136897
"1049",29,38,1,2,89,3,1,0,2,1.51703629927839,1.52844065890799
"1050",29,39,1,1,90,1,1,1,4,0.579027114407867,0.58110415764807
"1051",29,30,1,2,91,1,2,1,4,0.439309851283676,0.473948255967073
"1052",29,38,1,2,92,2,1,0,2,0.671127585611516,0.744305765474824
"1053",29,35,1,1,93,3,1,1,3,0.976751775057691,0.90461804826911
"1054",29,36,1,2,94,3,2,1,2,0.850916814426983,0.848386985625396
"1055",29,20,1,1,95,3,2,0,1,0.585046196373903,0.569174121716633
"1056",29,33,1,1,96,3,1,1,3,1.10384716717254,1.08058323858491
"1057",29,37,1,1,97,1,2,0,4,0.73442621351482,0.728723095065979
"1058",29,38,1,1,98,3,2,0,2,0.84450994398547,0.708795490274193
"1059",29,38,1,2,99,2,1,0,3,0.602776911853404,0.715462075037014
"1060",29,39,1,2,100,2,2,1,3,0.693591533177326,0.644288985971632
"1061",29,30,1,1,101,3,2,0,1,-0.353973512460705,-0.359286066046096
"1062",29,38,1,1,102,1,1,1,4,0.447647668027314,0.400023844160839
"1063",29,35,1,1,103,3,1,1,3,0.650116178506279,0.683293435430905
"1064",29,36,1,1,104,3,2,0,1,0.947152376815955,0.983521835867581
"1065",29,20,1,1,105,3,2,0,1,0.994047878134363,1.06354761839575
"1066",29,33,1,2,106,1,1,0,3,0.461782838879781,0.376984896448792
"1067",29,37,1,1,107,3,1,1,2,0.779201383922484,0.786522916129107
"1068",29,38,1,1,108,1,1,1,4,0.40892819015141,0.409833301933462
"1069",29,38,1,1,109,1,1,1,4,0.405932913910739,0.418562471219329
"1070",29,39,1,2,110,3,2,1,3,1.05808349048952,1.05173200954286
"1071",29,30,1,1,111,2,2,0,2,0.527028251845489,0.533261601277207
"1072",29,38,1,1,112,2,2,0,2,1.07615997441151,1.06988974724149
"1073",29,35,1,1,113,1,1,1,5,0.406057892910686,0.438708685972254
"1074",29,36,1,1,114,1,1,1,4,0.319548698909617,0.251911733153579
"1075",29,20,1,1,115,2,2,0,3,0.664156925522216,0.714213229512876
"1076",29,33,1,2,116,2,1,0,2,0.861615812250245,0.899839258618277
"1077",29,37,1,1,117,3,1,1,2,0.840921154921052,0.822079011310977
"1078",29,38,1,2,118,1,2,1,5,0.457997788052081,0.361420886490713
"1079",29,38,1,2,119,1,2,1,5,0.433438314284937,0.421433023302829
"1080",29,39,1,2,120,2,2,1,4,0.684890856407887,0.736391380043434
"1081",29,30,1,1,121,2,1,1,4,0.662318445612427,0.662100797167423
"1082",29,38,1,2,122,1,1,0,4,0.650648182926228,0.686137948576673
"1083",29,35,1,2,123,1,2,1,5,0.405271324611274,0.522612463312787
"1084",29,36,1,2,124,2,1,0,3,0.818191383107732,0.797344212189005
"1085",29,20,1,2,125,2,1,0,2,0.911937442279174,0.943232987601139
"1086",29,33,1,1,126,2,2,0,2,0.683223021585091,0.669469391167113
"1087",29,37,1,1,127,2,1,1,3,0.467452197030465,0.535033262205748
"1088",29,38,1,1,128,2,2,0,2,0.697221933879802,0.722401484164256
"1089",29,38,1,1,129,2,1,1,4,0.503626146141368,0.53161206394124
"1090",29,39,1,1,130,1,1,1,5,0.332416428617574,0.316369949548569
"1091",29,30,1,2,131,3,1,0,1,0.590837002600825,0.612395862469909
"1092",29,38,1,2,132,1,2,1,5,0.455572904285046,0.506958979491102
"1093",29,35,1,1,133,1,1,1,4,0.362857361692875,0.340783712210988
"1094",29,36,1,2,134,2,2,1,3,0.806177801962033,0.842371894600593
"1095",29,20,1,1,135,1,2,0,4,0.568622273674487,0.646391407593484
"1096",29,33,1,1,136,1,1,1,5,0.365289676465255,0.355410155576964
"1097",29,37,1,2,137,2,2,1,4,0.584033776967864,0.501583955705827
"1098",29,38,1,1,138,1,1,1,5,0.318318074726632,0.347912798856521
"1099",29,38,1,2,139,1,2,1,4,0.465737983176896,0.490293973161097
"1100",29,39,1,1,140,3,1,1,3,0.762245800131646,0.767660441606985
"1101",29,30,1,2,141,2,1,0,2,0.56539275679283,0.615002180947504
"1102",29,38,1,2,142,1,2,1,4,0.285776729293272,0.260979058984694
"1103",29,35,1,2,143,3,1,0,1,1.21198813018913,1.14697556443563
"1104",29,36,1,1,144,2,1,1,4,0.648557536470013,0.696324910374987
"1105",29,20,1,1,145,1,1,1,4,0.548433049491177,0.540155490041714
"1106",29,33,1,1,146,1,1,1,4,0.327548440018012,0.332529779101067
"1107",29,37,1,2,147,3,2,1,2,0.651906811291548,0.589950141604189
"1108",29,38,1,1,148,2,1,1,4,0.806538816433591,0.771742332044416
"1109",29,38,1,2,149,2,1,0,2,0.764214148960969,0.802297305189696
"1110",29,39,1,2,150,2,2,1,3,0.49735409842217,0.492319794212723
"1111",29,30,1,1,151,1,2,0,3,0.637125116586167,0.55995764190757
"1112",29,38,1,1,152,2,2,0,2,0.915448549423868,0.864335662646785
"1113",29,35,1,1,153,2,2,0,3,0.439080783083959,0.406024987056783
"1114",29,36,1,1,154,3,2,0,2,0.575824751476046,0.591785468395439
"1115",29,20,1,1,155,3,1,1,2,0.411373847928684,0.507137589615192
"1116",29,33,1,2,156,3,1,0,2,1.19396604276655,1.07080222827083
"1117",29,37,1,1,157,1,2,0,3,0.455315327778199,0.383791334413759
"1118",29,38,1,2,158,3,2,1,2,0.729826222462381,0.74431756553999
"1119",29,38,1,1,159,1,1,1,5,0.405333424891686,0.452797107316857
"1120",29,39,1,1,160,1,1,1,5,0.367296609951928,0.40509172415033
"1121",29,30,1,2,161,3,1,0,2,0.831187323863674,0.820372685417193
"1122",29,38,1,1,162,2,2,0,3,0.677376783116306,0.709462947388863
"1123",29,35,1,2,163,1,2,1,5,0.490355656382074,0.491034463483227
"1124",29,36,1,1,164,3,2,0,1,0.763192464915779,0.756136491636754
"1125",29,20,1,1,165,2,2,0,2,0.980818173773086,0.953323540325218
"1126",29,33,1,1,166,3,1,1,2,0.702979396771434,0.72418596353027
"1127",29,37,1,2,167,1,2,1,4,0.423024959380953,0.387463357418072
"1128",29,38,1,1,168,3,1,1,3,0.852946409510398,0.8484317494551
"1129",29,38,1,1,169,1,1,1,5,0.438837097212915,0.408101540772237
"1130",29,39,1,2,170,2,2,1,4,0.55749170026785,0.53911590329964
"1131",29,30,1,1,171,1,1,1,4,0.467974715965659,0.47538950469916
"1132",29,38,1,2,172,1,2,1,4,0.34037987115636,0.429498588464487
"1133",29,35,1,1,173,1,1,1,4,0.33004807708259,0.323367429399062
"1134",29,36,1,2,174,3,2,1,2,0.79160697603526,0.757929804701437
"1135",29,20,1,1,175,2,1,1,3,0.527610101886137,0.532056933528574
"1136",29,33,1,2,176,2,1,0,3,0.836268012776817,0.919225933257344
"1137",29,37,1,1,177,2,1,1,3,0.839722140457375,0.841240359370031
"1138",29,38,1,2,178,3,1,0,2,0.495897212117808,0.536419063520538
"1139",29,38,1,2,179,3,2,1,3,0.899456709054894,0.974227557903038
"1140",29,39,1,2,180,3,1,0,2,1.41322196998259,1.43644701439708
"1141",29,30,1,2,181,2,1,0,2,0.733098527277675,0.731679466041786
"1142",29,38,1,1,182,3,2,0,1,0.968074440822172,0.988167985827983
"1143",29,35,1,2,183,2,1,0,2,0.952605497350468,0.93767344942057
"1144",29,36,1,2,184,2,1,0,2,0.68056346225271,0.736526129770062
"1145",29,20,1,2,185,2,2,1,4,0.575074270350311,0.569359568617494
"1146",29,33,1,1,186,2,2,0,2,0.566645115878278,0.618915068167641
"1147",29,37,1,2,187,2,2,1,4,0.637960738161203,0.702541757365121
"1148",29,38,1,2,188,2,1,0,2,0.782066247085109,0.754026277449271
"1149",29,38,1,2,189,1,1,0,3,0.434808270739612,0.37147959644163
"1150",29,39,1,2,190,1,2,1,5,0.400868885064511,0.315936062228544
"1151",29,30,1,2,191,1,2,1,5,0.220299636989633,0.323716951611087
"1152",29,38,1,2,192,3,2,1,2,0.614445153703149,0.568255068207351
"1153",29,35,1,2,193,3,2,1,3,0.902830752481405,0.909800471721008
"1154",29,36,1,2,194,3,2,1,3,0.62779208916898,0.581098146619485
"1155",29,20,1,2,195,3,1,0,2,0.647834298237636,0.660149370267845
"1156",29,33,1,1,196,2,1,1,4,0.618969218883937,0.622590928234633
"1157",29,37,1,1,197,1,1,1,5,0.49970447609257,0.498662547240175
"1158",29,38,1,2,198,3,1,0,1,1.07483611438005,1.07732703848561
"1159",29,38,1,1,199,2,1,1,4,0.65450452473349,0.655964061509308
"1160",29,39,1,1,200,1,2,0,4,0.518222481668546,0.495410543795938
"1161",29,30,1,2,201,3,1,0,2,0.933392071882054,0.963914940414626
"1162",29,38,1,2,202,1,1,0,4,0.542992677650737,0.537913613119572
"1163",29,35,1,2,203,1,2,1,5,0.342789037982232,0.358050855589606
"1164",29,36,1,2,204,1,2,1,4,0.473411234370771,0.449961372334659
"1165",29,20,1,1,205,3,1,1,3,0.671986286596565,0.651482553759449
"1166",29,33,1,2,206,2,2,1,4,0.754521143189836,0.770190114876069
"1167",29,37,1,1,207,3,1,1,2,0.261679057154817,0.2319151679101
"1168",29,38,1,1,208,3,1,1,2,0.504697031887107,0.455724521485479
"1169",29,38,1,2,209,3,2,1,2,0.638338444218915,0.644768160905651
"1170",29,39,1,2,210,3,1,0,2,0.542125451808866,0.512073156815309
"1171",29,30,1,2,211,3,2,1,2,0.872569685416188,0.821754568343247
"1172",29,38,1,1,212,1,2,0,3,0.355000801902642,0.410322046576443
"1173",29,35,1,2,213,3,2,1,3,0.893831163143388,0.919611189168499
"1174",29,36,1,1,214,2,1,1,4,0.751833168705303,0.830314704339468
"1175",29,20,1,1,215,1,1,1,4,0.388738709377806,0.374428052214568
"1176",29,33,1,1,216,3,2,0,1,1.04149641835828,1.05967255106842
"1177",29,37,1,1,217,2,2,0,2,0.859063747527731,0.901486267838988
"1178",29,38,1,1,218,1,1,1,4,0.484376450563066,0.428982256700663
"1179",29,38,1,2,219,1,1,0,4,0.363778261839401,0.368049026416666
"1180",29,39,1,1,220,2,2,0,3,0.591189268164678,0.58700450834768
"1181",29,30,1,2,221,3,2,1,3,0.766695924717844,0.900180893612921
"1182",29,38,1,1,222,2,2,0,3,0.717935589027483,0.667027791789129
"1183",29,35,1,2,223,2,2,1,3,0.680559859765696,0.705032084209325
"1184",29,36,1,1,224,2,1,1,4,0.615609429879119,0.649371262209062
"1185",29,20,1,1,225,1,2,0,3,0.548521076730904,0.553991770067908
"1186",29,33,1,2,226,2,2,1,3,0.61323761684601,0.568529527420373
"1187",29,37,1,2,227,1,2,1,4,0.384595359774721,0.384472123625983
"1188",29,38,1,1,228,1,2,0,4,0.449936223500284,0.489483634412058
"1189",29,38,1,2,229,3,1,0,1,0.653114276917627,0.657851749558341
"1190",29,39,1,2,230,3,2,1,3,0.689931416403423,0.6426402258465
"1191",29,30,1,1,231,2,2,0,2,0.68372176144001,0.544135200662895
"1192",29,38,1,2,232,3,1,0,1,1.56998335139797,1.61035256345156
"1193",29,35,1,2,233,1,2,1,5,0.455105131963548,0.370008881840083
"1194",29,36,1,1,234,3,1,1,3,1.13554177264726,1.16706633112551
"1195",29,20,1,2,235,1,2,1,4,0.405156587714783,0.356752781209241
"1196",29,33,1,1,236,2,1,1,4,0.66204445276305,0.650615812712065
"1197",29,37,1,2,237,3,2,1,3,0.438314628272517,0.432196799325457
"1198",29,38,1,2,238,1,2,1,5,0.428367731248047,0.316688394141202
"1199",29,38,1,1,239,3,1,1,3,0.717427480814201,0.729855243871887
"1200",29,39,1,2,240,2,1,0,2,0.55519998875095,0.508929545981813
"1201",28,23,2,1,1,1,1,1,5,0.387343890952466,0.349009135730153
"1202",28,40,2,1,2,3,1,1,3,0.762461055761239,0.694506562332376
"1203",28,38,2,2,3,3,2,1,3,0.806950636240506,0.839091438281853
"1204",28,34,2,1,4,3,2,0,2,0.994872055273969,1.05307558646981
"1205",28,40,2,1,5,2,1,1,4,0.573362599594723,0.547018117564579
"1206",28,38,2,1,6,1,1,1,4,0.466316549498131,0.438035535192808
"1207",28,33,2,2,7,1,2,1,5,0.423248291782582,0.478834867455161
"1208",28,37,2,2,8,2,1,0,2,0.48834655341069,0.521833600682041
"1209",28,23,2,1,9,1,1,1,4,0.393811552992959,0.377826112460387
"1210",28,36,2,1,10,1,1,1,5,0.466624139002048,0.512480918513659
"1211",28,23,2,1,11,1,1,1,4,0.507627494055794,0.552232551156928
"1212",28,40,2,2,12,1,1,0,4,0.556412076077364,0.601960132356393
"1213",28,38,2,2,13,2,1,0,2,0.479448802078884,0.531392018117702
"1214",28,34,2,1,14,2,2,0,3,0.878038442865458,0.858084785167201
"1215",28,40,2,1,15,2,2,0,3,0.90028308273333,0.98486486275866
"1216",28,38,2,1,16,1,2,0,4,0.332119741453864,0.333411001001136
"1217",28,33,2,1,17,3,1,1,3,0.925613186941832,0.91045447752721
"1218",28,37,2,1,18,3,2,0,2,0.823897170379233,0.899362386607059
"1219",28,23,2,2,19,1,2,1,5,0.462583529737357,0.449341356555351
"1220",28,36,2,2,20,2,2,1,3,0.487402168805008,0.512112376214975
"1221",28,23,2,2,21,3,1,0,2,1.18406908082874,1.18473720680844
"1222",28,40,2,2,22,2,2,1,3,0.569997687931821,0.587142549930713
"1223",28,38,2,1,23,2,1,1,3,0.661271581739622,0.672684014941558
"1224",28,34,2,1,24,2,2,0,2,0.644102562431053,0.581163599699936
"1225",28,40,2,1,25,1,2,0,4,0.592159811423329,0.736673102081208
"1226",28,38,2,2,26,2,2,1,4,0.547703962147307,0.464141152926728
"1227",28,33,2,2,27,3,2,1,2,0.545045923906176,0.612561355688912
"1228",28,37,2,1,28,3,2,0,2,0.634790039209133,0.616676380715197
"1229",28,23,2,2,29,2,1,0,2,0.481035675497891,0.420575439583691
"1230",28,36,2,1,30,1,1,1,5,0.444728247431198,0.441510477563529
"1231",28,23,2,1,31,2,1,1,3,0.404172544699146,0.360049132010187
"1232",28,40,2,2,32,3,1,0,2,0.552707749783484,0.564557523104929
"1233",28,38,2,2,33,3,1,0,2,0.99190234441242,1.00401474946101
"1234",28,34,2,1,34,2,1,1,3,0.643942546100225,0.616358033548441
"1235",28,40,2,2,35,3,1,0,1,0.784660297085003,0.72990587912123
"1236",28,38,2,2,36,3,2,1,2,0.467215102647681,0.363579507581807
"1237",28,33,2,1,37,2,1,1,3,0.633921577405484,0.614558491400558
"1238",28,37,2,1,38,3,2,0,2,0.798321865189128,0.801017513581856
"1239",28,23,2,2,39,2,1,0,3,0.75551174124425,0.774553204389973
"1240",28,36,2,2,40,1,2,1,5,0.460193989547557,0.540529610264461
"1241",28,23,2,1,41,2,1,1,3,0.342210254008524,0.339777131953826
"1242",28,40,2,2,42,3,2,1,3,0.73150942610509,0.732400058333696
"1243",28,38,2,2,43,2,2,1,3,0.540612457033736,0.444565607142702
"1244",28,34,2,2,44,3,1,0,2,0.374479012723661,0.403379446170555
"1245",28,40,2,1,45,2,2,0,2,0.641076307488465,0.664317118531594
"1246",28,38,2,2,46,1,2,1,5,0.314231021148057,0.279576767517488
"1247",28,33,2,2,47,3,1,0,1,1.04457371473124,1.08846816911532
"1248",28,37,2,1,48,2,1,1,3,0.690967370671428,0.65061298491204
"1249",28,23,2,1,49,1,1,1,5,0.374554484785656,0.375148467863866
"1250",28,36,2,1,50,2,1,1,4,0.865677742517055,0.826193332562589
"1251",28,23,2,2,51,2,2,1,4,0.780261226528694,0.756355629472528
"1252",28,40,2,2,52,2,2,1,4,0.328880122505903,0.41906101259867
"1253",28,38,2,2,53,3,1,0,1,1.5784035170391,1.53153271035447
"1254",28,34,2,2,54,2,2,1,4,0.44268003109288,0.373121640568293
"1255",28,40,2,1,55,3,2,0,2,0.350448849581453,0.307079729228353
"1256",28,38,2,2,56,2,1,0,3,0.609671787826985,0.56888085613665
"1257",28,33,2,1,57,2,1,1,3,0.531037146192969,0.565149817416351
"1258",28,37,2,2,58,1,2,1,4,0.57431029521079,0.557961254407677
"1259",28,23,2,1,59,1,1,1,4,0.404792735453614,0.478730130972037
"1260",28,36,2,2,60,3,1,0,2,1.21125973867519,1.24417925095229
"1261",28,23,2,1,61,2,2,0,2,0.92167466089603,0.971092959841295
"1262",28,40,2,2,62,3,2,1,3,0.747060809612276,0.838704116936248
"1263",28,38,2,1,63,2,1,1,4,0.652483816657078,0.630554513706951
"1264",28,34,2,1,64,1,2,0,3,0.725616981526415,0.669990141051831
"1265",28,40,2,2,65,2,2,1,3,0.560737536010496,0.54957838859255
"1266",28,38,2,1,66,3,1,1,2,0.898744198110197,0.994487672827696
"1267",28,33,2,1,67,2,2,0,2,0.306691649461966,0.34757592891039
"1268",28,37,2,1,68,1,2,0,3,0.578687468840032,0.558180160935148
"1269",28,23,2,1,69,1,1,1,4,0.404248583787735,0.427863139811376
"1270",28,36,2,2,70,2,1,0,3,0.683294765148399,0.677831126101698
"1271",28,23,2,2,71,2,2,1,3,0.671013245951846,0.663678611188249
"1272",28,40,2,1,72,2,1,1,4,0.590513316270938,0.550101762360878
"1273",28,38,2,2,73,1,2,1,5,0.387861033724029,0.349097826870074
"1274",28,34,2,1,74,1,1,1,5,0.442026627710878,0.417867398602302
"1275",28,40,2,2,75,3,1,0,2,0.897184504999593,0.902465801023637
"1276",28,38,2,1,76,2,1,1,3,0.501919264763489,0.544943205743378
"1277",28,33,2,1,77,3,2,0,1,1.28081004520283,1.28878385219102
"1278",28,37,2,1,78,2,1,1,3,0.514971515691912,0.49499468084958
"1279",28,23,2,2,79,1,2,1,4,0.404045425804345,0.309714760087566
"1280",28,36,2,2,80,3,2,1,2,0.516843488427097,0.601793576891825
"1281",28,23,2,1,81,1,1,1,4,0.478184875221616,0.388404075402652
"1282",28,40,2,2,82,1,2,1,4,0.403440106721129,0.352081123532763
"1283",28,38,2,2,83,2,2,1,3,0.74910624469033,0.798166051288544
"1284",28,34,2,1,84,3,1,1,3,0.482132702094201,0.406197855190461
"1285",28,40,2,1,85,1,1,1,4,0.430299749485416,0.45097552841365
"1286",28,38,2,1,86,2,2,0,2,0.820984566445269,0.795615355878219
"1287",28,33,2,1,87,1,1,1,4,0.514373721933933,0.537868032644119
"1288",28,37,2,1,88,2,2,0,2,0.78239912687318,0.800796648821947
"1289",28,23,2,1,89,1,1,1,5,0.365944157643609,0.358225077168315
"1290",28,36,2,2,90,3,1,0,1,1.33185203501171,1.25757340779167
"1291",28,23,2,1,91,2,2,0,3,0.795081335625445,0.849352649412706
"1292",28,40,2,1,92,3,1,1,2,0.482721154678555,0.445555838312177
"1293",28,38,2,2,93,3,2,1,3,0.874937728299017,0.89491718678039
"1294",28,34,2,2,94,2,2,1,4,0.344923318992929,0.367304968269029
"1295",28,40,2,1,95,1,1,1,5,0.497743209641883,0.488915524002984
"1296",28,38,2,1,96,2,2,0,3,0.698100427888413,0.682350898471226
"1297",28,33,2,1,97,1,1,1,4,0.408278129257648,0.438115469554204
"1298",28,37,2,2,98,3,2,1,2,0.580041845762825,0.590951434570927
"1299",28,23,2,2,99,2,1,0,3,0.506392953456802,0.491180591985355
"1300",28,36,2,2,100,2,1,0,3,0.559399609515311,0.410133986619914
"1301",28,23,2,1,101,2,1,1,3,0.487049108613196,0.478403744866411
"1302",28,40,2,1,102,1,1,1,5,0.264156115773031,0.198995390719902
"1303",28,38,2,2,103,3,2,1,3,0.74576632982005,0.748287179483361
"1304",28,34,2,1,104,3,1,1,3,0.929217305611188,0.844850810022506
"1305",28,40,2,1,105,2,1,1,4,0.820263003754473,0.836597402734078
"1306",28,38,2,2,106,1,1,0,3,0.59564434277978,0.617237408723217
"1307",28,33,2,2,107,2,2,1,4,0.620305365786726,0.53727872868282
"1308",28,37,2,1,108,3,1,1,3,0.96320937095386,0.953617575485958
"1309",28,23,2,2,109,3,2,1,2,0.694003862087279,0.692413943057568
"1310",28,36,2,1,110,2,1,1,3,0.631595045973808,0.52895679337312
"1311",28,23,2,2,111,1,2,1,5,0.537098175522657,0.463040681477158
"1312",28,40,2,2,112,1,2,1,4,0.367301185801752,0.319575965172523
"1313",28,38,2,2,113,3,1,0,2,1.1768224604239,1.11817923808824
"1314",28,34,2,2,114,1,2,1,4,0.241980094448616,0.274445312441758
"1315",28,40,2,1,115,3,1,1,2,1.03758748961156,1.06745110714497
"1316",28,38,2,1,116,1,1,1,5,0.341333290777567,0.418775473964697
"1317",28,33,2,2,117,2,2,1,4,0.540427517596599,0.551236840411996
"1318",28,37,2,2,118,2,2,1,3,0.551723342463617,0.549361958784941
"1319",28,23,2,1,119,3,1,1,3,1.05716681787428,1.01262520258745
"1320",28,36,2,2,120,1,2,1,5,0.520090238081046,0.494667538430592
"1321",28,23,2,2,121,3,1,0,2,1.24955246648578,1.30549357458769
"1322",28,40,2,2,122,3,2,1,3,0.754866437169631,0.700338206296089
"1323",28,38,2,1,123,3,1,1,3,0.601724677331693,0.557857976445391
"1324",28,34,2,1,124,3,2,0,1,0.845770664459983,0.813189544771377
"1325",28,40,2,2,125,2,2,1,4,0.951760769552121,0.897250186743226
"1326",28,38,2,2,126,2,2,1,3,0.484822276799,0.523615814948809
"1327",28,33,2,2,127,2,2,1,3,0.669971792491617,0.729340147641605
"1328",28,37,2,2,128,1,2,1,4,0.42476444790083,0.420201866882969
"1329",28,23,2,1,129,3,2,0,2,1.09224307509872,1.06998362190836
"1330",28,36,2,2,130,1,1,0,3,0.64855333707624,0.623645309971792
"1331",28,23,2,2,131,1,2,1,4,0.24134460357257,0.135644844752823
"1332",28,40,2,2,132,1,2,1,5,0.461119093810528,0.410466441604017
"1333",28,38,2,1,133,1,1,1,5,0.356214559227014,0.349711029137504
"1334",28,34,2,1,134,1,1,1,4,0.428559624741893,0.323750371047399
"1335",28,40,2,1,135,3,2,0,1,1.11345273794926,1.1026070044642
"1336",28,38,2,1,136,3,2,0,2,1.17710206906528,1.23539421636489
"1337",28,33,2,2,137,3,1,0,2,0.716099126016932,0.684809811408437
"1338",28,37,2,2,138,1,2,1,5,0.275853941718645,0.297448695820579
"1339",28,23,2,1,139,1,1,1,4,0.466008233512168,0.499851847581775
"1340",28,36,2,1,140,1,2,0,4,0.543306038172959,0.590518694301116
"1341",28,23,2,1,141,2,2,0,3,0.692369908640004,0.694880149879777
"1342",28,40,2,2,142,2,1,0,2,0.832729091885343,0.800301512309121
"1343",28,38,2,2,143,1,1,0,4,0.710095354198152,0.673107806435229
"1344",28,34,2,2,144,3,1,0,2,0.83811795259902,0.830152402387327
"1345",28,40,2,2,145,3,1,0,2,0.383224615819465,0.375641031830689
"1346",28,38,2,2,146,2,2,1,3,0.565142170849541,0.550213383534648
"1347",28,33,2,2,147,1,2,1,4,0.393539269301044,0.453809940397731
"1348",28,37,2,2,148,2,1,0,3,0.593277434067651,0.617289113598955
"1349",28,23,2,1,149,1,1,1,4,0.268794959782718,0.271960328991705
"1350",28,36,2,2,150,2,1,0,3,0.717251545341755,0.712194324385845
"1351",28,23,2,2,151,1,1,0,3,0.468005902259247,0.429516181740995
"1352",28,40,2,1,152,2,2,0,2,0.624553222860239,0.656341582545338
"1353",28,38,2,2,153,3,1,0,1,0.833725472086397,0.878420809472028
"1354",28,34,2,2,154,3,1,0,1,1.55207925924776,1.54607704888279
"1355",28,40,2,2,155,3,2,1,3,0.784650135390494,0.802658020781533
"1356",28,38,2,1,156,2,2,0,3,0.567440031216388,0.592589528075058
"1357",28,33,2,1,157,2,2,0,3,0.630636699690137,0.648694042833604
"1358",28,37,2,1,158,2,1,1,3,0.631440978154651,0.627522622998811
"1359",28,23,2,1,159,1,1,1,4,0.409375953789651,0.510940496748596
"1360",28,36,2,2,160,1,2,1,4,0.437558328983375,0.437822572785295
"1361",28,23,2,1,161,2,1,1,3,0.567141614440278,0.554450011373458
"1362",28,40,2,1,162,3,2,0,2,0.371420854399532,0.367100269148098
"1363",28,38,2,2,163,3,2,1,2,1.1314871459139,1.09633074819368
"1364",28,34,2,2,164,1,2,1,5,0.47461140890247,0.517858258205965
"1365",28,40,2,1,165,3,2,0,1,0.947246474417281,0.912583424256669
"1366",28,38,2,1,166,1,2,0,4,0.523085112167514,0.581942911799112
"1367",28,33,2,1,167,1,1,1,5,0.350811884728122,0.403316095898991
"1368",28,37,2,2,168,1,2,1,4,0.396740373063275,0.415067714032088
"1369",28,23,2,2,169,3,1,0,1,0.779013871365872,0.708827428582603
"1370",28,36,2,2,170,2,1,0,3,0.755380766532113,0.778177827916168
"1371",28,23,2,1,171,1,1,1,4,0.397870919549935,0.450053234442656
"1372",28,40,2,2,172,1,2,1,5,0.369536501641546,0.328680529519508
"1373",28,38,2,2,173,1,1,0,3,0.55567702946879,0.53022400014698
"1374",28,34,2,1,174,1,1,1,4,0.429906537272091,0.515940176162621
"1375",28,40,2,2,175,1,1,0,3,0.574472276149309,0.564893999292905
"1376",28,38,2,2,176,2,1,0,3,0.498611035858075,0.498651450724379
"1377",28,33,2,1,177,3,1,1,3,0.75574985405112,0.741795005538033
"1378",28,37,2,1,178,3,2,0,1,0.66167613524953,0.690225056639869
"1379",28,23,2,1,179,2,1,1,3,0.483940786374632,0.550295421210911
"1380",28,36,2,1,180,2,1,1,3,0.645879436819572,0.718552690515127
"1381",28,23,2,1,181,3,1,1,2,0.753221316076461,0.710431858540716
"1382",28,40,2,2,182,1,2,1,4,0.527334367595181,0.564179800623711
"1383",28,38,2,2,183,1,2,1,4,0.34371274197432,0.360115372930527
"1384",28,34,2,1,184,1,1,1,4,0.526008167099172,0.543023838276107
"1385",28,40,2,2,185,1,1,0,4,0.433776731473013,0.476333778634343
"1386",28,38,2,1,186,3,2,0,1,0.489718651501363,0.481893933969679
"1387",28,33,2,1,187,3,2,0,2,0.969363305825733,0.933871115088076
"1388",28,37,2,2,188,2,1,0,2,0.794585831630889,0.774399288876494
"1389",28,23,2,1,189,1,1,1,5,0.509609588927668,0.488587853081889
"1390",28,36,2,2,190,1,2,1,5,0.418380113222638,0.393385496881036
"1391",28,23,2,1,191,1,1,1,5,0.338659644032889,0.403365426882891
"1392",28,40,2,2,192,3,2,1,3,0.668440153357127,0.656201913757235
"1393",28,38,2,2,193,3,1,0,1,1.16023805806707,1.08558053553053
"1394",28,34,2,2,194,1,1,0,4,0.47887344505139,0.496377532608068
"1395",28,40,2,1,195,3,1,1,3,0.660884280605729,0.651144434038714
"1396",28,38,2,2,196,3,1,0,2,1.15423876736034,1.05675641696963
"1397",28,33,2,1,197,3,2,0,1,1.01008130383616,1.00535226730156
"1398",28,37,2,1,198,2,1,1,4,0.65253018152611,0.581371706441366
"1399",28,23,2,2,199,3,1,0,2,0.910653649217896,0.885769190122284
"1400",28,36,2,2,200,1,2,1,5,0.401174361306861,0.353685117707043
"1401",28,23,2,2,201,1,2,1,5,0.381039677632305,0.510868411514665
"1402",28,40,2,2,202,3,2,1,3,1.01997193196218,0.988662952499932
"1403",28,38,2,1,203,3,2,0,2,0.753208728036328,0.727686814062655
"1404",28,34,2,2,204,2,2,1,4,0.510976805290123,0.503609954236459
"1405",28,40,2,2,205,3,1,0,1,0.739212170081243,0.725703065864431
"1406",28,38,2,1,206,2,2,0,3,0.608080776910365,0.582533301975837
"1407",28,33,2,2,207,3,1,0,2,0.716485961111381,0.702806270188473
"1408",28,37,2,1,208,1,1,1,4,0.474035525091453,0.467261744579299
"1409",28,23,2,1,209,1,1,1,5,0.435996937005483,0.328025995171937
"1410",28,36,2,2,210,1,2,1,5,0.43636879869306,0.496079315256452
"1411",28,23,2,2,211,3,2,1,2,0.670105485406802,0.678416905475694
"1412",28,40,2,2,212,1,2,1,4,0.425897411290891,0.407222729095457
"1413",28,38,2,1,213,3,1,1,3,0.429472850275501,0.419337385062054
"1414",28,34,2,1,214,2,2,0,3,0.947829435951752,1.06400756520807
"1415",28,40,2,1,215,3,1,1,3,0.606418900000777,0.609821286115149
"1416",28,38,2,1,216,3,2,0,1,0.645416876573242,0.671509109607198
"1417",28,33,2,2,217,1,2,1,4,0.360404454495861,0.338358672915154
"1418",28,37,2,1,218,3,1,1,3,0.674373983840154,0.651544386338644
"1419",28,23,2,2,219,2,2,1,4,0.598210516600797,0.605783144991017
"1420",28,36,2,1,220,2,2,0,3,0.690773718927742,0.702381270201889
"1421",28,23,2,2,221,1,2,1,5,0.427598932927715,0.467844006296603
"1422",28,40,2,2,222,3,2,1,3,0.817331052808539,0.811845838176186
"1423",28,38,2,2,223,3,1,0,2,0.423287478150769,0.579480483038105
"1424",28,34,2,1,224,1,1,1,5,0.472251713126066,0.482735416764106
"1425",28,40,2,1,225,2,2,0,3,0.734568747454663,0.672703504063844
"1426",28,38,2,1,226,2,2,0,3,0.660191716001777,0.556688282947323
"1427",28,33,2,2,227,3,1,0,2,1.22203418013782,1.2504548461657
"1428",28,37,2,2,228,2,2,1,3,0.810383796001016,0.790667446048807
"1429",28,23,2,1,229,1,1,1,4,0.304222152071533,0.368586923272548
"1430",28,36,2,1,230,2,1,1,3,0.761860026337061,0.687786368599053
"1431",28,23,2,1,231,2,2,0,3,0.994856214857084,1.09260160598818
"1432",28,40,2,2,232,1,2,1,5,0.431738262050331,0.498553322781548
"1433",28,38,2,1,233,2,1,1,4,0.499642418910231,0.425969636279721
"1434",28,34,2,1,234,2,1,1,3,0.538101592700067,0.654794133252836
"1435",28,40,2,2,235,3,2,1,3,0.764861760626791,0.827954055108357
"1436",28,38,2,1,236,3,1,1,3,0.888862524396246,0.857250999937243
"1437",28,33,2,2,237,2,2,1,3,0.651413974774578,0.643154245559816
"1438",28,37,2,2,238,1,2,1,4,0.438215683023158,0.394372969957306
"1439",28,23,2,1,239,3,1,1,2,0.787768581071912,0.766089499229241
"1440",28,36,2,1,240,3,1,1,3,0.971316068417144,0.879377879457395
"1441",27,25,1,1,1,2,2,0,3,0.939298698398282,0.953219321851019
"1442",27,31,1,1,2,1,1,1,4,0.318372027483652,0.280992528495976
"1443",27,27,1,2,3,1,2,1,5,0.515325696154003,0.568565710791299
"1444",27,37,1,1,4,2,1,1,3,0.65715362549688,0.694216685326828
"1445",27,39,1,2,5,3,2,1,2,1.03119633075904,1.05834173908998
"1446",27,40,1,1,6,3,2,0,1,0.875310917582259,0.911782163919528
"1447",27,22,1,2,7,3,2,1,2,0.891183349388994,0.894102539399112
"1448",27,30,1,2,8,1,2,1,5,0.306543988111433,0.333869848625295
"1449",27,24,1,1,9,3,1,1,3,0.708721006723383,0.632370335461155
"1450",27,22,1,1,10,2,1,1,4,0.756819732169651,0.828315385521117
"1451",27,25,1,2,11,2,2,1,3,0.709371209490815,0.808693892174755
"1452",27,31,1,2,12,3,2,1,2,1.04635721567326,1.07420975268232
"1453",27,27,1,2,13,2,2,1,4,0.684993180190361,0.657215853959128
"1454",27,37,1,2,14,2,2,1,4,0.707370616505126,0.640411004858116
"1455",27,39,1,1,15,1,1,1,5,0.37799270312916,0.454710337668092
"1456",27,40,1,1,16,2,2,0,3,0.848415372864849,0.810969932126846
"1457",27,22,1,2,17,3,2,1,2,1.29088226345588,1.26309899476331
"1458",27,30,1,1,18,1,1,1,5,0.419643487613601,0.335697184627153
"1459",27,24,1,2,19,1,2,1,4,0.467283310198841,0.421443895355882
"1460",27,22,1,2,20,2,2,1,3,0.825183921099073,0.823687065418125
"1461",27,25,1,1,21,3,2,0,1,1.29481953758349,1.23349123720576
"1462",27,31,1,2,22,3,2,1,3,0.636934170096504,0.710134944299264
"1463",27,27,1,2,23,1,2,1,5,0.280972629882071,0.274156994456859
"1464",27,37,1,2,24,3,1,0,1,1.35809502266647,1.29623019097945
"1465",27,39,1,1,25,1,1,1,5,0.485303820755257,0.463944468777288
"1466",27,40,1,1,26,1,1,1,4,0.459761691360924,0.619658370199169
"1467",27,22,1,1,27,2,1,1,4,0.781636573056347,0.744987453213019
"1468",27,30,1,1,28,2,2,0,2,0.611132548844047,0.642624460329219
"1469",27,24,1,2,29,1,2,1,4,0.402709216485408,0.379655847539197
"1470",27,22,1,2,30,2,2,1,3,0.51596108715723,0.514190372508476
"1471",27,25,1,1,31,1,2,0,4,0.647616124265027,0.716134565607583
"1472",27,31,1,2,32,2,2,1,4,0.522784719842341,0.546231102157597
"1473",27,27,1,1,33,3,1,1,2,0.647896740199011,0.559931716463764
"1474",27,37,1,1,34,3,1,1,2,0.993275263706906,0.973670198686284
"1475",27,39,1,1,35,1,1,1,4,0.520956501953335,0.550875563995173
"1476",27,40,1,1,36,2,2,0,3,0.830430203424238,0.836265603102003
"1477",27,22,1,1,37,1,1,1,5,0.392786783281097,0.400371378843112
"1478",27,30,1,2,38,1,2,1,4,0.280449693317788,0.234848407117836
"1479",27,24,1,2,39,1,2,1,5,0.579952837091949,0.652736700365645
"1480",27,22,1,2,40,2,2,1,4,0.626349691153568,0.627467497862917
"1481",27,25,1,2,41,1,2,1,5,0.428465173538803,0.41028757202311
"1482",27,31,1,2,42,1,2,1,5,0.436159688906187,0.502062386361276
"1483",27,27,1,1,43,1,1,1,5,0.375278396490581,0.393688911046382
"1484",27,37,1,1,44,2,1,1,3,0.529906336988746,0.494468803401339
"1485",27,39,1,2,45,1,2,1,4,0.449444808451581,0.424920706963833
"1486",27,40,1,1,46,3,2,0,1,1.09731691199141,1.18250275866091
"1487",27,22,1,1,47,1,1,1,4,0.462559020397235,0.573147547496106
"1488",27,30,1,1,48,1,2,0,3,0.523092832613281,0.467245271041607
"1489",27,24,1,2,49,3,1,0,1,1.19429480629188,1.22934807282478
"1490",27,22,1,2,50,2,1,0,2,1.12751629638622,1.26664503666112
"1491",27,25,1,1,51,3,1,1,2,0.973051156721351,0.883607403184878
"1492",27,31,1,2,52,3,2,1,2,1.04833124107556,1.04557205878419
"1493",27,27,1,1,53,1,1,1,5,0.390653161731765,0.446639040528094
"1494",27,37,1,1,54,3,2,0,2,0.818093090357281,0.828917946483481
"1495",27,39,1,2,55,3,1,0,1,0.909481417371011,0.856342445783592
"1496",27,40,1,1,56,2,1,1,3,0.626863981839195,0.695819625259562
"1497",27,22,1,2,57,1,2,1,5,0.404635105964427,0.384660235916072
"1498",27,30,1,2,58,1,1,0,3,0.449830331699003,0.401132384193501
"1499",27,24,1,2,59,3,2,1,3,0.392647538608452,0.278200382120649
"1500",27,22,1,2,60,3,2,1,2,1.16986075411934,1.17124944091231
"1501",27,25,1,2,61,3,1,0,2,0.612186057906056,0.716199374337129
"1502",27,31,1,2,62,3,1,0,1,0.688087499461323,0.70178108018346
"1503",27,27,1,1,63,1,2,0,4,0.508850435150578,0.529312892572655
"1504",27,37,1,2,64,1,2,1,4,0.367066239905981,0.368196950908432
"1505",27,39,1,1,65,2,1,1,4,0.955057543875756,1.00655577289028
"1506",27,40,1,2,66,3,2,1,2,0.896537257208622,0.937804587520531
"1507",27,22,1,1,67,2,1,1,4,0.582085080970661,0.611061508192962
"1508",27,30,1,2,68,3,2,1,2,1.20391461605008,1.18760148744343
"1509",27,24,1,2,69,1,1,0,4,0.642284679518438,0.639204392197825
"1510",27,22,1,1,70,2,1,1,4,0.445723569507259,0.355005721073051
"1511",27,25,1,2,71,3,1,0,1,0.896670636280763,0.838350469416067
"1512",27,31,1,1,72,2,2,0,2,0.459709710230204,0.434369594638812
"1513",27,27,1,2,73,3,1,0,2,0.815192150753188,0.89818044790808
"1514",27,37,1,1,74,2,1,1,4,0.331115940887558,0.381552314299496
"1515",27,39,1,2,75,3,1,0,2,0.890894621066351,0.902663726311005
"1516",27,40,1,1,76,3,2,0,2,0.55062871073681,0.421443703159989
"1517",27,22,1,1,77,2,2,0,2,0.735466147546535,0.687806761351376
"1518",27,30,1,2,78,1,2,1,4,0.590021164425022,0.486058639204125
"1519",27,24,1,2,79,3,1,0,1,1.1527952397558,1.08569679715966
"1520",27,22,1,2,80,1,2,1,4,0.439066431005885,0.444004697772874
"1521",27,25,1,1,81,1,1,1,4,0.463788930685532,0.516925877905363
"1522",27,31,1,1,82,3,1,1,2,0.903479985969743,0.890667860142316
"1523",27,27,1,2,83,2,2,1,3,0.639510174852603,0.56445495293477
"1524",27,37,1,2,84,2,2,1,4,0.678108629892658,0.658306013995917
"1525",27,39,1,1,85,2,1,1,4,0.591737664760067,0.614126949022175
"1526",27,40,1,1,86,1,1,1,5,0.330642071764409,0.300920416861678
"1527",27,22,1,1,87,3,2,0,2,1.10725217087423,1.07592691366409
"1528",27,30,1,1,88,3,1,1,3,0.960463666334746,0.943258759446944
"1529",27,24,1,1,89,3,1,1,3,0.499989268141344,0.515153530600605
"1530",27,22,1,1,90,3,2,0,2,1.6760135791028,1.75997119359914
"1531",27,25,1,2,91,2,1,0,2,0.645217457450758,0.617985491430685
"1532",27,31,1,1,92,3,1,1,3,0.6006612723351,0.631867508274439
"1533",27,27,1,1,93,3,2,0,1,1.02477498480218,0.946362823296938
"1534",27,37,1,1,94,1,1,1,4,0.500226817716059,0.442591928765357
"1535",27,39,1,1,95,1,1,1,4,0.430334787247629,0.392246851781044
"1536",27,40,1,2,96,3,1,0,2,0.604494162761777,0.554763067762947
"1537",27,22,1,1,97,1,1,1,5,0.415580582435802,0.419893070034011
"1538",27,30,1,2,98,1,2,1,5,0.575909187702438,0.549183110612584
"1539",27,24,1,2,99,2,1,0,3,0.673198888369111,0.611588209506111
"1540",27,22,1,2,100,2,2,1,3,0.553833130720589,0.541944169213536
"1541",27,25,1,1,101,1,1,1,4,0.258199492238338,0.234456498979913
"1542",27,31,1,2,102,3,1,0,1,1.1522416200077,1.15658447582461
"1543",27,27,1,2,103,2,2,1,4,0.612766553185744,0.644605438801934
"1544",27,37,1,1,104,3,2,0,2,1.02118908260329,1.01266294589282
"1545",27,39,1,2,105,3,1,0,2,1.44916228227511,1.50877855048913
"1546",27,40,1,2,106,1,2,1,4,0.475455056006168,0.594487598764561
"1547",27,22,1,2,107,1,2,1,5,0.388077816901157,0.252225058710889
"1548",27,30,1,1,108,1,1,1,5,0.504327570501931,0.460286913853592
"1549",27,24,1,2,109,2,1,0,3,0.671838783491154,0.694364834987178
"1550",27,22,1,1,110,1,1,1,5,0.482461620878904,0.484636957008517
"1551",27,25,1,2,111,1,2,1,5,0.385459588880904,0.403190812763089
"1552",27,31,1,2,112,2,1,0,3,0.574281750888178,0.552150768884849
"1553",27,27,1,1,113,2,1,1,3,0.633580060462285,0.660990069372896
"1554",27,37,1,2,114,1,2,1,5,0.431079375366849,0.47734441498711
"1555",27,39,1,2,115,1,2,1,5,0.419459087836081,0.403486194598809
"1556",27,40,1,2,116,1,2,1,5,0.244513419151503,0.196378803485493
"1557",27,22,1,2,117,1,2,1,4,0.431658141395776,0.371307213138973
"1558",27,30,1,1,118,1,1,1,5,0.38061747420666,0.327988563042758
"1559",27,24,1,2,119,2,1,0,2,0.749442792395405,0.723545025641196
"1560",27,22,1,1,120,1,2,0,3,0.512432765420446,0.519664103565701
"1561",27,25,1,2,121,3,2,1,3,0.598693363308907,0.614710266446047
"1562",27,31,1,1,122,2,1,1,3,0.743265589825818,0.740380055354804
"1563",27,27,1,2,123,1,2,1,5,0.361129070032434,0.360782603406991
"1564",27,37,1,2,124,3,1,0,1,0.967979053119883,1.02190568116846
"1565",27,39,1,1,125,3,1,1,2,1.06084981625038,1.07019189115547
"1566",27,40,1,1,126,2,1,1,3,0.770693159555276,0.657642981717682
"1567",27,22,1,2,127,1,2,1,5,0.522833489155656,0.46409620655457
"1568",27,30,1,2,128,2,2,1,4,0.521501402108969,0.547057602969431
"1569",27,24,1,1,129,1,1,1,4,0.381180782694087,0.342013469849319
"1570",27,22,1,2,130,2,2,1,4,0.761942709998091,0.783564592817306
"1571",27,25,1,2,131,3,1,0,1,0.552310847291883,0.508260617446201
"1572",27,31,1,2,132,1,2,1,5,0.492423848186282,0.447329298191629
"1573",27,27,1,2,133,1,1,0,3,0.50474683497791,0.591396281812274
"1574",27,37,1,1,134,1,1,1,5,0.360243438023714,0.317966544713767
"1575",27,39,1,1,135,2,1,1,4,0.826066153871945,0.787462347389237
"1576",27,40,1,1,136,2,1,1,4,0.536402565042822,0.579418690952895
