"","subj_no","age","group","stim","trial","difficulty","resp","corr","conf","RT_day1","RT_day2"
"1",34,19,2,1,1,1,1,1,4,0.478193285325443,0.48714568395728
"2",34,30,2,1,2,2,1,1,3,0.612660452842999,0.587451638037285
"3",34,37,2,2,3,2,2,1,3,0.830534535057132,0.837158001786943
"4",34,29,2,1,4,3,1,1,2,0.995351495792964,0.94263017429073
"5",34,26,2,2,5,2,2,1,3,0.631134804517438,0.621535535494859
"6",34,21,2,1,6,3,2,0,1,0.82408023217358,0.794767160990758
"7",34,20,2,1,7,1,1,1,4,0.506466772683101,0.518571936260853
"8",34,35,2,2,8,1,1,0,3,0.642630358731463,0.650413718698759
"9",34,24,2,1,9,1,1,1,5,0.370253960557938,0.230332178844482
"10",34,32,2,1,10,3,2,0,2,1.19460232911141,1.16610245517126
"11",34,19,2,1,11,2,1,1,3,0.665388083728624,0.71330703668882
"12",34,30,2,1,12,1,2,0,3,0.795931587195264,0.69511531375646
"13",34,37,2,2,13,3,1,0,2,1.0078778365657,0.989698420116381
"14",34,29,2,2,14,2,1,0,3,0.801494851756182,0.858222358640854
"15",34,26,2,1,15,3,2,0,2,1.25315802035363,1.18914750363814
"16",34,21,2,2,16,2,1,0,2,0.905370932285862,0.85963137286315
"17",34,20,2,2,17,1,2,1,4,0.382723678947547,0.34090505636812
"18",34,35,2,1,18,3,1,1,3,0.689225269814596,0.733540599557291
"19",34,24,2,1,19,3,1,1,3,0.73335172219711,0.740686916672385
"20",34,32,2,1,20,3,2,0,2,1.08075549519567,1.11839393197543
"21",34,19,2,1,21,3,1,1,2,0.810970242482888,0.808081163117626
"22",34,30,2,2,22,2,2,1,3,0.611953794292673,0.73334657073137
"23",34,37,2,2,23,1,2,1,4,0.517193632240681,0.516683252315607
"24",34,29,2,1,24,1,1,1,5,0.402802875377147,0.320209370287283
"25",34,26,2,1,25,1,2,0,3,0.712345967146838,0.767672211723778
"26",34,21,2,2,26,3,1,0,1,0.44433805541745,0.450239555851457
"27",34,20,2,1,27,1,1,1,4,0.315643189059662,0.345903903583049
"28",34,35,2,2,28,3,1,0,2,0.661356375998398,0.675922267183518
"29",34,24,2,2,29,2,2,1,4,0.611678136104677,0.626519974046099
"30",34,32,2,2,30,3,2,1,3,0.507784637608345,0.68979593001103
"31",34,19,2,2,31,1,2,1,4,0.390176367287046,0.369983925517738
"32",34,30,2,1,32,1,1,1,5,0.414802925314136,0.311795712869306
"33",34,37,2,1,33,2,2,0,3,0.911611551819429,0.915778651376958
"34",34,29,2,1,34,2,2,0,3,0.571907685428059,0.532030898986798
"35",34,26,2,1,35,1,2,0,3,0.695863924343489,0.636184245105845
"36",34,21,2,2,36,2,1,0,2,0.63033116658177,0.652909707094291
"37",34,20,2,2,37,3,1,0,2,0.985963256836394,0.983580395120907
"38",34,35,2,2,38,3,1,0,1,1.69610220865424,1.70057907589145
"39",34,24,2,2,39,2,1,0,2,0.719644882159312,0.741353377766951
"40",34,32,2,2,40,2,2,1,3,0.616648164548709,0.585841411490769
"41",34,19,2,2,41,2,2,1,4,0.619201541108388,0.548348456316381
"42",34,30,2,2,42,2,1,0,3,0.69824262992831,0.695068632326669
"43",34,37,2,1,43,2,2,0,3,0.859934319541645,0.848577354121126
"44",34,29,2,2,44,2,2,1,4,0.461179263688353,0.46038380035549
"45",34,26,2,2,45,1,2,1,4,0.450675744184668,0.408792679522581
"46",34,21,2,2,46,1,2,1,5,0.397524176528799,0.37365117814624
"47",34,20,2,2,47,3,2,1,2,1.16368108765702,1.24768636326095
"48",34,35,2,1,48,1,1,1,4,0.480299844181401,0.515168621722919
"49",34,24,2,2,49,3,1,0,1,1.36148062157893,1.39726211826303
"50",34,32,2,2,50,3,2,1,3,0.504613187697632,0.52899077033947
"51",34,19,2,2,51,3,2,1,2,0.682136199172324,0.631929798322674
"52",34,30,2,1,52,1,1,1,4,0.219144210438124,0.253846050093776
"53",34,37,2,2,53,3,1,0,2,1.60889681383135,1.57679692198178
"54",34,29,2,2,54,2,1,0,3,0.572014032128772,0.640592649713111
"55",34,26,2,1,55,3,2,0,1,1.10599126573985,1.14141453816376
"56",34,21,2,1,56,3,2,0,2,0.693907857541567,0.794600862528894
"57",34,20,2,1,57,2,1,1,3,0.377150874878265,0.363532397166446
"58",34,35,2,2,58,1,2,1,4,0.459427717572293,0.408557654497061
"59",34,24,2,2,59,3,1,0,2,1.0838354362245,1.02014514463793
"60",34,32,2,1,60,3,2,0,2,1.03255962746937,1.04054133481289
"61",34,19,2,2,61,3,1,0,1,1.38651122382945,1.41186453179479
"62",34,30,2,2,62,2,2,1,3,0.667180400068465,0.654035680025284
"63",34,37,2,2,63,3,1,0,1,1.27900752203533,1.19140603180876
"64",34,29,2,1,64,1,1,1,5,0.439997304431621,0.34316111932168
"65",34,26,2,1,65,3,2,0,1,0.464395662846437,0.414212551113594
"66",34,21,2,1,66,3,1,1,2,0.868942287175137,0.906985066324187
"67",34,20,2,2,67,2,1,0,3,0.853766789007134,0.876171982038043
"68",34,35,2,1,68,1,1,1,4,0.352591743352959,0.493000482539402
"69",34,24,2,1,69,3,2,0,2,0.963907520439821,0.861733998926077
"70",34,32,2,1,70,2,1,1,3,0.516617067321602,0.562703690215557
"71",34,19,2,1,71,1,2,0,3,0.529075891659273,0.549022593926311
"72",34,30,2,1,72,1,1,1,4,0.353157454194036,0.360627230643058
"73",34,37,2,1,73,2,2,0,2,0.693913853504575,0.682977987028098
"74",34,29,2,2,74,3,2,1,3,1.02656127956748,1.07328570671195
"75",34,26,2,1,75,3,2,0,1,1.48438915263909,1.33784797628666
"76",34,21,2,2,76,1,1,0,3,0.639793651742215,0.619682097777327
"77",34,20,2,1,77,1,2,0,4,0.556369388293135,0.617074479576742
"78",34,35,2,1,78,1,1,1,5,0.489464090766255,0.460484601254446
"79",34,24,2,2,79,1,2,1,5,0.529350819631574,0.487453295593312
"80",34,32,2,2,80,1,1,0,3,0.579534154807506,0.603676594297993
"81",34,19,2,1,81,1,1,1,4,0.549839375866312,0.489099135430835
"82",34,30,2,1,82,3,2,0,1,0.839786836570975,0.839494734256455
"83",34,37,2,1,83,2,1,1,4,0.643756758821411,0.666041965156507
"84",34,29,2,1,84,2,2,0,3,0.577009403439776,0.500603233967323
"85",34,26,2,1,85,2,2,0,3,0.583256815574733,0.614437978699129
"86",34,21,2,2,86,3,2,1,3,0.622649356094157,0.656909239177792
"87",34,20,2,2,87,3,2,1,2,0.665489589205926,0.626586682404905
"88",34,35,2,2,88,1,2,1,5,0.344107946539425,0.286485932542164
"89",34,24,2,1,89,3,2,0,2,1.25075502765146,1.23269894119931
"90",34,32,2,1,90,2,1,1,4,0.580083519228806,0.593815289693183
"91",34,19,2,1,91,1,2,0,4,0.506174139158274,0.520387869370452
"92",34,30,2,2,92,3,1,0,2,1.57332292916347,1.52301612383107
"93",34,37,2,1,93,3,1,1,2,1.01943839324674,0.986295753067673
"94",34,29,2,1,94,2,2,0,3,0.543997067722763,0.629472863194037
"95",34,26,2,1,95,2,2,0,3,0.617699373752191,0.604747686818889
"96",34,21,2,2,96,2,1,0,3,0.722230314838,0.830264984459459
"97",34,20,2,2,97,1,2,1,4,0.403280996041852,0.351866619122567
"98",34,35,2,1,98,2,1,1,3,0.521268470222979,0.525914824853801
"99",34,24,2,2,99,1,2,1,5,0.19758441812219,0.195671900573913
"100",34,32,2,1,100,2,1,1,3,0.689618059693388,0.697470595425107
"101",34,19,2,2,101,3,1,0,2,1.38256543359455,1.37886633862439
"102",34,30,2,1,102,1,1,1,5,0.369394593929311,0.338663787147675
"103",34,37,2,2,103,3,2,1,2,0.633560906296036,0.585679873218667
"104",34,29,2,1,104,3,2,0,2,1.49966732096111,1.53079529420689
"105",34,26,2,1,105,1,2,0,3,0.695444438666612,0.757965938251164
"106",34,21,2,2,106,3,1,0,2,1.19193867858299,1.17838369519711
"107",34,20,2,2,107,3,2,1,3,0.717610794819272,0.741821982069115
"108",34,35,2,2,108,3,2,1,3,0.766391983473768,0.804932358111122
"109",34,24,2,2,109,1,2,1,4,0.432090810926178,0.429303999071601
"110",34,32,2,1,110,1,2,0,4,0.514610107841054,0.632194683957235
"111",34,19,2,2,111,1,2,1,4,0.447448715915862,0.444538146704389
"112",34,30,2,2,112,2,1,0,3,0.746602361823154,0.782868896424863
"113",34,37,2,2,113,1,1,0,4,0.766248080541978,0.806380531794453
"114",34,29,2,1,114,1,1,1,4,0.424134152269189,0.417761995089984
"115",34,26,2,2,115,2,2,1,3,0.556594980281113,0.546403571857783
"116",34,21,2,2,116,2,1,0,3,0.7066242429954,0.738302861432684
"117",34,20,2,2,117,3,1,0,1,1.42423941298856,1.37121719478499
"118",34,35,2,1,118,2,2,0,3,0.637587536540611,0.609054181408022
"119",34,24,2,2,119,1,1,0,4,0.696864835551205,0.684703073804222
"120",34,32,2,1,120,3,2,0,1,1.40422569786917,1.42938548546846
"121",34,19,2,2,121,3,2,1,2,1.0280264980735,1.06536826478117
"122",34,30,2,1,122,2,1,1,3,0.349073487701838,0.3631121872002
"123",34,37,2,1,123,1,1,1,4,0.339509112303229,0.344802463178127
"124",34,29,2,1,124,2,1,1,3,0.558959146875393,0.621172230741876
"125",34,26,2,1,125,3,2,0,1,0.311878364711389,0.379624408905069
"126",34,21,2,2,126,2,1,0,3,0.732147468345544,0.763768397404382
"127",34,20,2,1,127,2,2,0,2,0.729496112071637,0.693030012136704
"128",34,35,2,2,128,1,2,1,5,0.411391893443732,0.436057018416305
"129",34,24,2,2,129,2,2,1,3,0.706721008132861,0.707441061604277
"130",34,32,2,2,130,3,2,1,3,0.967708027615723,0.981708486988868
"131",34,19,2,2,131,2,1,0,3,0.666653020921411,0.627804228976783
"132",34,30,2,1,132,2,1,1,4,0.66241117208959,0.700129792021604
"133",34,37,2,1,133,3,2,0,1,0.961344646902885,0.959436395320991
"134",34,29,2,2,134,1,2,1,4,0.424302270593412,0.473312498667439
"135",34,26,2,2,135,3,2,1,2,0.750776710023974,0.756695898452528
"136",34,21,2,2,136,2,2,1,4,0.646352539693996,0.672771163896925
"137",34,20,2,2,137,2,1,0,3,0.705846411310446,0.646695433210524
"138",34,35,2,1,138,1,1,1,4,0.267480220342737,0.305288733405466
"139",34,24,2,2,139,3,1,0,2,1.62647815100987,1.54640921196055
"140",34,32,2,1,140,2,1,1,3,0.384752093368538,0.364818749917677
"141",34,19,2,2,141,2,2,1,3,0.704047176589927,0.641229607981068
"142",34,30,2,2,142,2,2,1,3,0.572467172202551,0.617196971455059
"143",34,37,2,2,143,1,2,1,4,0.379386460076618,0.364798671007491
"144",34,29,2,2,144,1,2,1,4,0.416845501073087,0.433618248600007
"145",34,26,2,1,145,1,1,1,4,0.390187873459638,0.413040570620366
"146",34,21,2,2,146,3,2,1,3,0.847213533700829,0.84168984739506
"147",34,20,2,2,147,2,2,1,3,0.687744635882134,0.723180381866971
"148",34,35,2,1,148,1,2,0,4,0.546176471348428,0.560678141217135
"149",34,24,2,2,149,2,2,1,4,0.770269073193735,0.715177415151114
"150",34,32,2,2,150,1,2,1,5,0.408182906426601,0.421465301052632
"151",34,19,2,2,151,3,2,1,2,0.991050699854485,1.04821599652851
"152",34,30,2,1,152,2,1,1,3,0.517680036438836,0.550272503818032
"153",34,37,2,2,153,3,2,1,2,0.949170268883787,1.02601922320034
"154",34,29,2,2,154,1,2,1,5,0.454180212482288,0.384852360957978
"155",34,26,2,1,155,1,1,1,5,0.292516235622812,0.248601015462761
"156",34,21,2,2,156,3,2,1,3,0.664109561333358,0.673381517754128
"157",34,20,2,2,157,2,2,1,4,0.551959910777212,0.58187201842419
"158",34,35,2,1,158,2,2,0,2,0.283258921539029,0.269334457334734
"159",34,24,2,2,159,2,2,1,3,0.613439995050471,0.655426691991008
"160",34,32,2,2,160,2,1,0,2,0.549659200634151,0.586862727603438
"161",34,19,2,2,161,1,2,1,4,0.389606218476397,0.366037447671009
"162",34,30,2,1,162,1,2,0,4,0.628553634864223,0.624319020962913
"163",34,37,2,1,163,2,2,0,2,0.858922151067255,0.822944312073529
"164",34,29,2,1,164,1,1,1,4,0.23050496898681,0.243106810979359
"165",34,26,2,1,165,2,1,1,3,0.447567919960448,0.401907238353906
"166",34,21,2,1,166,2,2,0,3,0.536771374507837,0.515450926951831
"167",34,20,2,2,167,2,1,0,2,0.479371814515973,0.496165486350206
"168",34,35,2,2,168,1,2,1,5,0.411944679629934,0.446493579208426
"169",34,24,2,1,169,1,1,1,5,0.33371224765349,0.277935487705113
"170",34,32,2,1,170,3,1,1,2,1.01573023100716,1.0191161330647
"171",34,19,2,1,171,1,2,0,3,0.505089570138616,0.520314930457276
"172",34,30,2,1,172,2,1,1,3,0.526160741767251,0.48761508433423
"173",34,37,2,2,173,2,2,1,3,0.628957645628248,0.626876779983988
"174",34,29,2,1,174,2,2,0,2,0.529664231024843,0.487747376310193
"175",34,26,2,2,175,2,1,0,3,0.677470356764474,0.759118813652467
"176",34,21,2,1,176,3,2,0,2,1.14205669700319,1.19440939001863
"177",34,20,2,2,177,2,1,0,3,0.729039458343815,0.677832192754376
"178",34,35,2,1,178,2,1,1,3,0.828158028077301,0.847779008170144
"179",34,24,2,1,179,2,2,0,3,0.213561007451721,0.15591858592728
"180",34,32,2,1,180,1,1,1,5,0.579080264105021,0.630348145851886
"181",34,19,2,1,181,1,1,1,4,0.346841504864607,0.35657807596038
"182",34,30,2,1,182,1,1,1,4,0.310846806626862,0.290151582202931
"183",34,37,2,1,183,2,1,1,4,0.500296078225555,0.471406494537179
"184",34,29,2,1,184,2,1,1,4,0.585495348704184,0.620523889199986
"185",34,26,2,2,185,3,1,0,2,0.884540713922852,0.817398582459141
"186",34,21,2,1,186,1,1,1,5,0.421213947121693,0.396575458100453
"187",34,20,2,1,187,3,1,1,2,0.775936254347997,0.71841196249883
"188",34,35,2,1,188,1,1,1,5,0.436052393865494,0.378656301769213
"189",34,24,2,2,189,2,2,1,4,0.689856601737055,0.739710996846521
"190",34,32,2,1,190,1,1,1,4,0.492218238962083,0.45677819720291
"191",34,19,2,2,191,1,1,0,4,0.49787147122153,0.563691413858223
"192",34,30,2,1,192,3,2,0,2,1.40700757020204,1.38406763049676
"193",34,37,2,1,193,3,1,1,2,1.07390944439464,1.11185402288916
"194",34,29,2,1,194,1,1,1,5,0.283059371282204,0.278324871138108
"195",34,26,2,2,195,2,2,1,4,0.716978963649018,0.598588230898703
"196",34,21,2,1,196,1,2,0,3,0.453971748045138,0.526241856224952
"197",34,20,2,1,197,1,1,1,4,0.380868512303115,0.338488795555264
"198",34,35,2,2,198,1,2,1,4,0.47589693080899,0.525187491076933
"199",34,24,2,1,199,2,2,0,3,0.572171217184552,0.655318000822462
"200",34,32,2,2,200,3,1,0,2,0.810356029529405,0.699236378579841
"201",34,19,2,1,201,1,1,1,5,0.326712060673792,0.281829045219818
"202",34,30,2,1,202,1,2,0,3,0.641705146282654,0.679052909767687
"203",34,37,2,2,203,2,2,1,4,0.593814511737253,0.695661469451618
"204",34,29,2,1,204,2,1,1,4,0.688445426910073,0.571214056896015
"205",34,26,2,2,205,1,2,1,5,0.494521884814405,0.450985859562219
"206",34,21,2,1,206,3,2,0,2,1.06006944803414,1.12991390537421
"207",34,20,2,1,207,3,2,0,1,0.882091725403763,0.863781022160542
"208",34,35,2,2,208,2,1,0,2,0.74381288049773,0.75416107445734
"209",34,24,2,1,209,2,2,0,3,0.74899344293872,0.743741568250198
"210",34,32,2,1,210,3,2,0,2,1.23985939170446,1.25706163684154
"211",34,19,2,2,211,3,2,1,2,0.603418594853061,0.600548616806706
"212",34,30,2,2,212,3,2,1,2,1.08192196079568,1.09709222666312
"213",34,37,2,2,213,2,1,0,3,0.506233031960275,0.452786929278747
"214",34,29,2,2,214,3,1,0,1,1.12931695260973,1.06665256881013
"215",34,26,2,2,215,3,2,1,3,0.801621648332555,0.773644962136821
"216",34,21,2,1,216,3,2,0,1,0.900388400117167,0.869243693837674
"217",34,20,2,1,217,3,1,1,3,0.927717628645557,0.925639065432403
"218",34,35,2,2,218,1,1,0,3,0.45814649521535,0.556626544284031
"219",34,24,2,1,219,2,1,1,3,0.546367812966918,0.509540698655856
"220",34,32,2,2,220,1,2,1,5,0.260964758162183,0.162673907681705
"221",34,19,2,1,221,2,1,1,4,0.61368956416215,0.66039297559213
"222",34,30,2,2,222,3,2,1,3,0.756744321511267,0.764855941243137
"223",34,37,2,2,223,3,2,1,3,0.76831041858485,0.776183324910766
"224",34,29,2,2,224,3,1,0,1,0.517264180299208,0.435732800044117
"225",34,26,2,2,225,2,1,0,3,0.676352671151858,0.732959073625061
"226",34,21,2,2,226,2,2,1,3,0.634838117239348,0.685051784896728
"227",34,20,2,2,227,1,2,1,5,0.40651894404379,0.462945958630362
"228",34,35,2,1,228,3,1,1,2,0.526156598531302,0.514853626105471
"229",34,24,2,2,229,3,2,1,2,0.978919376599781,1.08030483900396
"230",34,32,2,2,230,3,2,1,3,0.696488789478448,0.704164076090553
"231",34,19,2,1,231,3,2,0,2,1.24245996207404,1.23628661779526
"232",34,30,2,1,232,3,2,0,1,0.788531104390565,0.821499565282781
"233",34,37,2,1,233,1,1,1,5,0.408906439229989,0.580868254463755
"234",34,29,2,2,234,1,2,1,4,0.350296113618044,0.333129525989683
"235",34,26,2,1,235,1,1,1,4,0.386722201216784,0.418630263857269
"236",34,21,2,2,236,1,2,1,5,0.399471346113954,0.353138639625089
"237",34,20,2,1,237,3,2,0,1,0.555512416102424,0.596887084191731
"238",34,35,2,2,238,1,2,1,4,0.487410400697667,0.569017628388839
"239",34,24,2,2,239,1,2,1,4,0.3910483901827,0.363670549520075
"240",34,32,2,1,240,3,2,0,2,0.300813794583504,0.316865089839506
"241",33,30,1,2,1,1,1,0,3,0.499203479299172,0.45496595397586
"242",33,39,1,2,2,3,1,0,1,0.718465216133718,0.754909969771603
"243",33,27,1,2,3,3,1,0,2,0.712877576358449,0.68753726378674
"244",33,26,1,1,4,2,1,1,3,0.638059045214233,0.568655417371757
"245",33,28,1,1,5,2,1,1,4,0.388788685970838,0.318750109926897
"246",33,28,1,1,6,3,2,0,2,1.28143106316824,1.36271854388214
"247",33,23,1,1,7,1,1,1,5,0.364590822424005,0.355009401839583
"248",33,20,1,2,8,1,2,1,5,0.531267123081828,0.530133708728847
"249",33,39,1,1,9,1,1,1,5,0.413005143839451,0.35323731535483
"250",33,24,1,1,10,1,1,1,5,0.397411291826959,0.372845294049824
"251",33,30,1,2,11,1,2,1,4,0.408349324675142,0.427422798409913
"252",33,39,1,2,12,2,2,1,3,0.603131049963991,0.617888956275961
"253",33,27,1,2,13,2,1,0,3,0.929040541162604,1.06862544065998
"254",33,26,1,2,14,2,2,1,3,0.49225815792384,0.541652309230528
"255",33,28,1,1,15,2,2,0,2,0.62371412213334,0.562753097665618
"256",33,28,1,1,16,3,2,0,2,1.59919308986112,1.70741364142515
"257",33,23,1,2,17,3,2,1,2,0.956992262074069,0.97164273597305
"258",33,20,1,1,18,3,1,1,3,0.629024818976091,0.573114548796289
"259",33,39,1,1,19,2,1,1,3,0.425631084935034,0.424045201508454
"260",33,24,1,1,20,2,2,0,2,0.614479878409873,0.592024782291467
"261",33,30,1,2,21,2,2,1,4,0.639657183187489,0.628054022710678
"262",33,39,1,2,22,3,1,0,2,0.294674591350386,0.333250185209583
"263",33,27,1,1,23,1,1,1,4,0.254902577951548,0.299796348480143
"264",33,26,1,2,24,3,1,0,1,0.684675748151994,0.716970448076428
"265",33,28,1,1,25,1,1,1,4,0.457142297252093,0.481094748909932
"266",33,28,1,2,26,3,1,0,1,1.10036002375514,1.163628235123
"267",33,23,1,2,27,2,1,0,2,0.766901199016665,0.7880921518293
"268",33,20,1,1,28,3,1,1,3,1.01194809551028,1.03773928702381
"269",33,39,1,1,29,2,1,1,4,0.647886517381621,0.656170890775976
"270",33,24,1,1,30,1,1,1,5,0.367043546058779,0.366560297432075
"271",33,30,1,2,31,3,2,1,3,0.523837148560999,0.472621418521134
"272",33,39,1,2,32,3,2,1,2,0.999651442814619,0.956095965994236
"273",33,27,1,1,33,2,2,0,3,0.567194620864472,0.65708778199769
"274",33,26,1,2,34,1,2,1,5,0.278649884788089,0.270068931259902
"275",33,28,1,1,35,2,1,1,4,0.674562480671737,0.630357559247527
"276",33,28,1,1,36,2,2,0,3,0.510121235008656,0.484925063756577
"277",33,23,1,2,37,1,2,1,5,0.495835449720162,0.530693748487802
"278",33,20,1,1,38,2,2,0,3,0.674277336577287,0.697761744497267
"279",33,39,1,1,39,2,1,1,3,0.704584263933371,0.699537944575969
"280",33,24,1,2,40,3,1,0,2,0.967032401362217,0.940438898685029
"281",33,30,1,1,41,1,2,0,3,0.597980958004714,0.527666658660683
"282",33,39,1,1,42,1,1,1,4,0.49097446771777,0.47918939738245
"283",33,27,1,1,43,1,1,1,5,0.460971640902722,0.490560510463163
"284",33,26,1,2,44,1,2,1,5,0.468242001363164,0.461119673521148
"285",33,28,1,1,45,3,2,0,1,1.54143485992828,1.5840190036199
"286",33,28,1,2,46,1,2,1,4,0.398777299028842,0.31884334534436
"287",33,23,1,2,47,2,1,0,2,0.49156955273965,0.480624620604857
"288",33,20,1,2,48,1,2,1,5,0.361378869767874,0.455985443020514
"289",33,39,1,1,49,1,1,1,5,0.39292092719705,0.425444679665552
"290",33,24,1,2,50,1,1,0,3,0.672081456565006,0.740040799175996
"291",33,30,1,1,51,2,2,0,2,0.898517889976085,0.878027544862303
"292",33,39,1,1,52,3,2,0,1,1.01785723503963,1.01427681354275
"293",33,27,1,1,53,1,1,1,5,0.399102085065749,0.370586243419942
"294",33,26,1,2,54,3,1,0,2,1.1654317368235,1.1940766526745
"295",33,28,1,2,55,2,2,1,3,0.675087902379142,0.767788669316915
"296",33,28,1,1,56,2,1,1,3,0.55827261146542,0.558702025570443
"297",33,23,1,2,57,2,1,0,3,0.786836799338706,0.837112053633368
"298",33,20,1,1,58,2,2,0,3,0.546441991128313,0.58193190946667
"299",33,39,1,1,59,3,2,0,1,0.710387107154669,0.679247026137613
"300",33,24,1,2,60,2,1,0,3,0.73215217810054,0.630641733846513
"301",33,30,1,1,61,2,1,1,3,0.339922585360122,0.299914717681981
"302",33,39,1,2,62,3,2,1,2,0.8131665942524,0.74944180570383
"303",33,27,1,1,63,3,2,0,1,1.12101913570461,1.14720639299923
"304",33,26,1,2,64,2,2,1,3,0.645591937260502,0.562217788293446
"305",33,28,1,2,65,1,2,1,4,0.529566809119113,0.522432426595819
"306",33,28,1,2,66,2,2,1,3,0.59746616861012,0.602519986040093
"307",33,23,1,1,67,2,1,1,3,0.68525923963126,0.62265590516743
"308",33,20,1,1,68,1,1,1,4,0.380876641246709,0.364359425503715
"309",33,39,1,2,69,3,2,1,2,1.13166627304495,1.08954041162196
"310",33,24,1,2,70,1,2,1,5,0.44883961638462,0.504119950412321
"311",33,30,1,1,71,2,1,1,4,0.662412943445667,0.61448462000925
"312",33,39,1,2,72,1,2,1,4,0.319179731907513,0.239599216627158
"313",33,27,1,1,73,2,1,1,3,0.783263426881186,0.808813422775784
"314",33,26,1,1,74,1,2,0,4,0.73584952979103,0.756200444585236
"315",33,28,1,1,75,1,1,1,4,0.463926725543503,0.555385082951463
"316",33,28,1,1,76,1,1,1,5,0.376752749366141,0.391300959522742
"317",33,23,1,2,77,1,2,1,5,0.475545425099945,0.455385047510632
"318",33,20,1,2,78,3,1,0,1,0.851099786985925,0.903620888118048
"319",33,39,1,1,79,3,1,1,3,0.586357018848674,0.593580132664142
"320",33,24,1,2,80,1,2,1,5,0.27700277716985,0.25087931411558
"321",33,30,1,2,81,2,2,1,3,0.683410760811313,0.601693503886613
"322",33,39,1,2,82,2,2,1,4,0.67980994534713,0.644828949672337
"323",33,27,1,2,83,3,1,0,1,0.825609318780461,0.76608957299677
"324",33,26,1,1,84,1,1,1,4,0.431249851383877,0.438920685871207
"325",33,28,1,2,85,1,2,1,5,0.246425094803644,0.245650769656062
"326",33,28,1,1,86,3,1,1,3,1.17525162508077,1.1201431727415
"327",33,23,1,2,87,1,2,1,5,0.346724700092606,0.36562036835758
"328",33,20,1,1,88,1,2,0,3,0.850906471153634,0.944790591388683
"329",33,39,1,2,89,2,1,0,3,0.437948637414969,0.423147801641171
"330",33,24,1,2,90,2,1,0,2,0.502472628313437,0.495705427312147
"331",33,30,1,2,91,2,2,1,4,0.463348246351142,0.486256333869396
"332",33,39,1,1,92,3,2,0,2,1.17980005602699,1.2140765889189
"333",33,27,1,2,93,3,1,0,1,0.528882955279424,0.545209086609324
"334",33,26,1,1,94,3,1,1,2,0.65397506812979,0.688829278015422
"335",33,28,1,2,95,3,1,0,1,1.30940224844696,1.34004041068298
"336",33,28,1,2,96,1,1,0,4,0.61966111779767,0.580262193179765
"337",33,23,1,1,97,1,2,0,4,0.510466994984941,0.492516582164689
"338",33,20,1,2,98,3,2,1,2,1.00112055659177,0.993266617148257
"339",33,39,1,2,99,3,1,0,1,0.536137391695862,0.536257724785452
"340",33,24,1,2,100,1,2,1,4,0.398353664449987,0.461593699946323
"341",33,30,1,2,101,2,2,1,3,0.668470748306152,0.612486291272564
"342",33,39,1,1,102,3,1,1,3,1.11640569804571,1.1300810538541
"343",33,27,1,1,103,3,2,0,1,1.20874140504095,1.2562729682395
"344",33,26,1,1,104,1,1,1,5,0.386094184309653,0.388601720316812
"345",33,28,1,2,105,2,1,0,2,0.666521862989615,0.727262799814871
"346",33,28,1,1,106,1,1,1,4,0.414421130284952,0.422311836147886
"347",33,23,1,2,107,3,2,1,2,0.840495240670868,0.833469365302527
"348",33,20,1,1,108,2,2,0,2,0.598741879800504,0.549916413585199
"349",33,39,1,2,109,3,1,0,2,1.04285934303782,0.944920625552571
"350",33,24,1,1,110,2,2,0,2,0.930987425954782,0.921285754578318
"351",33,30,1,1,111,3,1,1,2,0.754556434059745,0.800341800378009
"352",33,39,1,2,112,1,2,1,5,0.342290162854275,0.311624101937498
"353",33,27,1,1,113,2,1,1,4,0.520263573395818,0.576682192164484
"354",33,26,1,2,114,2,1,0,2,0.687246427954514,0.747278440567336
"355",33,28,1,1,115,3,1,1,3,0.868123735361235,0.838870797664629
"356",33,28,1,2,116,3,1,0,2,1.19187896833893,1.29074596735998
"357",33,23,1,2,117,3,1,0,1,0.766000419739293,0.787473004604773
"358",33,20,1,1,118,1,2,0,4,0.449704301134905,0.491614750279105
"359",33,39,1,1,119,2,1,1,3,0.618634128490603,0.591368958074899
"360",33,24,1,1,120,1,1,1,5,0.48171828642484,0.596086163136162
"361",33,30,1,1,121,1,1,1,4,0.40011135941095,0.50046744244508
"362",33,39,1,2,122,1,1,0,4,0.707337918941106,0.692553963443498
"363",33,27,1,2,123,2,1,0,2,0.703024218226723,0.740050948948475
"364",33,26,1,1,124,3,1,1,3,0.844939957731007,0.744497973593594
"365",33,28,1,1,125,1,2,0,3,0.700425901020485,0.707584476800873
"366",33,28,1,2,126,3,1,0,1,0.522405793988654,0.529767506339813
"367",33,23,1,2,127,3,1,0,1,0.818420117631852,0.827881166893166
"368",33,20,1,1,128,2,1,1,3,0.56690051399224,0.609137650995144
"369",33,39,1,1,129,2,2,0,2,0.702472775060766,0.727477772619763
"370",33,24,1,2,130,1,2,1,5,0.291377297580335,0.347611479092481
"371",33,30,1,1,131,2,1,1,4,0.593856568712124,0.585097865424289
"372",33,39,1,2,132,1,2,1,4,0.325091565872607,0.354182917851758
"373",33,27,1,2,133,1,2,1,5,0.41731833531595,0.413158589051665
"374",33,26,1,2,134,2,2,1,4,0.505193309381631,0.471883460016865
"375",33,28,1,1,135,2,1,1,4,0.561100485163768,0.574390477830728
"376",33,28,1,2,136,2,1,0,3,0.494268141188243,0.524076245133105
"377",33,23,1,2,137,1,1,0,3,0.48887143374786,0.473650019170901
"378",33,20,1,2,138,3,2,1,2,0.604874026452239,0.575939728563117
"379",33,39,1,2,139,1,2,1,4,0.211991226798833,0.270900427848987
"380",33,24,1,1,140,3,2,0,2,0.323748224581073,0.268338852134469
"381",33,30,1,1,141,2,2,0,3,0.507144764281904,0.459901351649144
"382",33,39,1,1,142,3,2,0,1,0.424033002444885,0.449809911097048
"383",33,27,1,2,143,2,1,0,2,0.646251917270768,0.689494769391643
"384",33,26,1,2,144,2,2,1,3,0.77394034175449,0.845951173614761
"385",33,28,1,2,145,2,2,1,3,0.542058638326531,0.529149983880448
"386",33,28,1,2,146,3,2,1,3,0.857070834995624,0.860979264792347
"387",33,23,1,2,147,3,1,0,1,1.15083945368296,1.10249832539905
"388",33,20,1,1,148,1,1,1,5,0.392441602340649,0.430803786184066
"389",33,39,1,2,149,2,1,0,3,0.871083840277364,0.87325309540903
"390",33,24,1,2,150,1,2,1,5,0.308667252718462,0.342789946528775
"391",33,30,1,1,151,2,2,0,3,1.05217139480132,1.09404407147625
"392",33,39,1,2,152,2,2,1,3,0.522299539583125,0.494901964581681
"393",33,27,1,1,153,3,2,0,2,1.44388306197342,1.37602932325887
"394",33,26,1,2,154,2,2,1,4,0.770370399444785,0.756702981016145
"395",33,28,1,1,155,2,2,0,2,0.628782342343415,0.661458066235984
"396",33,28,1,1,156,3,2,0,2,0.503990727340926,0.528561910100705
"397",33,23,1,1,157,1,2,0,4,0.492337776217404,0.467963886612151
"398",33,20,1,2,158,1,1,0,4,0.349208701167796,0.377503281346314
"399",33,39,1,2,159,2,2,1,3,0.641869873098836,0.594555450719585
"400",33,24,1,1,160,1,2,0,4,0.52835191191119,0.521399647754404
"401",33,30,1,1,161,3,1,1,2,0.880856287733741,0.881463250782882
"402",33,39,1,1,162,3,2,0,2,0.750475071940243,0.733154469020137
"403",33,27,1,2,163,3,2,1,3,0.637087581615264,0.64218916903134
"404",33,26,1,2,164,2,1,0,2,0.484752632791115,0.425316723257493
"405",33,28,1,2,165,2,1,0,3,0.778524697670945,0.748022515826384
"406",33,28,1,1,166,1,1,1,4,0.341883870133843,0.388619634409512
"407",33,23,1,1,167,2,1,1,3,0.446447565308899,0.538339369734941
"408",33,20,1,1,168,1,1,1,5,0.382311108039088,0.344032430169807
"409",33,39,1,2,169,3,1,0,2,0.873546521278509,0.882173947339374
"410",33,24,1,1,170,1,1,1,4,0.499812267159389,0.527654711138271
"411",33,30,1,1,171,1,1,1,5,0.397249289182746,0.452764200352194
"412",33,39,1,2,172,2,2,1,3,0.553033380331078,0.562798038200539
"413",33,27,1,2,173,2,2,1,3,0.703519410725512,0.699106933825305
"414",33,26,1,2,174,1,2,1,4,0.443410718958835,0.469587430603536
"415",33,28,1,1,175,1,1,1,4,0.446822917625758,0.415978037181296
"416",33,28,1,1,176,1,1,1,5,0.438421012963641,0.466782865920259
"417",33,23,1,1,177,2,1,1,3,0.560491834422306,0.50440837943557
"418",33,20,1,1,178,1,1,1,4,0.416322948841163,0.502160245684322
"419",33,39,1,1,179,2,1,1,3,0.538529427026589,0.493633616666467
"420",33,24,1,2,180,2,1,0,3,0.827952844705564,0.768369905710729
"421",33,30,1,1,181,3,1,1,2,0.73054975559389,0.766881634345701
"422",33,39,1,1,182,2,1,1,3,0.524475476590914,0.507359778565733
"423",33,27,1,2,183,3,2,1,2,0.593930663017531,0.593882296227702
"424",33,26,1,2,184,2,2,1,3,0.646939153767584,0.673812531459853
"425",33,28,1,1,185,1,1,1,5,0.4078709522727,0.368956417298262
"426",33,28,1,2,186,2,2,1,4,0.625285275175494,0.717065610088322
"427",33,23,1,2,187,3,2,1,3,0.701864200453283,0.65795404349277
"428",33,20,1,2,188,2,1,0,3,0.851147110235469,0.863469334627499
"429",33,39,1,1,189,3,1,1,3,0.461211605550907,0.469954042561971
"430",33,24,1,2,190,3,1,0,1,1.29645881960563,1.28821589068192
"431",33,30,1,1,191,3,2,0,1,1.69696549239949,1.76749397239948
"432",33,39,1,1,192,2,1,1,3,0.539964408361715,0.481191771801277
"433",33,27,1,1,193,1,1,1,5,0.445390645007942,0.396126653923673
"434",33,26,1,1,194,1,1,1,5,0.432588549880784,0.364523569967695
"435",33,28,1,1,195,1,2,0,3,0.467318836835562,0.479454386569935
"436",33,28,1,2,196,3,2,1,2,0.805016605248516,0.81223186187357
"437",33,23,1,1,197,3,1,1,3,1.04315181247888,0.998994305376361
"438",33,20,1,1,198,3,1,1,3,0.436175798426128,0.291280532686644
"439",33,39,1,2,199,1,2,1,4,0.47544054782972,0.521185236718365
"440",33,24,1,1,200,2,2,0,2,0.575493437862023,0.634907701685941
"441",33,30,1,2,201,1,2,1,4,0.380527825972698,0.334545116199335
"442",33,39,1,2,202,2,1,0,3,0.570459587986407,0.528201680657103
"443",33,27,1,2,203,2,1,0,3,0.559406249030752,0.555503477056814
"444",33,26,1,2,204,3,2,1,2,0.795751047705518,0.712647746595152
"445",33,28,1,2,205,3,1,0,2,1.13068522105833,1.1061577334503
"446",33,28,1,2,206,1,1,0,4,0.565075948781136,0.489483226864423
"447",33,23,1,1,207,2,1,1,3,0.684665921028052,0.598621539680225
"448",33,20,1,2,208,3,2,1,3,0.503349729997344,0.610176575129957
"449",33,39,1,1,209,1,1,1,4,0.422547274889436,0.407261517528014
"450",33,24,1,2,210,2,1,0,3,0.631522306765621,0.609080549138075
"451",33,30,1,1,211,3,2,0,1,1.10262531090463,1.03799414978916
"452",33,39,1,1,212,3,1,1,3,0.872333036901519,0.989763805079152
"453",33,27,1,2,213,3,1,0,2,1.42331540532892,1.45073939605654
"454",33,26,1,1,214,2,1,1,4,0.65564242631386,0.652076410496972
"455",33,28,1,2,215,2,2,1,3,0.440235804843131,0.319879932341635
"456",33,28,1,2,216,3,2,1,2,0.846737791667472,0.775692748685064
"457",33,23,1,1,217,3,2,0,2,0.525265493380573,0.524107307657761
"458",33,20,1,1,218,1,1,1,5,0.452427643183957,0.456976167028059
"459",33,39,1,1,219,3,1,1,3,0.796243338738657,0.819457682584957
"460",33,24,1,1,220,3,1,1,2,0.647625598746846,0.701073759338076
"461",33,30,1,2,221,3,2,1,3,0.932314521979763,0.895791112234011
"462",33,39,1,2,222,3,2,1,3,0.826222329706148,0.745193796252435
"463",33,27,1,2,223,3,1,0,2,1.50041405317018,1.48467644265818
"464",33,26,1,1,224,3,2,0,1,0.893109666635535,1.04556531346256
"465",33,28,1,2,225,1,2,1,4,0.496711990621619,0.409997945032099
"466",33,28,1,1,226,3,2,0,1,1.39465460889423,1.37933894758559
"467",33,23,1,2,227,3,2,1,2,0.994266412297564,0.986607841696352
"468",33,20,1,2,228,1,2,1,5,0.404226953081684,0.355268816632513
"469",33,39,1,2,229,1,1,0,4,0.550149623532308,0.477127123421705
"470",33,24,1,1,230,1,1,1,4,0.398603488837811,0.393216446629911
"471",33,30,1,1,231,1,1,1,4,0.338619016807892,0.371395268685126
"472",33,39,1,1,232,3,1,1,3,0.332211090966876,0.377490925804456
"473",33,27,1,1,233,1,1,1,4,0.392201372061315,0.434977380346814
"474",33,26,1,2,234,1,1,0,4,0.500421252926998,0.562119606072938
"475",33,28,1,2,235,1,2,1,4,0.424534089934572,0.403492370575995
"476",33,28,1,1,236,2,1,1,4,0.722141995152055,0.710715041166099
"477",33,23,1,1,237,2,2,0,2,0.650905561572903,0.706509625549424
"478",33,20,1,2,238,3,1,0,1,0.862635117827833,0.904630086492463
"479",33,39,1,1,239,3,1,1,2,0.742380325030151,0.750049593193788
"480",33,24,1,1,240,1,1,1,4,0.367343316149777,0.311005225316578
"481",32,19,2,1,1,1,1,1,4,0.49211196592877,0.434685788692559
"482",32,38,2,2,2,1,1,0,4,0.487524588155821,0.448959381825679
"483",32,36,2,2,3,2,1,0,3,0.596380615498146,0.478712730247321
"484",32,29,2,1,4,2,1,1,3,0.464652646530901,0.423050654227958
"485",32,25,2,2,5,2,2,1,4,0.629388757229841,0.614514569670497
"486",32,40,2,1,6,1,1,1,4,0.324584157697032,0.416014559471266
"487",32,21,2,2,7,2,1,0,3,0.832472891230381,0.840487738903315
"488",32,39,2,1,8,3,2,0,2,1.21321700125276,1.24501391140876
"489",32,39,2,1,9,3,2,0,2,1.18291021832085,1.20562169934068
"490",32,18,2,1,10,1,1,1,4,0.408498643571215,0.416200561027249
"491",32,19,2,2,11,1,2,1,4,0.485151575114491,0.537670511586675
"492",32,38,2,2,12,3,2,1,3,1.14447127257834,1.11432247573461
"493",32,36,2,1,13,1,1,1,5,0.345985180347945,0.375719303153078
"494",32,29,2,1,14,3,1,1,2,0.622795509252622,0.623812379865749
"495",32,25,2,1,15,3,2,0,2,0.782944294158759,0.690138999661379
"496",32,40,2,1,16,2,2,0,3,0.745151564731257,0.685343524295398
"497",32,21,2,2,17,2,1,0,3,0.409097117345826,0.35847437484095
"498",32,39,2,1,18,2,2,0,3,0.648852764507545,0.64218403736048
"499",32,39,2,1,19,2,2,0,3,0.80744236157462,0.805890783971957
"500",32,18,2,2,20,2,2,1,4,0.654798546761276,0.73784154842617
"501",32,19,2,1,21,2,2,0,3,0.884342192771345,0.918675844990974
"502",32,38,2,2,22,1,2,1,5,0.421952191969796,0.474494598357128
"503",32,36,2,1,23,2,1,1,3,0.63541289975444,0.541410075803731
"504",32,29,2,1,24,2,1,1,4,0.924558682533897,0.909490164049322
"505",32,25,2,2,25,2,1,0,3,0.484013188117247,0.509556157184741
"506",32,40,2,1,26,3,2,0,2,0.72590229379553,0.672059717452541
"507",32,21,2,2,27,1,2,1,5,0.385178078348745,0.458802038646143
"508",32,39,2,2,28,3,1,0,1,0.97347459258685,1.00808859929645
"509",32,39,2,1,29,3,1,1,3,0.855385529584948,0.871098156526048
"510",32,18,2,2,30,3,1,0,2,0.800079534245245,0.725109603178995
"511",32,19,2,2,31,1,2,1,4,0.408415187635004,0.471000628029147
"512",32,38,2,2,32,1,2,1,5,0.424533427262516,0.401365754557191
"513",32,36,2,2,33,3,2,1,2,0.918892168339094,0.908802165096038
"514",32,29,2,2,34,3,1,0,1,1.5182063002981,1.5380113885003
"515",32,25,2,1,35,3,2,0,1,1.7288698478846,1.75904817092958
"516",32,40,2,2,36,1,1,0,4,0.438336122243132,0.490945224785013
"517",32,21,2,1,37,2,1,1,4,0.745315900481243,0.745154168040314
"518",32,39,2,1,38,3,2,0,2,0.872425156835112,0.832235305056676
"519",32,39,2,2,39,3,2,1,3,0.571038090178029,0.579136041393354
"520",32,18,2,1,40,1,1,1,5,0.43938914200412,0.456203024386373
"521",32,19,2,2,41,1,2,1,5,0.415664550274912,0.438301034095547
"522",32,38,2,2,42,1,2,1,4,0.299359407574732,0.216864651202347
"523",32,36,2,2,43,2,1,0,2,0.754741664364313,0.706202746982385
"524",32,29,2,1,44,3,1,1,2,0.481865125260725,0.466602181659163
"525",32,25,2,1,45,2,1,1,4,0.757547206621879,0.799901175226393
"526",32,40,2,2,46,1,1,0,3,0.630747462033534,0.574721499731156
"527",32,21,2,2,47,3,1,0,2,0.905173518313178,0.996664372499707
"528",32,39,2,1,48,1,1,1,4,0.424537272752669,0.438479090868215
"529",32,39,2,2,49,2,2,1,4,0.597233801973253,0.496731557617961
"530",32,18,2,1,50,3,1,1,3,0.823745147445505,0.888398619616233
"531",32,19,2,1,51,2,1,1,4,0.602257876151254,0.605584986074163
"532",32,38,2,1,52,1,1,1,5,0.38657116796708,0.33622023139716
"533",32,36,2,1,53,1,1,1,4,0.297674414381796,0.235259472963798
"534",32,29,2,2,54,2,1,0,3,0.734626702383375,0.730871967865083
"535",32,25,2,1,55,2,1,1,3,0.698865797422859,0.767113907918236
"536",32,40,2,1,56,3,1,1,3,0.664943791531782,0.694406799095998
"537",32,21,2,2,57,3,1,0,1,1.38534268333615,1.33632851753053
"538",32,39,2,1,58,2,2,0,3,0.864094805639991,0.970714727382271
"539",32,39,2,2,59,1,2,1,4,0.484711327407388,0.452463337708762
"540",32,18,2,2,60,2,2,1,4,0.418051429101828,0.450575108706478
"541",32,19,2,1,61,1,1,1,4,0.405643319748384,0.419579141448019
"542",32,38,2,1,62,1,1,1,4,0.422675057137365,0.491841725347857
"543",32,36,2,1,63,1,1,1,4,0.446567003482187,0.35305638411374
"544",32,29,2,2,64,1,1,0,3,0.489005292178669,0.519766637197555
"545",32,25,2,1,65,2,1,1,4,0.756500889489768,0.801732601554723
"546",32,40,2,2,66,1,2,1,4,0.486894949040257,0.530346993291701
"547",32,21,2,1,67,3,2,0,1,0.422128317270966,0.40887959283574
"548",32,39,2,1,68,3,2,0,1,1.17638048730759,1.20337469065152
"549",32,39,2,1,69,2,1,1,3,0.591643971300094,0.589364335205075
"550",32,18,2,2,70,1,2,1,4,0.364328729795011,0.336071067857006
"551",32,19,2,2,71,1,2,1,5,0.394072439028947,0.409729124809299
"552",32,38,2,2,72,1,2,1,5,0.374282085579852,0.453175135127442
"553",32,36,2,1,73,2,1,1,3,0.432054976902697,0.457851263629868
"554",32,29,2,2,74,3,2,1,3,0.960850308060891,1.04587649524529
"555",32,25,2,1,75,3,2,0,2,0.684601826228545,0.653403962542388
"556",32,40,2,2,76,3,2,1,2,0.827001901428084,0.816567341148124
"557",32,21,2,1,77,3,2,0,1,1.33811152707547,1.30265554653008
"558",32,39,2,1,78,1,1,1,5,0.308828313534298,0.334425006362002
"559",32,39,2,1,79,3,2,0,2,0.934830652759042,0.947268463391496
"560",32,18,2,2,80,1,1,0,4,0.582030522826694,0.56540246933305
"561",32,19,2,1,81,1,1,1,4,0.372103986114586,0.277735872547882
"562",32,38,2,2,82,1,2,1,5,0.354613646398865,0.369322570275354
"563",32,36,2,2,83,3,1,0,2,1.14183684117544,1.1259408265906
"564",32,29,2,1,84,2,2,0,3,0.618097500707221,0.586141387935056
"565",32,25,2,1,85,1,1,1,4,0.424321413860114,0.501315488717411
"566",32,40,2,1,86,2,1,1,3,0.587965147129918,0.591960083361935
"567",32,21,2,2,87,1,1,0,3,0.444618970293951,0.556898012687989
"568",32,39,2,2,88,2,2,1,3,0.449086374325616,0.39296478393527
"569",32,39,2,1,89,3,1,1,3,0.890930301111909,1.01384024126157
"570",32,18,2,1,90,1,1,1,4,0.310618287157155,0.282437705336053
"571",32,19,2,2,91,1,2,1,5,0.486996731899838,0.433249704519404
"572",32,38,2,2,92,1,1,0,3,0.537018106653947,0.524932451333591
"573",32,36,2,1,93,1,2,0,3,0.46976709933371,0.489454806372234
"574",32,29,2,2,94,3,1,0,1,0.6837261679313,0.708431763584117
"575",32,25,2,2,95,3,2,1,3,0.680317765623458,0.667238406032351
"576",32,40,2,2,96,3,1,0,1,0.951412229986025,1.00731672455296
"577",32,21,2,1,97,2,1,1,3,0.688472536472239,0.572830097784445
"578",32,39,2,1,98,3,1,1,3,0.944659573933995,0.938223663818142
"579",32,39,2,1,99,2,2,0,3,0.389377648601543,0.422409163334418
"580",32,18,2,2,100,1,2,1,5,0.311383658088479,0.395915052292342
"581",32,19,2,2,101,1,2,1,4,0.441379890433592,0.515583753008514
"582",32,38,2,1,102,2,2,0,3,0.353757389308774,0.320076405255166
"583",32,36,2,2,103,3,2,1,2,0.567740007117538,0.522254906978227
"584",32,29,2,1,104,1,1,1,4,0.535129605929957,0.564656020524263
"585",32,25,2,2,105,1,2,1,4,0.376875912937389,0.421216952398953
"586",32,40,2,1,106,3,2,0,1,0.944756829831547,0.947925117301866
"587",32,21,2,1,107,2,1,1,3,0.697305350375099,0.714522395470819
"588",32,39,2,2,108,3,2,1,2,0.384439702446966,0.351745336675223
"589",32,39,2,2,109,1,2,1,4,0.505040440131888,0.508949879329519
"590",32,18,2,1,110,3,2,0,1,0.745055426245805,0.76822573295414
"591",32,19,2,2,111,3,2,1,2,0.683219109381724,0.715416213945654
"592",32,38,2,2,112,3,2,1,2,0.73325923132454,0.704759187868795
"593",32,36,2,2,113,2,2,1,3,0.846706472472195,0.77324738746301
"594",32,29,2,2,114,3,2,1,3,0.458659105192032,0.470482560687034
"595",32,25,2,2,115,1,2,1,4,0.401174535126927,0.430223224055679
"596",32,40,2,2,116,1,2,1,4,0.27556649410674,0.236751444287908
"597",32,21,2,2,117,1,2,1,5,0.302668705364163,0.345899659418074
"598",32,39,2,1,118,1,1,1,5,0.451701937570799,0.519181139109962
"599",32,39,2,1,119,1,2,0,4,0.356063989596673,0.381348958488612
"600",32,18,2,1,120,3,1,1,3,0.737470261224279,0.800041691291047
"601",32,19,2,2,121,3,2,1,2,0.947005121033172,1.05912577946744
"602",32,38,2,2,122,2,1,0,3,0.88225270408095,0.935496334668194
"603",32,36,2,2,123,2,2,1,4,0.552161855329465,0.532902756554209
"604",32,29,2,1,124,3,2,0,2,0.39375639197688,0.387226333135362
"605",32,25,2,2,125,2,1,0,3,0.612428352538559,0.600163165501334
"606",32,40,2,2,126,3,1,0,1,0.860129367341656,0.835073892784332
"607",32,21,2,1,127,3,2,0,2,0.966080579257314,1.01249250358293
"608",32,39,2,2,128,1,2,1,5,0.478390743375926,0.401513512957611
"609",32,39,2,2,129,1,2,1,5,0.267452741227165,0.281537521186184
"610",32,18,2,2,130,3,1,0,1,0.6584086678609,0.674475728772582
"611",32,19,2,2,131,3,1,0,1,1.20453197548113,1.27419965345801
"612",32,38,2,1,132,2,1,1,3,0.480054333397712,0.536579823166472
"613",32,36,2,1,133,2,1,1,3,0.438255609481593,0.411698742904486
"614",32,29,2,2,134,3,1,0,2,0.704100912946798,0.726807469050598
"615",32,25,2,2,135,2,1,0,2,0.782844530523493,0.899665893999257
"616",32,40,2,1,136,3,2,0,2,0.745393887251566,0.713427183668367
"617",32,21,2,1,137,3,2,0,2,1.04260323674261,0.9958018878088
"618",32,39,2,1,138,3,2,0,2,1.04443772406146,1.00541892890156
"619",32,39,2,1,139,3,1,1,3,1.17789066247717,1.17598102142775
"620",32,18,2,2,140,1,1,0,3,0.670429524412091,0.638446102393192
"621",32,19,2,2,141,2,2,1,4,0.608090262487008,0.523939011378284
"622",32,38,2,1,142,3,1,1,3,0.607493169586742,0.583416266938156
"623",32,36,2,1,143,2,2,0,3,0.643078468270168,0.630585892582634
"624",32,29,2,2,144,3,1,0,1,0.517061763300213,0.600260346553937
"625",32,25,2,1,145,1,1,1,4,0.497742703619732,0.529929695446202
"626",32,40,2,1,146,2,1,1,3,0.45311595894093,0.462978617566874
"627",32,21,2,2,147,2,1,0,2,0.808992227182812,0.767566972797055
"628",32,39,2,2,148,1,2,1,5,0.251085218424453,0.236815312797112
"629",32,39,2,2,149,1,2,1,5,0.489293166364615,0.494063621937133
"630",32,18,2,2,150,3,2,1,3,1.15930383367913,1.11620046437919
"631",32,19,2,2,151,1,1,0,4,0.519751250757829,0.617659877032621
"632",32,38,2,2,152,1,2,1,4,0.361378253024878,0.455236074477482
"633",32,36,2,1,153,3,1,1,3,0.581572613003847,0.541128170414043
"634",32,29,2,2,154,2,2,1,4,0.581378748167762,0.57940025579322
"635",32,25,2,2,155,1,2,1,4,0.529858772448123,0.527111353974967
"636",32,40,2,1,156,2,2,0,2,0.662501208802748,0.563089074652966
"637",32,21,2,1,157,3,1,1,2,0.731675722735237,0.748208887449141
"638",32,39,2,2,158,2,2,1,3,0.525482786055891,0.557660634996162
"639",32,39,2,2,159,3,1,0,2,0.569422803518964,0.587268144397818
"640",32,18,2,1,160,2,1,1,3,0.54292994285595,0.594766492045139
"641",32,19,2,2,161,2,2,1,3,0.468289112041272,0.446214852394529
"642",32,38,2,1,162,1,1,1,5,0.296535552864023,0.256067102425286
"643",32,36,2,1,163,3,1,1,2,0.723969521179991,0.751975498941122
"644",32,29,2,2,164,3,1,0,1,0.605262864553975,0.705094599091882
"645",32,25,2,1,165,2,2,0,2,0.594784819532406,0.559770789973054
"646",32,40,2,2,166,3,1,0,1,0.758989615209777,0.778323699781982
"647",32,21,2,2,167,3,2,1,3,0.865503897050887,0.849436891494338
"648",32,39,2,2,168,2,2,1,3,0.649693135007859,0.689725008468501
"649",32,39,2,1,169,2,1,1,4,0.567509810522399,0.51334139873573
"650",32,18,2,1,170,2,2,0,2,0.463465452193948,0.43666427779118
"651",32,19,2,2,171,3,1,0,1,0.948673517108101,0.981452370557076
"652",32,38,2,2,172,2,2,1,3,0.566710274111264,0.529775654903075
"653",32,36,2,2,173,2,1,0,2,0.765313229643262,0.744179145705524
"654",32,29,2,2,174,2,2,1,3,0.624834427657077,0.52405510304288
"655",32,25,2,1,175,2,1,1,3,0.651019801203999,0.685669974255043
"656",32,40,2,2,176,2,2,1,4,0.495959035205763,0.401930707797538
"657",32,21,2,1,177,2,1,1,4,0.810569829483273,0.862276192425362
"658",32,39,2,1,178,2,1,1,4,0.557541197494129,0.56017090072551
"659",32,39,2,1,179,1,1,1,5,0.316797576316077,0.252832924635119
"660",32,18,2,1,180,1,2,0,3,0.661683383072873,0.595959690874925
"661",32,19,2,1,181,1,1,1,4,0.374650443115365,0.40115109024498
"662",32,38,2,2,182,2,2,1,3,0.321233612282381,0.237191435837571
"663",32,36,2,1,183,1,1,1,5,0.360554240272292,0.30906938098562
"664",32,29,2,1,184,2,2,0,3,0.577827639671628,0.636921240309453
"665",32,25,2,2,185,2,2,1,4,0.613596103046609,0.567886128806531
"666",32,40,2,1,186,2,1,1,3,0.674850991154779,0.590492882175666
"667",32,21,2,1,187,2,2,0,2,0.679820540643751,0.633247300686234
"668",32,39,2,2,188,1,2,1,4,0.277069940554752,0.252417752697441
"669",32,39,2,2,189,3,2,1,2,1.21487317271695,1.1468346695188
"670",32,18,2,1,190,3,2,0,2,1.32995554627724,1.35543597368707
"671",32,19,2,1,191,1,1,1,4,0.502269887880498,0.5861640857891
"672",32,38,2,1,192,2,2,0,2,0.704556678852019,0.633471570539364
"673",32,36,2,2,193,2,1,0,3,0.73636192626532,0.717982924819494
"674",32,29,2,2,194,3,1,0,1,1.50746080888183,1.45520691772197
"675",32,25,2,2,195,3,1,0,1,1.11132503741353,1.18064331379767
"676",32,40,2,1,196,1,2,0,4,0.653543240285328,0.654016374289114
"677",32,21,2,2,197,3,2,1,2,0.636783907105745,0.737352117083473
"678",32,39,2,1,198,3,1,1,2,0.768577422834523,0.80220081141089
"679",32,39,2,1,199,2,1,1,4,0.748542971823243,0.714694985619454
"680",32,18,2,1,200,3,2,0,1,1.09819307822088,1.23431850109476
"681",32,19,2,2,201,3,2,1,3,0.686905588214975,0.722410338233195
"682",32,38,2,2,202,2,1,0,2,1.0433815143056,1.02494047960673
"683",32,36,2,1,203,2,1,1,3,0.617464251108369,0.56180457038102
"684",32,29,2,2,204,1,2,1,5,0.480372641849361,0.439429276058574
"685",32,25,2,2,205,1,1,0,3,0.594264113321173,0.543363480348123
"686",32,40,2,2,206,2,2,1,4,0.84994379945099,0.845638989845444
"687",32,21,2,1,207,1,1,1,5,0.371820764244976,0.370336830197976
"688",32,39,2,1,208,3,1,1,2,0.464023799422146,0.42246898878944
"689",32,39,2,1,209,1,2,0,3,0.434450849373222,0.450515362098293
"690",32,18,2,1,210,1,1,1,4,0.403214346805659,0.368490158458248
"691",32,19,2,1,211,2,1,1,3,0.599785892280914,0.579315192436352
"692",32,38,2,1,212,3,1,1,3,0.901211850692264,0.82784367932815
"693",32,36,2,1,213,1,1,1,4,0.389571116384652,0.279487180027845
"694",32,29,2,2,214,1,2,1,4,0.324920491893031,0.274611757321701
"695",32,25,2,2,215,1,2,1,5,0.499090119937028,0.534285080608008
"696",32,40,2,2,216,1,2,1,5,0.391463730299246,0.44121653086793
"697",32,21,2,1,217,1,1,1,5,0.461404201957288,0.483776299253114
"698",32,39,2,2,218,1,2,1,4,0.444668499854088,0.421872563205856
"699",32,39,2,2,219,3,2,1,2,0.616788669559751,0.673376294984131
"700",32,18,2,1,220,3,1,1,3,0.693640871147493,0.706742777024842
"701",32,19,2,1,221,1,1,1,4,0.423803383248938,0.32657156207852
"702",32,38,2,1,222,2,1,1,4,0.449419911050589,0.421185086031243
"703",32,36,2,1,223,3,1,1,3,0.877266653917892,0.919349311323539
"704",32,29,2,2,224,2,2,1,3,0.614576120549142,0.646695889063513
"705",32,25,2,1,225,3,2,0,1,0.719805749832728,0.703720423020028
"706",32,40,2,2,226,1,2,1,4,0.510636855792245,0.448588371847064
"707",32,21,2,1,227,2,2,0,2,0.771006192696112,0.645789465985087
"708",32,39,2,2,228,2,2,1,3,0.580109196635244,0.635024852021368
"709",32,39,2,1,229,2,2,0,3,0.494505281068106,0.424111333825152
"710",32,18,2,2,230,1,2,1,5,0.386424487539089,0.285992252921947
"711",32,19,2,2,231,3,2,1,2,1.14867801392988,1.0947083068409
"712",32,38,2,1,232,1,1,1,4,0.490641543991789,0.461030052109772
"713",32,36,2,2,233,3,2,1,3,0.528149927026379,0.397535782402567
"714",32,29,2,1,234,3,2,0,1,0.2120165377731,0.183074659220869
"715",32,25,2,1,235,2,1,1,3,0.616294454286088,0.5728168075124
"716",32,40,2,2,236,3,2,1,3,0.566990341591849,0.495532696265344
"717",32,21,2,1,237,2,1,1,3,0.577461531889853,0.630861556028112
"718",32,39,2,2,238,2,2,1,4,0.733232505281268,0.694151392244488
"719",32,39,2,2,239,1,2,1,4,0.433665079692029,0.405059824297508
"720",32,18,2,1,240,2,2,0,2,0.788838884675686,0.781835596515826
"721",31,39,1,2,1,3,2,1,3,0.734032078295408,0.78859732504759
"722",31,26,1,2,2,2,2,1,3,0.64518094585079,0.683939697791429
"723",31,23,1,1,3,3,2,0,2,0.414336397395788,0.455272228264392
"724",31,36,1,2,4,2,1,0,3,0.776136708001013,0.802809491713808
"725",31,21,1,2,5,1,2,1,4,0.325761671070819,0.286145812773504
"726",31,32,1,1,6,3,1,1,2,0.718463051493144,0.742301337925235
"727",31,23,1,2,7,2,1,0,3,0.607800185125614,0.551861818181212
"728",31,33,1,2,8,3,1,0,2,0.95272446081145,1.00000528470994
"729",31,40,1,1,9,3,2,0,1,0.597461668879963,0.596102577071105
"730",31,39,1,1,10,2,2,0,2,0.747918366265061,0.764835694524399
"731",31,39,1,1,11,2,1,1,3,0.632654778962496,0.645525829115783
"732",31,26,1,1,12,1,2,0,3,0.667123306150326,0.603923453740858
"733",31,23,1,1,13,1,1,1,5,0.477844393202148,0.554976306686074
"734",31,36,1,1,14,3,1,1,3,0.499012569898777,0.541562684165141
"735",31,21,1,1,15,2,1,1,4,0.521336487821888,0.492585337986524
"736",31,32,1,2,16,2,1,0,3,0.826706246777782,0.835920684418853
"737",31,23,1,2,17,1,2,1,4,0.282838168706281,0.253553433498488
"738",31,33,1,1,18,2,1,1,4,0.499745463382283,0.38572279659366
"739",31,40,1,2,19,2,1,0,2,0.412909230035054,0.373458214756741
"740",31,39,1,1,20,2,2,0,2,0.692184449382722,0.629974326434326
"741",31,39,1,2,21,2,2,1,3,0.715272940315468,0.745744496197196
"742",31,26,1,2,22,3,2,1,3,0.829745668198691,0.84785769583877
"743",31,23,1,1,23,2,1,1,4,0.562422652487518,0.551013806131423
"744",31,36,1,2,24,1,2,1,5,0.287474813672928,0.301612037784526
"745",31,21,1,2,25,2,2,1,3,0.574481103404767,0.607609429682204
"746",31,32,1,1,26,2,1,1,3,0.678531076524962,0.681171405859677
"747",31,23,1,2,27,3,2,1,3,0.983972921340366,0.912385990923526
"748",31,33,1,2,28,2,2,1,4,0.603081503254746,0.698421899193047
"749",31,40,1,2,29,2,2,1,4,0.723833415206417,0.707503542223957
"750",31,39,1,2,30,1,1,0,3,0.422171297180964,0.455978221614154
"751",31,39,1,2,31,2,1,0,3,0.895569676219101,0.792139177953022
"752",31,26,1,2,32,1,1,0,3,0.416488466746172,0.484069568600514
"753",31,23,1,2,33,1,2,1,4,0.428908562963644,0.315369218969458
"754",31,36,1,2,34,3,2,1,2,0.714044692273725,0.767314898634189
"755",31,21,1,2,35,1,2,1,5,0.254877798270855,0.195419128742556
"756",31,32,1,2,36,1,2,1,5,0.360105112235961,0.358014243930946
"757",31,23,1,1,37,1,1,1,4,0.347560992676892,0.426449230847055
"758",31,33,1,2,38,2,1,0,3,0.651538388798656,0.668392125313254
"759",31,40,1,1,39,3,1,1,3,0.959514765432949,0.943881970967719
"760",31,39,1,2,40,3,1,0,1,1.19359045070066,1.16470129113249
"761",31,39,1,2,41,3,2,1,3,0.923838250257583,0.913826954492158
"762",31,26,1,1,42,3,2,0,2,1.05506202500154,1.04064065740472
"763",31,23,1,1,43,3,1,1,2,0.651689766109253,0.616254258006735
"764",31,36,1,1,44,3,2,0,1,0.770865063470316,0.660461494337635
"765",31,21,1,2,45,2,2,1,3,0.736866928975754,0.744155676840942
"766",31,32,1,2,46,2,1,0,2,0.835923580016314,0.834944217506877
"767",31,23,1,1,47,2,2,0,2,0.858450792437932,0.913248783708919
"768",31,33,1,2,48,2,2,1,3,0.802995052992301,0.862662654589459
"769",31,40,1,2,49,3,1,0,1,1.45722166712193,1.35105638248261
"770",31,39,1,1,50,2,2,0,2,0.333928467734978,0.325673637421456
"771",31,39,1,2,51,2,1,0,3,0.710642353987301,0.742534490769931
"772",31,26,1,1,52,2,2,0,3,0.629822850124485,0.592922664154665
"773",31,23,1,1,53,3,1,1,3,0.675212110163516,0.69085399183319
"774",31,36,1,2,54,3,2,1,2,1.00659917166499,1.06414509663386
"775",31,21,1,1,55,1,1,1,4,0.486091301541862,0.494102708698742
"776",31,32,1,2,56,1,2,1,4,0.404056459080727,0.505524722775134
"777",31,23,1,1,57,2,2,0,3,0.906316598908667,0.839909999127363
"778",31,33,1,1,58,1,1,1,4,0.417999308942044,0.424704091183423
"779",31,40,1,2,59,2,1,0,3,0.6333562354179,0.656805544273498
"780",31,39,1,2,60,2,1,0,3,0.689968380271365,0.653637616345907
"781",31,39,1,1,61,1,1,1,4,0.50489758485904,0.586073315128622
"782",31,26,1,1,62,3,2,0,1,1.93507120044802,1.99333475932593
"783",31,23,1,2,63,3,2,1,3,1.1308624667291,1.21464464582409
"784",31,36,1,1,64,3,2,0,1,0.31854065295852,0.375862002972804
"785",31,21,1,2,65,3,2,1,2,1.25403519460788,1.25227921341269
"786",31,32,1,2,66,1,2,1,5,0.216708769920172,0.174798766694713
"787",31,23,1,2,67,1,2,1,4,0.413296024625814,0.392156736945639
"788",31,33,1,2,68,3,1,0,1,0.909575539068679,0.914095238233458
"789",31,40,1,2,69,1,2,1,5,0.436275725361167,0.424301875821824
"790",31,39,1,1,70,3,1,1,2,0.951517575233841,1.06371708726836
"791",31,39,1,1,71,3,1,1,3,1.14404992857948,1.17517795413759
"792",31,26,1,1,72,3,2,0,1,1.31870129366503,1.24733697667293
"793",31,23,1,2,73,1,2,1,5,0.224050356715911,0.217309274994487
"794",31,36,1,2,74,1,2,1,4,0.418140681188888,0.479021409544918
"795",31,21,1,2,75,2,2,1,4,0.558305754257795,0.614279214474822
"796",31,32,1,2,76,1,1,0,3,0.459590223245826,0.472330153086472
"797",31,23,1,1,77,3,2,0,1,1.32024664175444,1.33376426216017
"798",31,33,1,1,78,2,2,0,3,0.782666155653875,0.752350964676468
"799",31,40,1,1,79,1,1,1,5,0.302418917647681,0.344080202290001
"800",31,39,1,1,80,3,1,1,3,0.690083937140958,0.701831682066106
"801",31,39,1,2,81,3,1,0,2,0.629438562259986,0.658906841173834
"802",31,26,1,2,82,3,2,1,3,1.08682211741476,1.11536086610756
"803",31,23,1,2,83,2,1,0,2,0.867446231192671,0.833212337413258
"804",31,36,1,1,84,3,1,1,2,0.87449985243888,0.861264614942168
"805",31,21,1,1,85,2,2,0,2,0.674621537346175,0.787113685136636
"806",31,32,1,1,86,3,1,1,2,0.462035800421989,0.420815884127032
"807",31,23,1,2,87,2,1,0,2,0.589886359645608,0.505706651270283
"808",31,33,1,1,88,1,1,1,4,0.378741383518719,0.390770605305252
"809",31,40,1,1,89,1,1,1,4,0.381220684259627,0.401142078568087
"810",31,39,1,1,90,3,2,0,2,0.709038893494445,0.684586775931388
"811",31,39,1,2,91,2,1,0,2,0.652237986895949,0.652969831548823
"812",31,26,1,2,92,1,2,1,5,0.558380044242869,0.496516637860833
"813",31,23,1,1,93,2,2,0,2,0.8656041213634,0.857393336172836
"814",31,36,1,2,94,1,2,1,4,0.41868173541113,0.46202938115509
"815",31,21,1,1,95,2,1,1,4,0.430274049555388,0.416113706203369
"816",31,32,1,1,96,2,2,0,3,0.748102528503339,0.675791400296732
"817",31,23,1,1,97,3,2,0,2,1.08620152301392,1.11169076398366
"818",31,33,1,2,98,2,1,0,3,0.859389146085797,0.865442519417146
"819",31,40,1,1,99,2,2,0,2,0.901327566169302,0.959050399648931
"820",31,39,1,2,100,1,1,0,4,0.616595455531917,0.580313278924118
"821",31,39,1,1,101,1,1,1,5,0.327915906268688,0.378040213361449
"822",31,26,1,2,102,2,1,0,2,0.664228428875963,0.666615023098953
"823",31,23,1,2,103,1,2,1,5,0.41081679026118,0.457537392603913
"824",31,36,1,2,104,1,2,1,4,0.368278342263116,0.40969099135131
"825",31,21,1,2,105,1,2,1,5,0.519574825579279,0.507390514476487
"826",31,32,1,1,106,3,1,1,3,0.937614768875032,1.01831174789127
"827",31,23,1,2,107,2,1,0,3,0.720745225089143,0.742458887437524
"828",31,33,1,1,108,3,1,1,2,0.619219343289485,0.524717155252545
"829",31,40,1,2,109,1,2,1,4,0.439201643927862,0.576220348842104
"830",31,39,1,1,110,3,2,0,2,0.402988595946646,0.389420212276414
"831",31,39,1,1,111,1,1,1,5,0.494569553375992,0.533627754205556
"832",31,26,1,1,112,1,2,0,4,0.429557336165697,0.29704672356844
"833",31,23,1,2,113,1,2,1,5,0.388330157800848,0.270734121764291
"834",31,36,1,1,114,2,2,0,2,0.794933647740859,0.773066989340158
"835",31,21,1,1,115,3,1,1,2,0.900775986185655,0.912143362145909
"836",31,32,1,1,116,1,2,0,4,0.562299837158296,0.546719357299457
"837",31,23,1,1,117,2,2,0,2,0.777206167778483,0.753687312531015
"838",31,33,1,1,118,1,1,1,4,0.153505244361831,0.25403036041857
"839",31,40,1,1,119,1,1,1,5,0.604999801941298,0.609934491904394
"840",31,39,1,1,120,1,1,1,4,0.447699802437164,0.417913367968694
"841",31,39,1,2,121,3,1,0,1,0.821336749415729,0.817316615658334
"842",31,26,1,2,122,3,1,0,1,1.11965037098826,1.14193893375679
"843",31,23,1,2,123,1,2,1,4,0.335812950746587,0.275194928891112
"844",31,36,1,1,124,1,1,1,5,0.356341175819181,0.276654831879889
"845",31,21,1,1,125,3,2,0,1,1.32381094561765,1.40349048579295
"846",31,32,1,2,126,2,1,0,2,0.561482835403112,0.532902199396563
"847",31,23,1,1,127,1,1,1,5,0.451781188438161,0.431951695323178
"848",31,33,1,2,128,3,2,1,2,0.817772367959838,0.870788704301624
"849",31,40,1,1,129,1,1,1,5,0.227981095487413,0.228400534399354
"850",31,39,1,1,130,3,2,0,2,1.32112646312815,1.37389883138207
"851",31,39,1,1,131,3,1,1,3,0.761306328462385,0.765964695841488
"852",31,26,1,2,132,3,1,0,2,1.0632809761058,1.09214570654614
"853",31,23,1,2,133,1,2,1,5,0.23869431689917,0.265869212696509
"854",31,36,1,2,134,2,1,0,3,0.874773116704434,0.916285251313067
"855",31,21,1,2,135,2,2,1,4,0.550899426399354,0.603271365926952
"856",31,32,1,1,136,1,1,1,4,0.404235838517357,0.394669051812455
"857",31,23,1,1,137,1,1,1,4,0.239031726099919,0.259857457573975
"858",31,33,1,2,138,1,1,0,4,0.499909140156346,0.436692186389093
"859",31,40,1,1,139,3,2,0,2,0.917537044009661,0.93624305380183
"860",31,39,1,1,140,2,1,1,4,0.598086301786254,0.582099221384336
"861",31,39,1,1,141,2,2,0,3,0.642299899429402,0.661360475705509
"862",31,26,1,1,142,2,2,0,3,0.8180418841086,0.854996247483519
"863",31,23,1,2,143,2,2,1,3,0.539436411025041,0.584039042067254
"864",31,36,1,2,144,2,1,0,2,0.8769175324086,0.786348846852043
"865",31,21,1,2,145,2,1,0,3,0.843081861094626,0.750863743231429
"866",31,32,1,2,146,1,2,1,4,0.35805701820845,0.369973989746283
"867",31,23,1,1,147,3,1,1,2,0.724153349693243,0.802672842393035
"868",31,33,1,2,148,3,2,1,2,0.965803082535713,0.967475933173147
"869",31,40,1,2,149,3,1,0,1,0.963343026397482,0.923190716022473
"870",31,39,1,1,150,3,2,0,1,0.893692659302299,0.948216616356068
"871",31,39,1,2,151,2,1,0,2,0.610546442269559,0.616209506751444
"872",31,26,1,2,152,2,1,0,2,0.490684363931611,0.481002882141509
"873",31,23,1,2,153,2,2,1,3,0.653432694582093,0.684604100204126
"874",31,36,1,1,154,2,1,1,4,0.559057475558448,0.485662721060448
"875",31,21,1,1,155,3,1,1,2,0.774281452307584,0.73803211499207
"876",31,32,1,2,156,1,2,1,5,0.433748383199507,0.407678368771361
"877",31,23,1,2,157,1,2,1,5,0.444918554434946,0.463207853438725
"878",31,33,1,1,158,2,2,0,2,0.701252977280841,0.711076851506183
"879",31,40,1,2,159,3,2,1,2,0.573921217177237,0.628600971641108
"880",31,39,1,1,160,2,1,1,4,0.666030077911418,0.636229946327911
"881",31,39,1,1,161,3,1,1,3,0.977738606974924,0.982275506864893
"882",31,26,1,1,162,1,1,1,4,0.428157984628052,0.450441784827498
"883",31,23,1,1,163,1,1,1,5,0.423456259578962,0.534997094473603
"884",31,36,1,1,164,1,1,1,5,0.416667540885447,0.39419744588754
"885",31,21,1,2,165,2,2,1,4,0.614579556171519,0.681288470347953
"886",31,32,1,1,166,1,1,1,4,0.337291350952985,0.356249211744786
"887",31,23,1,1,167,1,1,1,5,0.376990609894456,0.42445590740656
"888",31,33,1,1,168,3,1,1,2,0.543954535501463,0.550605703598984
"889",31,40,1,1,169,3,1,1,3,0.995444641336949,1.0224390225652
"890",31,39,1,2,170,3,1,0,2,1.16998107690175,1.12453641755638
"891",31,39,1,2,171,1,1,0,4,0.648969532402478,0.523402822748776
"892",31,26,1,1,172,3,1,1,3,0.462539132988461,0.386921573804915
"893",31,23,1,1,173,1,1,1,4,0.331302861488874,0.340412674936204
"894",31,36,1,2,174,2,2,1,4,0.562405138565129,0.548485070320453
"895",31,21,1,2,175,1,2,1,4,0.333264201346561,0.380030034364562
"896",31,32,1,1,176,3,2,0,2,0.718132250237826,0.733657852976457
"897",31,23,1,2,177,2,1,0,3,0.804257695591346,0.769666335712724
"898",31,33,1,1,178,2,2,0,3,0.655086625500217,0.684364131452522
"899",31,40,1,1,179,1,2,0,3,0.370126213670316,0.412019455903802
"900",31,39,1,2,180,2,1,0,2,0.820221735324043,0.81252330722192
"901",31,39,1,1,181,1,1,1,4,0.262735407294395,0.308883930729435
"902",31,26,1,2,182,1,2,1,4,0.284642065077952,0.188046399527471
"903",31,23,1,2,183,3,1,0,1,1.23974630056173,1.2492176993633
"904",31,36,1,1,184,2,1,1,3,0.486939629062881,0.561578777749348
"905",31,21,1,1,185,1,1,1,5,0.455591002540754,0.492723435682763
"906",31,32,1,2,186,1,2,1,4,0.348985192841774,0.329791407180961
"907",31,23,1,2,187,3,1,0,1,0.686199598644415,0.731441449713343
"908",31,33,1,1,188,2,1,1,4,0.48032566889748,0.525110880305156
"909",31,40,1,1,189,3,2,0,2,0.626578145091143,0.639890885277117
"910",31,39,1,1,190,1,2,0,3,0.446281600858442,0.417044304149257
"911",31,39,1,1,191,3,2,0,2,0.955459036530006,1.01333382925917
"912",31,26,1,2,192,1,2,1,4,0.394647145656911,0.417781339377396
"913",31,23,1,2,193,3,1,0,2,0.776444562804023,0.751795787215389
"914",31,36,1,1,194,3,2,0,2,1.26002952545691,1.22571980445585
"915",31,21,1,2,195,1,2,1,5,0.479071123866664,0.437815733533677
"916",31,32,1,1,196,1,2,0,4,0.45221149301371,0.439133201918358
"917",31,23,1,1,197,1,1,1,5,0.333963739591146,0.369371452448125
"918",31,33,1,2,198,1,2,1,4,0.47606907920322,0.464296362308123
"919",31,40,1,2,199,1,2,1,5,0.291112912404434,0.314981319729849
"920",31,39,1,1,200,1,2,0,4,0.498273031280803,0.563660391841247
"921",31,39,1,2,201,3,1,0,1,0.516155640569589,0.514529624683656
"922",31,26,1,1,202,1,1,1,4,0.472447916381614,0.493144684538711
"923",31,23,1,1,203,2,2,0,3,0.744747705242744,0.755613361131147
"924",31,36,1,2,204,2,2,1,4,0.705182340625006,0.747106154801967
"925",31,21,1,2,205,2,2,1,4,0.746241592585556,0.71544609993289
"926",31,32,1,1,206,2,2,0,3,0.951592907028505,0.942081138148577
"927",31,23,1,1,207,3,2,0,1,1.08246456729327,1.06472119495492
"928",31,33,1,2,208,3,2,1,2,0.111280259848902,0.149804018461648
"929",31,40,1,1,209,2,1,1,4,0.575626863255834,0.540078267201136
"930",31,39,1,2,210,3,2,1,3,0.698826787593481,0.72055619069181
"931",31,39,1,1,211,3,2,0,2,0.576826797207359,0.623250099687565
"932",31,26,1,2,212,1,1,0,4,0.495986586907067,0.552633157781378
"933",31,23,1,2,213,3,2,1,3,1.00726858639389,0.95974208094211
"934",31,36,1,2,214,3,1,0,1,1.24247367912291,1.29145210244299
"935",31,21,1,2,215,2,1,0,3,0.711019884261413,0.646802736910976
"936",31,32,1,2,216,2,2,1,3,0.542900391136242,0.55197703003798
"937",31,23,1,1,217,1,1,1,4,0.211306620872656,0.292738532152649
"938",31,33,1,1,218,3,1,1,2,1.13395721787659,1.12368651097536
"939",31,40,1,2,219,3,1,0,2,0.718435210256801,0.686464018446402
"940",31,39,1,1,220,3,1,1,3,0.728284909389658,0.737245952036429
"941",31,39,1,1,221,2,2,0,3,0.401696623517265,0.435109184238597
"942",31,26,1,2,222,2,1,0,3,0.684482261207969,0.577829231187302
"943",31,23,1,1,223,3,2,0,1,1.0779709016561,1.0843167439805
"944",31,36,1,1,224,1,1,1,4,0.306571528507474,0.364075302312358
"945",31,21,1,2,225,1,2,1,4,0.442969702751011,0.424146611855051
"946",31,32,1,2,226,3,1,0,2,0.741968701079607,0.717420419121508
"947",31,23,1,1,227,1,1,1,5,0.532887062370023,0.44071144764374
"948",31,33,1,2,228,2,1,0,2,0.898332630734967,0.906234398073821
"949",31,40,1,2,229,1,2,1,5,0.562274177177982,0.564274603068788
"950",31,39,1,2,230,3,1,0,1,1.03188365741958,1.03154923403827
"951",31,39,1,1,231,3,1,1,3,0.957567142817633,0.959731038008573
"952",31,26,1,1,232,2,1,1,3,0.678173693607231,0.738659439198852
"953",31,23,1,2,233,2,2,1,3,0.732467075239394,0.723618130753811
"954",31,36,1,2,234,2,2,1,4,0.645904180933872,0.571364950581892
"955",31,21,1,2,235,2,1,0,3,0.821195167769943,0.823567896955196
"956",31,32,1,1,236,2,1,1,3,0.607001537646458,0.577199850053765
"957",31,23,1,1,237,3,2,0,2,0.767508205338557,0.687229319533066
"958",31,33,1,2,238,1,1,0,3,0.348424254767741,0.285153659037033
"959",31,40,1,1,239,3,1,1,2,0.70404829863511,0.719235521611013
"960",31,39,1,1,240,1,1,1,4,0.298061376091442,0.307365595259592
"961",30,33,2,1,1,2,2,0,2,0.727858766188425,0.761275605921261
"962",30,34,2,1,2,3,2,0,2,1.48397929116957,1.50585086637306
"963",30,27,2,2,3,1,2,1,5,0.523575857031506,0.477948649077708
"964",30,20,2,2,4,3,1,0,1,1.26504795580157,1.27914098660242
"965",30,18,2,2,5,3,1,0,1,1.70212307089747,1.6355243753274
"966",30,18,2,2,6,2,2,1,3,0.630659920614686,0.729145270781512
"967",30,37,2,1,7,1,1,1,4,0.268960215624396,0.1387770314374
"968",30,28,2,2,8,1,2,1,5,0.478085675113666,0.413926137522448
"969",30,26,2,2,9,1,2,1,5,0.326910135781256,0.366737657767244
"970",30,21,2,1,10,3,1,1,2,0.759800329153404,0.718775580630754
"971",30,33,2,1,11,1,1,1,4,0.360050442094358,0.191054138105676
"972",30,34,2,1,12,1,1,1,4,0.347035900607325,0.425631747327213
"973",30,27,2,2,13,1,2,1,4,0.32410887814543,0.291858701342158
"974",30,20,2,2,14,1,2,1,5,0.252007812257521,0.199197407473179
"975",30,18,2,2,15,1,2,1,4,0.470894486853069,0.519560318997932
"976",30,18,2,2,16,2,1,0,3,0.707336624464473,0.665355560051531
"977",30,37,2,1,17,3,1,1,2,1.00042274324816,1.02369281313092
"978",30,28,2,1,18,2,1,1,4,0.612341167954418,0.608522989208855
"979",30,26,2,2,19,1,2,1,5,0.405362245189961,0.458937245624103
"980",30,21,2,2,20,2,2,1,4,0.781084449309112,0.794340166351435
"981",30,33,2,1,21,3,1,1,2,0.888221012518438,0.877860277921932
"982",30,34,2,1,22,2,2,0,2,0.855282696081123,0.862284580881085
"983",30,27,2,1,23,1,1,1,5,0.361332230269072,0.335373823053151
"984",30,20,2,1,24,3,2,0,2,1.04591287541593,1.06947942362252
"985",30,18,2,1,25,2,1,1,3,0.83499328056424,0.832716328673495
"986",30,18,2,2,26,3,1,0,2,1.08984137599612,0.992700685404726
"987",30,37,2,2,27,2,1,0,3,0.603145512583453,0.556437076504927
"988",30,28,2,2,28,1,2,1,5,0.300422705792418,0.292009151409761
"989",30,26,2,2,29,2,1,0,2,0.650002997284921,0.680153463461004
"990",30,21,2,2,30,1,2,1,4,0.314757975338155,0.378194942126842
"991",30,33,2,2,31,1,2,1,4,0.465330858763247,0.462942165904599
"992",30,34,2,2,32,3,2,1,3,0.874807317768356,0.789465906803686
"993",30,27,2,1,33,3,2,0,2,1.24127693132033,1.26138419519787
"994",30,20,2,1,34,2,2,0,3,0.528149303746894,0.516486737894061
"995",30,18,2,2,35,2,2,1,4,0.73316523742862,0.748024939071181
"996",30,18,2,2,36,1,2,1,5,0.451379464459355,0.431371553563354
"997",30,37,2,1,37,3,1,1,3,0.80844654174609,0.778227471495374
"998",30,28,2,1,38,1,1,1,4,0.410315249361329,0.362525327982417
"999",30,26,2,2,39,2,1,0,2,0.615845509172086,0.594187783877099
"1000",30,21,2,2,40,2,1,0,2,0.96634446628685,1.00375013275243
"1001",30,33,2,1,41,2,1,1,3,0.839361732686242,0.910860305282014
"1002",30,34,2,1,42,3,1,1,3,0.980147786325011,0.998448898684731
"1003",30,27,2,1,43,1,1,1,4,0.478871481839813,0.483522690804471
"1004",30,20,2,1,44,3,2,0,1,0.994049786487619,0.934514002362543
"1005",30,18,2,1,45,3,2,0,2,0.992836335213123,1.00961724167239
"1006",30,18,2,1,46,2,1,1,3,0.701548349486478,0.630917245601956
"1007",30,37,2,2,47,3,1,0,2,1.14994961127324,1.12780830980663
"1008",30,28,2,1,48,2,2,0,2,0.621025776901127,0.512991884459901
"1009",30,26,2,1,49,2,1,1,4,0.511604137724059,0.480364428039718
"1010",30,21,2,2,50,2,1,0,3,0.668298685518681,0.674140953490527
"1011",30,33,2,1,51,1,1,1,5,0.372196941644749,0.432914348193998
"1012",30,34,2,2,52,2,2,1,4,0.525383390429834,0.622925109938461
"1013",30,27,2,1,53,2,1,1,3,0.836061086830987,0.896517759339667
"1014",30,20,2,1,54,1,1,1,4,0.353656848813853,0.215013246085907
"1015",30,18,2,1,55,2,1,1,4,0.653368453371115,0.729282423820214
"1016",30,18,2,1,56,2,1,1,4,0.710821589627131,0.658984867989401
"1017",30,37,2,2,57,3,1,0,2,1.05158715032718,1.12600521038384
"1018",30,28,2,1,58,1,1,1,5,0.38281672987436,0.425923288620574
"1019",30,26,2,2,59,3,2,1,2,0.860565740049099,0.790648783095118
"1020",30,21,2,2,60,2,1,0,3,0.634319592198023,0.683151190729854
"1021",30,33,2,1,61,1,1,1,5,0.410771979183895,0.435852969517334
"1022",30,34,2,2,62,3,2,1,2,1.17734071784382,1.22303038887716
"1023",30,27,2,1,63,3,1,1,2,0.956378030206296,0.955182591272224
"1024",30,20,2,2,64,3,1,0,1,1.00263087498447,1.01670082299444
"1025",30,18,2,2,65,1,2,1,5,0.383113263176902,0.370616775831822
"1026",30,18,2,1,66,3,1,1,3,0.792157054093256,0.887288950485115
"1027",30,37,2,1,67,1,1,1,5,0.397054931840874,0.38114954921611
"1028",30,28,2,2,68,3,2,1,3,0.680131860475445,0.644717293664027
"1029",30,26,2,2,69,1,2,1,5,0.394021207129453,0.350570564657684
"1030",30,21,2,2,70,2,1,0,2,0.676378275084862,0.739086906200181
"1031",30,33,2,2,71,2,2,1,4,0.51910864851843,0.547490177245973
"1032",30,34,2,2,72,3,1,0,1,0.951153737087458,0.888227902621516
"1033",30,27,2,2,73,2,2,1,4,0.621475588454695,0.621383816723972
"1034",30,20,2,2,74,2,1,0,2,0.673586570754657,0.630849981241007
"1035",30,18,2,2,75,2,1,0,2,0.704430933790293,0.651897138265324
"1036",30,18,2,1,76,1,1,1,5,0.19172291051711,0.141511653828338
"1037",30,37,2,2,77,3,2,1,2,0.742681009426022,0.740292409608593
"1038",30,28,2,1,78,2,1,1,3,0.540489389667198,0.504564386844374
"1039",30,26,2,2,79,3,1,0,1,0.979355277326524,1.00030754043619
"1040",30,21,2,2,80,3,1,0,2,0.921881600101019,0.879102617270598
"1041",30,33,2,2,81,2,2,1,3,0.69218890830271,0.832325483531822
"1042",30,34,2,1,82,1,1,1,5,0.347279310873754,0.355241741568474
"1043",30,27,2,2,83,1,1,0,3,0.800001036036942,0.797288147054703
"1044",30,20,2,2,84,3,2,1,2,0.736389124294314,0.714835183025645
"1045",30,18,2,1,85,2,2,0,2,0.7378097057445,0.790611187098621
"1046",30,18,2,1,86,2,1,1,4,0.678054653045776,0.706179558909851
"1047",30,37,2,2,87,3,2,1,2,1.00378922854669,0.980197973082524
"1048",30,28,2,2,88,1,2,1,5,0.632229635164744,0.749515834190398
"1049",30,26,2,2,89,3,2,1,2,1.09860792562632,1.04122053650308
"1050",30,21,2,2,90,2,2,1,4,0.544118508785659,0.582348752448197
"1051",30,33,2,1,91,1,1,1,4,0.384739943691529,0.390479897804231
"1052",30,34,2,1,92,1,1,1,5,0.473906230548919,0.439928789166652
"1053",30,27,2,2,93,2,1,0,3,0.75247442661175,0.717996837249805
"1054",30,20,2,1,94,1,1,1,5,0.408143389316739,0.322066002890776
"1055",30,18,2,1,95,2,1,1,3,0.67030834227171,0.619057562261817
"1056",30,18,2,1,96,3,2,0,2,0.432603773488633,0.404036568993687
"1057",30,37,2,1,97,2,2,0,2,0.679438533840509,0.60323774671245
"1058",30,28,2,1,98,3,2,0,2,0.575897580348443,0.648190582732307
"1059",30,26,2,1,99,2,1,1,3,0.524845205269873,0.463233666653144
"1060",30,21,2,1,100,2,1,1,4,0.622969503890827,0.679654621927518
"1061",30,33,2,1,101,2,1,1,4,0.485400807537028,0.502909198500655
"1062",30,34,2,1,102,2,1,1,3,0.855571676780641,0.81538510818653
"1063",30,27,2,1,103,3,1,1,3,0.957305972363378,1.06129834519771
"1064",30,20,2,2,104,2,2,1,3,0.813565305142781,0.796763488325363
"1065",30,18,2,2,105,2,2,1,3,0.518194755419521,0.508894108605005
"1066",30,18,2,1,106,1,1,1,5,0.35690406055887,0.321395415443645
"1067",30,37,2,1,107,3,2,0,2,1.13993559710891,1.23468628406374
"1068",30,28,2,2,108,1,2,1,4,0.411434908278965,0.360433457791005
"1069",30,26,2,1,109,1,1,1,4,0.439312812322247,0.469721093284184
"1070",30,21,2,2,110,2,1,0,2,0.629862918088198,0.656649250078678
"1071",30,33,2,1,111,1,1,1,4,0.259569268931678,0.274165378013937
"1072",30,34,2,2,112,3,2,1,2,0.862538042336041,0.898492643680293
"1073",30,27,2,2,113,1,2,1,4,0.300958344467846,0.328057795475659
"1074",30,20,2,1,114,3,1,1,3,0.826974732458428,0.83334874088482
"1075",30,18,2,1,115,2,1,1,4,0.455009847303328,0.419170230826833
"1076",30,18,2,1,116,2,2,0,2,0.723309554762283,0.713017859273903
"1077",30,37,2,2,117,1,1,0,4,0.45212475439985,0.469894752845352
"1078",30,28,2,1,118,3,2,0,2,0.060583248551265,0.0885745027399142
"1079",30,26,2,2,119,1,2,1,4,0.369769357521156,0.389802150138696
"1080",30,21,2,1,120,2,2,0,3,0.875008289886322,0.846293605703833
"1081",30,33,2,1,121,1,2,0,3,0.636916583834775,0.67900142466708
"1082",30,34,2,1,122,1,1,1,5,0.358819821658244,0.373328615294419
"1083",30,27,2,1,123,2,2,0,2,0.906201183511469,0.86983722453358
"1084",30,20,2,2,124,2,2,1,3,0.949647682993134,0.891811147763215
"1085",30,18,2,2,125,2,1,0,2,0.809663557351965,0.83056935220733
"1086",30,18,2,2,126,2,2,1,3,0.744525835895752,0.775545441306739
"1087",30,37,2,2,127,2,1,0,2,0.758096266950657,0.668252743123768
"1088",30,28,2,1,128,2,1,1,3,0.589429492339733,0.64745581030822
"1089",30,26,2,1,129,1,2,0,3,0.607580242974765,0.604337501481799
"1090",30,21,2,1,130,1,1,1,5,0.413271302077946,0.395316067845205
"1091",30,33,2,2,131,2,2,1,3,0.309722519127304,0.261521835854097
"1092",30,34,2,1,132,2,1,1,3,0.352596391936357,0.346518347943642
"1093",30,27,2,2,133,3,2,1,3,0.874261627357226,0.855533915075288
"1094",30,20,2,2,134,1,1,0,3,0.524090214338543,0.464762424311257
"1095",30,18,2,2,135,3,2,1,2,0.949921710452155,0.999516920734706
"1096",30,18,2,1,136,3,2,0,2,1.45585677684205,1.3818523923018
"1097",30,37,2,1,137,2,1,1,4,0.691609580820344,0.64744807646535
"1098",30,28,2,1,138,1,1,1,4,0.407029501544916,0.347899664622946
"1099",30,26,2,2,139,3,2,1,2,0.642693647373194,0.656709863110769
"1100",30,21,2,2,140,3,1,0,1,1.15305846366858,1.18036680162764
"1101",30,33,2,2,141,3,2,1,3,0.904434974807129,1.01683337480445
"1102",30,34,2,1,142,3,1,1,3,0.589887140911061,0.562827053040787
"1103",30,27,2,2,143,1,2,1,4,0.501031652071747,0.508620499538611
"1104",30,20,2,1,144,1,1,1,4,0.411646451534511,0.382981804547712
"1105",30,18,2,2,145,2,1,0,3,0.47692693347395,0.428088225642255
"1106",30,18,2,1,146,3,1,1,2,1.01914340495778,1.03429890388397
"1107",30,37,2,2,147,2,1,0,3,0.868613567477578,0.930912635502317
"1108",30,28,2,1,148,3,2,0,2,1.59150648716607,1.6489736335288
"1109",30,26,2,2,149,1,2,1,5,0.386971206500015,0.339234778351287
"1110",30,21,2,2,150,3,1,0,2,0.842332063126134,0.844638102465741
"1111",30,33,2,2,151,1,2,1,5,0.366994298782974,0.398218177140514
"1112",30,34,2,2,152,1,2,1,4,0.336209785856931,0.313780105409948
"1113",30,27,2,1,153,1,1,1,5,0.191683884399817,0.217767730564124
"1114",30,20,2,1,154,2,1,1,4,0.778770198999979,0.751898593869958
"1115",30,18,2,2,155,2,1,0,3,0.559804117651621,0.649046692710384
"1116",30,18,2,2,156,3,2,1,2,0.831685795566269,0.788795846894876
"1117",30,37,2,2,157,1,2,1,5,0.372922373722782,0.448257681975753
"1118",30,28,2,1,158,3,1,1,2,0.95000340732531,0.838498974030558
"1119",30,26,2,2,159,3,1,0,2,0.805833436497431,0.844605091678219
"1120",30,21,2,2,160,2,1,0,2,0.642017773411161,0.648525473720937
"1121",30,33,2,1,161,3,2,0,2,0.980702499106504,1.0132754131837
"1122",30,34,2,2,162,3,2,1,3,0.695504252702571,0.661683174958832
"1123",30,27,2,2,163,3,2,1,2,0.918702060386645,0.933739062624343
"1124",30,20,2,1,164,3,1,1,2,0.852375801406904,0.821815995361228
"1125",30,18,2,2,165,1,2,1,4,0.473010666149863,0.467709075325567
"1126",30,18,2,1,166,1,2,0,3,0.392664046925962,0.420869374538223
"1127",30,37,2,2,167,3,1,0,2,0.697163215001998,0.728559274922832
"1128",30,28,2,2,168,2,2,1,3,0.353863770696532,0.376739527422832
"1129",30,26,2,1,169,1,1,1,4,0.418920607785869,0.423216436936959
"1130",30,21,2,1,170,3,1,1,3,0.740560683634074,0.683644125810133
"1131",30,33,2,2,171,1,2,1,5,0.375024778180788,0.340488324897767
"1132",30,34,2,1,172,3,1,1,2,1.03205923009766,1.04251525064981
"1133",30,27,2,1,173,1,1,1,4,0.256442412866498,0.271367637763401
"1134",30,20,2,1,174,1,1,1,5,0.561753354737638,0.590500397912589
"1135",30,18,2,1,175,3,2,0,1,1.0316069305633,1.05099813643017
"1136",30,18,2,2,176,3,1,0,1,1.29208015100643,1.30236329840085
"1137",30,37,2,1,177,1,1,1,4,0.395720132454928,0.340498606443453
"1138",30,28,2,2,178,3,2,1,2,1.07837985019539,1.04434933230107
"1139",30,26,2,1,179,3,2,0,1,0.641759855197899,0.740439370318788
"1140",30,21,2,1,180,3,2,0,1,0.644790598958422,0.574918619646069
"1141",30,33,2,2,181,3,1,0,1,1.03441188208232,1.05034274731977
"1142",30,34,2,1,182,2,1,1,3,0.723269439103522,0.736551938202125
"1143",30,27,2,1,183,2,2,0,3,0.604587539168944,0.626479928617942
"1144",30,20,2,1,184,1,1,1,4,0.391321412834478,0.390643825570584
"1145",30,18,2,2,185,3,1,0,2,0.485318846391798,0.453431342641997
"1146",30,18,2,2,186,3,1,0,2,0.883259781038851,0.901352838232143
"1147",30,37,2,2,187,3,1,0,1,1.3316655651152,1.356574547226
"1148",30,28,2,2,188,2,2,1,3,0.71074751084744,0.704566160717851
"1149",30,26,2,1,189,2,2,0,2,0.66869426480067,0.711661850211806
"1150",30,21,2,2,190,2,1,0,2,0.568845020281831,0.646748772523728
"1151",30,33,2,1,191,3,1,1,2,0.782317642523198,0.824027979248639
"1152",30,34,2,1,192,2,2,0,2,0.912866355622215,0.981530663597273
"1153",30,27,2,2,193,2,1,0,3,0.814306432428746,0.871087686871015
"1154",30,20,2,2,194,2,2,1,4,0.739580765454107,0.751558613068638
"1155",30,18,2,2,195,3,1,0,2,0.658243834299014,0.66668859240724
"1156",30,18,2,1,196,3,1,1,3,0.775601940746262,0.796239187809586
"1157",30,37,2,1,197,2,1,1,4,0.7087805215734,0.736982238292641
"1158",30,28,2,2,198,3,2,1,3,0.768096356292589,0.810832441581575
"1159",30,26,2,2,199,3,2,1,2,0.739445795996938,0.743039310466819
"1160",30,21,2,2,200,2,2,1,4,0.903968559937422,0.929053369186644
"1161",30,33,2,1,201,3,1,1,2,0.839647648841397,0.865821219840665
"1162",30,34,2,1,202,2,1,1,3,0.596572622769489,0.62042564622527
"1163",30,27,2,1,203,2,2,0,3,0.487860257452946,0.476010912463949
"1164",30,20,2,1,204,1,1,1,5,0.293190866146737,0.280115436827023
"1165",30,18,2,1,205,1,1,1,5,0.465484974586054,0.465643072552964
"1166",30,18,2,2,206,1,1,0,3,0.56278543655493,0.577645569606648
"1167",30,37,2,1,207,1,1,1,4,0.446665780654619,0.421207120572783
"1168",30,28,2,1,208,1,1,1,4,0.405487836229331,0.399564550195488
"1169",30,26,2,2,209,2,2,1,3,0.630846140430518,0.572524124044124
"1170",30,21,2,2,210,1,2,1,4,0.394995099857376,0.455515863822783
"1171",30,33,2,1,211,1,1,1,5,0.425783613122018,0.465876489361251
"1172",30,34,2,1,212,3,1,1,2,0.92822733372538,0.89895252178238
"1173",30,27,2,1,213,2,1,1,3,0.806684490668615,0.832606001676001
"1174",30,20,2,1,214,1,1,1,4,0.416002944075669,0.438471807764297
"1175",30,18,2,1,215,2,2,0,2,0.808203563326223,0.769473226977773
"1176",30,18,2,1,216,3,1,1,3,0.81346755035686,0.754531858434271
"1177",30,37,2,2,217,2,1,0,2,0.843713996463791,0.865514109542331
"1178",30,28,2,1,218,1,1,1,5,0.355321456555864,0.340105378697704
"1179",30,26,2,2,219,1,2,1,5,0.286331021258189,0.361786634620377
"1180",30,21,2,2,220,1,2,1,4,0.461072819795057,0.451548326160615
"1181",30,33,2,2,221,3,2,1,3,0.722442167130283,0.769178420314113
"1182",30,34,2,1,222,1,1,1,5,0.369072822146682,0.341264400535491
"1183",30,27,2,1,223,1,1,1,4,0.253636762291561,0.276406259127452
"1184",30,20,2,1,224,3,1,1,2,0.916877440425531,1.00373445611621
"1185",30,18,2,2,225,3,2,1,2,0.91352543504501,0.853434725415354
"1186",30,18,2,2,226,3,1,0,1,1.69350777877571,1.67243273042364
"1187",30,37,2,2,227,1,2,1,4,0.515606643068449,0.456011908477941
"1188",30,28,2,2,228,1,2,1,4,0.43873806576722,0.440113175924911
"1189",30,26,2,2,229,1,2,1,4,0.4850559105849,0.439595471762939
"1190",30,21,2,2,230,2,2,1,3,0.350612900861475,0.336899907190707
"1191",30,33,2,1,231,3,1,1,2,1.17393997064416,1.26030179363043
"1192",30,34,2,2,232,2,1,0,2,0.936047806422969,0.872371373354753
"1193",30,27,2,1,233,1,2,0,3,0.43706677408505,0.425172179910748
"1194",30,20,2,1,234,3,2,0,2,1.07721896448262,1.01151684119264
"1195",30,18,2,1,235,3,2,0,2,0.676623193168112,0.746671714251939
"1196",30,18,2,2,236,1,2,1,4,0.328458603860397,0.351180375280368
"1197",30,37,2,2,237,2,2,1,4,0.627800615415035,0.644197194226092
"1198",30,28,2,2,238,1,2,1,4,0.470673122628302,0.437815039233612
"1199",30,26,2,2,239,1,2,1,4,0.292444666312994,0.275430046953486
"1200",30,21,2,1,240,1,1,1,5,0.444001332001913,0.501090836153187
"1201",29,30,1,2,1,3,2,1,2,0.729144241443875,0.752850710425862
"1202",29,38,1,2,2,3,1,0,2,1.62741749818824,1.60520936693523
"1203",29,35,1,1,3,1,1,1,5,0.471166270813021,0.339095234494554
"1204",29,36,1,2,4,1,1,0,4,0.732097062687971,0.809777533630179
"1205",29,20,1,1,5,1,1,1,4,0.3091604877554,0.273223109302683
"1206",29,33,1,2,6,1,2,1,4,0.359534632591077,0.395112325560319
"1207",29,37,1,2,7,2,1,0,3,0.65248354529194,0.635145038965586
"1208",29,38,1,1,8,3,1,1,2,0.902519204149112,0.927810824549896
"1209",29,38,1,1,9,3,1,1,2,0.526720233387621,0.563974762218966
"1210",29,39,1,2,10,3,2,1,2,0.936649358292018,0.887267867697697
"1211",29,30,1,2,11,3,1,0,1,1.2261280524263,1.23145688978868
"1212",29,38,1,2,12,2,2,1,3,0.326163331275522,0.316067165544688
"1213",29,35,1,2,13,3,2,1,3,0.975821209642398,0.922295441034528
"1214",29,36,1,1,14,1,1,1,5,0.285342445857507,0.289085576856559
"1215",29,20,1,2,15,3,1,0,2,0.165870060647573,0.0532667690724729
"1216",29,33,1,1,16,1,2,0,3,0.513629451035835,0.551487998774512
"1217",29,37,1,2,17,1,2,1,5,0.39594387553363,0.322206365210684
"1218",29,38,1,1,18,3,2,0,2,0.527052947150303,0.503894092454147
"1219",29,38,1,2,19,1,2,1,5,0.394679529501213,0.368056859787631
"1220",29,39,1,2,20,2,2,1,4,0.644048129067717,0.637526634543963
"1221",29,30,1,2,21,2,2,1,3,0.537247754033246,0.549305867622278
"1222",29,38,1,1,22,1,1,1,4,0.388989165427193,0.387313533363521
"1223",29,35,1,2,23,1,1,0,3,0.458879154194548,0.453939373996888
"1224",29,36,1,1,24,3,2,0,2,0.572688931291743,0.583260340825283
"1225",29,20,1,2,25,3,1,0,1,1.24057975317214,1.32814349707599
"1226",29,33,1,1,26,1,1,1,5,0.4466673900651,0.377208421340633
"1227",29,37,1,1,27,2,2,0,3,0.986699510225785,1.03742388594695
"1228",29,38,1,1,28,2,1,1,4,0.527953645076783,0.50673011200719
"1229",29,38,1,2,29,2,1,0,3,0.54716099614336,0.544367604679237
"1230",29,39,1,1,30,3,1,1,2,0.82347121483236,0.85387304504798
"1231",29,30,1,1,31,1,1,1,5,0.558458890505858,0.552009117749051
"1232",29,38,1,1,32,3,1,1,3,0.755546599102935,0.764285154858559
"1233",29,35,1,2,33,1,1,0,3,0.50701587859407,0.443626056191075
"1234",29,36,1,1,34,3,1,1,2,1.02370794765822,1.01332623928681
"1235",29,20,1,2,35,1,2,1,5,0.400076502486223,0.453778276606576
"1236",29,33,1,2,36,2,2,1,4,0.528175914510548,0.506338362307915
"1237",29,37,1,2,37,2,1,0,2,0.432302028794616,0.430169798521398
"1238",29,38,1,1,38,3,2,0,2,0.955380197254785,0.919429081919659
"1239",29,38,1,2,39,2,2,1,3,0.687655637187633,0.634472563015069
"1240",29,39,1,1,40,2,2,0,3,0.596590732513743,0.630987261252454
"1241",29,30,1,1,41,1,2,0,4,0.584314034519271,0.588621017325568
"1242",29,38,1,2,42,1,2,1,4,0.34510138170068,0.244520800101582
"1243",29,35,1,1,43,3,2,0,1,1.47898057033306,1.53476258068532
"1244",29,36,1,2,44,2,2,1,3,0.718055418841965,0.712213761077074
"1245",29,20,1,1,45,1,1,1,5,0.43685954339576,0.399375204609993
"1246",29,33,1,2,46,2,1,0,2,0.371968986546729,0.346441723681844
"1247",29,37,1,1,47,3,1,1,3,0.612022516823588,0.626632727175455
"1248",29,38,1,1,48,2,2,0,2,0.732415259519259,0.704898601854287
"1249",29,38,1,1,49,1,1,1,5,0.390491964835402,0.314568736359905
"1250",29,39,1,2,50,1,2,1,5,0.377415915375663,0.273108616607438
"1251",29,30,1,1,51,3,1,1,2,1.15438756311077,1.13313443990173
"1252",29,38,1,2,52,2,1,0,3,0.620578402352746,0.64576596624141
"1253",29,35,1,1,53,1,1,1,4,0.343473734811345,0.271093210859218
"1254",29,36,1,1,54,2,1,1,4,0.59322190429074,0.532998585168985
"1255",29,20,1,2,55,1,2,1,4,0.586734073902304,0.51842672341854
"1256",29,33,1,2,56,3,2,1,2,0.48153274751189,0.450787067630806
"1257",29,37,1,1,57,2,2,0,2,0.781098070625595,0.783958695600003
"1258",29,38,1,2,58,2,2,1,4,0.603175234217704,0.61250165526934
"1259",29,38,1,2,59,1,2,1,5,0.517142472332891,0.567021229285604
"1260",29,39,1,1,60,2,1,1,3,0.842323747123391,0.863690714791592
"1261",29,30,1,2,61,2,1,0,3,0.905006795440407,0.850389812089873
"1262",29,38,1,1,62,3,1,1,2,0.571274122256829,0.567723719817064
"1263",29,35,1,2,63,3,2,1,3,0.862960241346227,0.907905127573156
"1264",29,36,1,2,64,3,1,0,1,0.87468659380311,0.892647583790559
"1265",29,20,1,1,65,1,2,0,4,0.600404101369549,0.453678379822578
"1266",29,33,1,2,66,2,1,0,2,0.601913781772628,0.632955965663613
"1267",29,37,1,1,67,2,1,1,4,0.45826869005363,0.436620955057429
"1268",29,38,1,1,68,2,1,1,3,0.437873088351414,0.494221465059121
"1269",29,38,1,2,69,3,1,0,1,1.35981539610761,1.38474157729201
"1270",29,39,1,1,70,2,2,0,2,0.74897107675622,0.747644167410891
"1271",29,30,1,2,71,2,2,1,4,0.573151103501466,0.581908255169664
"1272",29,38,1,1,72,2,2,0,3,0.793427723885127,0.717016383215167
"1273",29,35,1,1,73,3,2,0,2,1.50220038364994,1.5891203554529
"1274",29,36,1,1,74,3,2,0,2,0.92433534871158,0.970637311259751
"1275",29,20,1,2,75,3,2,1,2,0.943974767648594,0.954022552840933
"1276",29,33,1,2,76,2,2,1,3,0.542590027668554,0.592306133035191
"1277",29,37,1,1,77,1,1,1,4,0.338123562420813,0.331418168423222
"1278",29,38,1,2,78,3,1,0,1,1.00463661078969,1.019433029433
"1279",29,38,1,1,79,1,1,1,5,0.303368289029697,0.3757831122167
"1280",29,39,1,1,80,1,1,1,5,0.334602894615581,0.402742720357563
"1281",29,30,1,1,81,1,1,1,5,0.296042347363137,0.238810672462801
"1282",29,38,1,2,82,2,2,1,4,0.594601522667461,0.547005959727273
"1283",29,35,1,1,83,1,2,0,4,0.57583753246914,0.546453605563138
"1284",29,36,1,2,84,3,1,0,2,0.251297651660269,0.290949301466554
"1285",29,20,1,2,85,1,2,1,4,0.260213772029077,0.307411415746741
"1286",29,33,1,2,86,2,1,0,3,0.783497586529362,0.715366480796771
"1287",29,37,1,1,87,2,2,0,2,0.754227291804075,0.749196058367088
"1288",29,38,1,2,88,3,2,1,3,0.546173858556155,0.534218593136897
"1289",29,38,1,2,89,3,1,0,2,1.51703629927839,1.52844065890799
"1290",29,39,1,1,90,1,1,1,4,0.579027114407867,0.58110415764807
"1291",29,30,1,2,91,1,2,1,4,0.439309851283676,0.473948255967073
"1292",29,38,1,2,92,2,1,0,2,0.671127585611516,0.744305765474824
"1293",29,35,1,1,93,3,1,1,3,0.976751775057691,0.90461804826911
"1294",29,36,1,2,94,3,2,1,2,0.850916814426983,0.848386985625396
"1295",29,20,1,1,95,3,2,0,1,0.585046196373903,0.569174121716633
"1296",29,33,1,1,96,3,1,1,3,1.10384716717254,1.08058323858491
"1297",29,37,1,1,97,1,2,0,4,0.73442621351482,0.728723095065979
"1298",29,38,1,1,98,3,2,0,2,0.84450994398547,0.708795490274193
"1299",29,38,1,2,99,2,1,0,3,0.602776911853404,0.715462075037014
"1300",29,39,1,2,100,2,2,1,3,0.693591533177326,0.644288985971632
"1301",29,30,1,1,101,3,2,0,1,-0.353973512460705,-0.359286066046096
"1302",29,38,1,1,102,1,1,1,4,0.447647668027314,0.400023844160839
"1303",29,35,1,1,103,3,1,1,3,0.650116178506279,0.683293435430905
"1304",29,36,1,1,104,3,2,0,1,0.947152376815955,0.983521835867581
"1305",29,20,1,1,105,3,2,0,1,0.994047878134363,1.06354761839575
"1306",29,33,1,2,106,1,1,0,3,0.461782838879781,0.376984896448792
"1307",29,37,1,1,107,3,1,1,2,0.779201383922484,0.786522916129107
"1308",29,38,1,1,108,1,1,1,4,0.40892819015141,0.409833301933462
"1309",29,38,1,1,109,1,1,1,4,0.405932913910739,0.418562471219329
"1310",29,39,1,2,110,3,2,1,3,1.05808349048952,1.05173200954286
"1311",29,30,1,1,111,2,2,0,2,0.527028251845489,0.533261601277207
"1312",29,38,1,1,112,2,2,0,2,1.07615997441151,1.06988974724149
"1313",29,35,1,1,113,1,1,1,5,0.406057892910686,0.438708685972254
"1314",29,36,1,1,114,1,1,1,4,0.319548698909617,0.251911733153579
"1315",29,20,1,1,115,2,2,0,3,0.664156925522216,0.714213229512876
"1316",29,33,1,2,116,2,1,0,2,0.861615812250245,0.899839258618277
"1317",29,37,1,1,117,3,1,1,2,0.840921154921052,0.822079011310977
"1318",29,38,1,2,118,1,2,1,5,0.457997788052081,0.361420886490713
"1319",29,38,1,2,119,1,2,1,5,0.433438314284937,0.421433023302829
"1320",29,39,1,2,120,2,2,1,4,0.684890856407887,0.736391380043434
"1321",29,30,1,1,121,2,1,1,4,0.662318445612427,0.662100797167423
"1322",29,38,1,2,122,1,1,0,4,0.650648182926228,0.686137948576673
"1323",29,35,1,2,123,1,2,1,5,0.405271324611274,0.522612463312787
"1324",29,36,1,2,124,2,1,0,3,0.818191383107732,0.797344212189005
"1325",29,20,1,2,125,2,1,0,2,0.911937442279174,0.943232987601139
"1326",29,33,1,1,126,2,2,0,2,0.683223021585091,0.669469391167113
"1327",29,37,1,1,127,2,1,1,3,0.467452197030465,0.535033262205748
"1328",29,38,1,1,128,2,2,0,2,0.697221933879802,0.722401484164256
"1329",29,38,1,1,129,2,1,1,4,0.503626146141368,0.53161206394124
"1330",29,39,1,1,130,1,1,1,5,0.332416428617574,0.316369949548569
"1331",29,30,1,2,131,3,1,0,1,0.590837002600825,0.612395862469909
"1332",29,38,1,2,132,1,2,1,5,0.455572904285046,0.506958979491102
"1333",29,35,1,1,133,1,1,1,4,0.362857361692875,0.340783712210988
"1334",29,36,1,2,134,2,2,1,3,0.806177801962033,0.842371894600593
"1335",29,20,1,1,135,1,2,0,4,0.568622273674487,0.646391407593484
"1336",29,33,1,1,136,1,1,1,5,0.365289676465255,0.355410155576964
"1337",29,37,1,2,137,2,2,1,4,0.584033776967864,0.501583955705827
"1338",29,38,1,1,138,1,1,1,5,0.318318074726632,0.347912798856521
"1339",29,38,1,2,139,1,2,1,4,0.465737983176896,0.490293973161097
"1340",29,39,1,1,140,3,1,1,3,0.762245800131646,0.767660441606985
"1341",29,30,1,2,141,2,1,0,2,0.56539275679283,0.615002180947504
"1342",29,38,1,2,142,1,2,1,4,0.285776729293272,0.260979058984694
"1343",29,35,1,2,143,3,1,0,1,1.21198813018913,1.14697556443563
"1344",29,36,1,1,144,2,1,1,4,0.648557536470013,0.696324910374987
"1345",29,20,1,1,145,1,1,1,4,0.548433049491177,0.540155490041714
"1346",29,33,1,1,146,1,1,1,4,0.327548440018012,0.332529779101067
"1347",29,37,1,2,147,3,2,1,2,0.651906811291548,0.589950141604189
"1348",29,38,1,1,148,2,1,1,4,0.806538816433591,0.771742332044416
"1349",29,38,1,2,149,2,1,0,2,0.764214148960969,0.802297305189696
"1350",29,39,1,2,150,2,2,1,3,0.49735409842217,0.492319794212723
"1351",29,30,1,1,151,1,2,0,3,0.637125116586167,0.55995764190757
"1352",29,38,1,1,152,2,2,0,2,0.915448549423868,0.864335662646785
"1353",29,35,1,1,153,2,2,0,3,0.439080783083959,0.406024987056783
"1354",29,36,1,1,154,3,2,0,2,0.575824751476046,0.591785468395439
"1355",29,20,1,1,155,3,1,1,2,0.411373847928684,0.507137589615192
"1356",29,33,1,2,156,3,1,0,2,1.19396604276655,1.07080222827083
"1357",29,37,1,1,157,1,2,0,3,0.455315327778199,0.383791334413759
"1358",29,38,1,2,158,3,2,1,2,0.729826222462381,0.74431756553999
"1359",29,38,1,1,159,1,1,1,5,0.405333424891686,0.452797107316857
"1360",29,39,1,1,160,1,1,1,5,0.367296609951928,0.40509172415033
"1361",29,30,1,2,161,3,1,0,2,0.831187323863674,0.820372685417193
"1362",29,38,1,1,162,2,2,0,3,0.677376783116306,0.709462947388863
"1363",29,35,1,2,163,1,2,1,5,0.490355656382074,0.491034463483227
"1364",29,36,1,1,164,3,2,0,1,0.763192464915779,0.756136491636754
"1365",29,20,1,1,165,2,2,0,2,0.980818173773086,0.953323540325218
"1366",29,33,1,1,166,3,1,1,2,0.702979396771434,0.72418596353027
"1367",29,37,1,2,167,1,2,1,4,0.423024959380953,0.387463357418072
"1368",29,38,1,1,168,3,1,1,3,0.852946409510398,0.8484317494551
"1369",29,38,1,1,169,1,1,1,5,0.438837097212915,0.408101540772237
"1370",29,39,1,2,170,2,2,1,4,0.55749170026785,0.53911590329964
"1371",29,30,1,1,171,1,1,1,4,0.467974715965659,0.47538950469916
"1372",29,38,1,2,172,1,2,1,4,0.34037987115636,0.429498588464487
"1373",29,35,1,1,173,1,1,1,4,0.33004807708259,0.323367429399062
"1374",29,36,1,2,174,3,2,1,2,0.79160697603526,0.757929804701437
"1375",29,20,1,1,175,2,1,1,3,0.527610101886137,0.532056933528574
"1376",29,33,1,2,176,2,1,0,3,0.836268012776817,0.919225933257344
"1377",29,37,1,1,177,2,1,1,3,0.839722140457375,0.841240359370031
"1378",29,38,1,2,178,3,1,0,2,0.495897212117808,0.536419063520538
"1379",29,38,1,2,179,3,2,1,3,0.899456709054894,0.974227557903038
"1380",29,39,1,2,180,3,1,0,2,1.41322196998259,1.43644701439708
"1381",29,30,1,2,181,2,1,0,2,0.733098527277675,0.731679466041786
"1382",29,38,1,1,182,3,2,0,1,0.968074440822172,0.988167985827983
"1383",29,35,1,2,183,2,1,0,2,0.952605497350468,0.93767344942057
"1384",29,36,1,2,184,2,1,0,2,0.68056346225271,0.736526129770062
"1385",29,20,1,2,185,2,2,1,4,0.575074270350311,0.569359568617494
"1386",29,33,1,1,186,2,2,0,2,0.566645115878278,0.618915068167641
"1387",29,37,1,2,187,2,2,1,4,0.637960738161203,0.702541757365121
"1388",29,38,1,2,188,2,1,0,2,0.782066247085109,0.754026277449271
"1389",29,38,1,2,189,1,1,0,3,0.434808270739612,0.37147959644163
"1390",29,39,1,2,190,1,2,1,5,0.400868885064511,0.315936062228544
"1391",29,30,1,2,191,1,2,1,5,0.220299636989633,0.323716951611087
"1392",29,38,1,2,192,3,2,1,2,0.614445153703149,0.568255068207351
"1393",29,35,1,2,193,3,2,1,3,0.902830752481405,0.909800471721008
"1394",29,36,1,2,194,3,2,1,3,0.62779208916898,0.581098146619485
"1395",29,20,1,2,195,3,1,0,2,0.647834298237636,0.660149370267845
"1396",29,33,1,1,196,2,1,1,4,0.618969218883937,0.622590928234633
"1397",29,37,1,1,197,1,1,1,5,0.49970447609257,0.498662547240175
"1398",29,38,1,2,198,3,1,0,1,1.07483611438005,1.07732703848561
"1399",29,38,1,1,199,2,1,1,4,0.65450452473349,0.655964061509308
"1400",29,39,1,1,200,1,2,0,4,0.518222481668546,0.495410543795938
"1401",29,30,1,2,201,3,1,0,2,0.933392071882054,0.963914940414626
"1402",29,38,1,2,202,1,1,0,4,0.542992677650737,0.537913613119572
"1403",29,35,1,2,203,1,2,1,5,0.342789037982232,0.358050855589606
"1404",29,36,1,2,204,1,2,1,4,0.473411234370771,0.449961372334659
"1405",29,20,1,1,205,3,1,1,3,0.671986286596565,0.651482553759449
"1406",29,33,1,2,206,2,2,1,4,0.754521143189836,0.770190114876069
"1407",29,37,1,1,207,3,1,1,2,0.261679057154817,0.2319151679101
"1408",29,38,1,1,208,3,1,1,2,0.504697031887107,0.455724521485479
"1409",29,38,1,2,209,3,2,1,2,0.638338444218915,0.644768160905651
"1410",29,39,1,2,210,3,1,0,2,0.542125451808866,0.512073156815309
"1411",29,30,1,2,211,3,2,1,2,0.872569685416188,0.821754568343247
"1412",29,38,1,1,212,1,2,0,3,0.355000801902642,0.410322046576443
"1413",29,35,1,2,213,3,2,1,3,0.893831163143388,0.919611189168499
"1414",29,36,1,1,214,2,1,1,4,0.751833168705303,0.830314704339468
"1415",29,20,1,1,215,1,1,1,4,0.388738709377806,0.374428052214568
"1416",29,33,1,1,216,3,2,0,1,1.04149641835828,1.05967255106842
"1417",29,37,1,1,217,2,2,0,2,0.859063747527731,0.901486267838988
"1418",29,38,1,1,218,1,1,1,4,0.484376450563066,0.428982256700663
"1419",29,38,1,2,219,1,1,0,4,0.363778261839401,0.368049026416666
"1420",29,39,1,1,220,2,2,0,3,0.591189268164678,0.58700450834768
"1421",29,30,1,2,221,3,2,1,3,0.766695924717844,0.900180893612921
"1422",29,38,1,1,222,2,2,0,3,0.717935589027483,0.667027791789129
"1423",29,35,1,2,223,2,2,1,3,0.680559859765696,0.705032084209325
"1424",29,36,1,1,224,2,1,1,4,0.615609429879119,0.649371262209062
"1425",29,20,1,1,225,1,2,0,3,0.548521076730904,0.553991770067908
"1426",29,33,1,2,226,2,2,1,3,0.61323761684601,0.568529527420373
"1427",29,37,1,2,227,1,2,1,4,0.384595359774721,0.384472123625983
"1428",29,38,1,1,228,1,2,0,4,0.449936223500284,0.489483634412058
"1429",29,38,1,2,229,3,1,0,1,0.653114276917627,0.657851749558341
"1430",29,39,1,2,230,3,2,1,3,0.689931416403423,0.6426402258465
"1431",29,30,1,1,231,2,2,0,2,0.68372176144001,0.544135200662895
"1432",29,38,1,2,232,3,1,0,1,1.56998335139797,1.61035256345156
"1433",29,35,1,2,233,1,2,1,5,0.455105131963548,0.370008881840083
"1434",29,36,1,1,234,3,1,1,3,1.13554177264726,1.16706633112551
"1435",29,20,1,2,235,1,2,1,4,0.405156587714783,0.356752781209241
"1436",29,33,1,1,236,2,1,1,4,0.66204445276305,0.650615812712065
"1437",29,37,1,2,237,3,2,1,3,0.438314628272517,0.432196799325457
"1438",29,38,1,2,238,1,2,1,5,0.428367731248047,0.316688394141202
"1439",29,38,1,1,239,3,1,1,3,0.717427480814201,0.729855243871887
"1440",29,39,1,2,240,2,1,0,2,0.55519998875095,0.508929545981813
"1441",28,23,2,1,1,1,1,1,5,0.387343890952466,0.349009135730153
"1442",28,40,2,1,2,3,1,1,3,0.762461055761239,0.694506562332376
"1443",28,38,2,2,3,3,2,1,3,0.806950636240506,0.839091438281853
"1444",28,34,2,1,4,3,2,0,2,0.994872055273969,1.05307558646981
"1445",28,40,2,1,5,2,1,1,4,0.573362599594723,0.547018117564579
"1446",28,38,2,1,6,1,1,1,4,0.466316549498131,0.438035535192808
"1447",28,33,2,2,7,1,2,1,5,0.423248291782582,0.478834867455161
"1448",28,37,2,2,8,2,1,0,2,0.48834655341069,0.521833600682041
"1449",28,23,2,1,9,1,1,1,4,0.393811552992959,0.377826112460387
"1450",28,36,2,1,10,1,1,1,5,0.466624139002048,0.512480918513659
"1451",28,23,2,1,11,1,1,1,4,0.507627494055794,0.552232551156928
"1452",28,40,2,2,12,1,1,0,4,0.556412076077364,0.601960132356393
"1453",28,38,2,2,13,2,1,0,2,0.479448802078884,0.531392018117702
"1454",28,34,2,1,14,2,2,0,3,0.878038442865458,0.858084785167201
"1455",28,40,2,1,15,2,2,0,3,0.90028308273333,0.98486486275866
"1456",28,38,2,1,16,1,2,0,4,0.332119741453864,0.333411001001136
"1457",28,33,2,1,17,3,1,1,3,0.925613186941832,0.91045447752721
"1458",28,37,2,1,18,3,2,0,2,0.823897170379233,0.899362386607059
"1459",28,23,2,2,19,1,2,1,5,0.462583529737357,0.449341356555351
"1460",28,36,2,2,20,2,2,1,3,0.487402168805008,0.512112376214975
"1461",28,23,2,2,21,3,1,0,2,1.18406908082874,1.18473720680844
"1462",28,40,2,2,22,2,2,1,3,0.569997687931821,0.587142549930713
"1463",28,38,2,1,23,2,1,1,3,0.661271581739622,0.672684014941558
"1464",28,34,2,1,24,2,2,0,2,0.644102562431053,0.581163599699936
"1465",28,40,2,1,25,1,2,0,4,0.592159811423329,0.736673102081208
"1466",28,38,2,2,26,2,2,1,4,0.547703962147307,0.464141152926728
"1467",28,33,2,2,27,3,2,1,2,0.545045923906176,0.612561355688912
"1468",28,37,2,1,28,3,2,0,2,0.634790039209133,0.616676380715197
"1469",28,23,2,2,29,2,1,0,2,0.481035675497891,0.420575439583691
"1470",28,36,2,1,30,1,1,1,5,0.444728247431198,0.441510477563529
"1471",28,23,2,1,31,2,1,1,3,0.404172544699146,0.360049132010187
"1472",28,40,2,2,32,3,1,0,2,0.552707749783484,0.564557523104929
"1473",28,38,2,2,33,3,1,0,2,0.99190234441242,1.00401474946101
"1474",28,34,2,1,34,2,1,1,3,0.643942546100225,0.616358033548441
"1475",28,40,2,2,35,3,1,0,1,0.784660297085003,0.72990587912123
"1476",28,38,2,2,36,3,2,1,2,0.467215102647681,0.363579507581807
"1477",28,33,2,1,37,2,1,1,3,0.633921577405484,0.614558491400558
"1478",28,37,2,1,38,3,2,0,2,0.798321865189128,0.801017513581856
"1479",28,23,2,2,39,2,1,0,3,0.75551174124425,0.774553204389973
"1480",28,36,2,2,40,1,2,1,5,0.460193989547557,0.540529610264461
"1481",28,23,2,1,41,2,1,1,3,0.342210254008524,0.339777131953826
"1482",28,40,2,2,42,3,2,1,3,0.73150942610509,0.732400058333696
"1483",28,38,2,2,43,2,2,1,3,0.540612457033736,0.444565607142702
"1484",28,34,2,2,44,3,1,0,2,0.374479012723661,0.403379446170555
"1485",28,40,2,1,45,2,2,0,2,0.641076307488465,0.664317118531594
"1486",28,38,2,2,46,1,2,1,5,0.314231021148057,0.279576767517488
"1487",28,33,2,2,47,3,1,0,1,1.04457371473124,1.08846816911532
"1488",28,37,2,1,48,2,1,1,3,0.690967370671428,0.65061298491204
"1489",28,23,2,1,49,1,1,1,5,0.374554484785656,0.375148467863866
"1490",28,36,2,1,50,2,1,1,4,0.865677742517055,0.826193332562589
"1491",28,23,2,2,51,2,2,1,4,0.780261226528694,0.756355629472528
"1492",28,40,2,2,52,2,2,1,4,0.328880122505903,0.41906101259867
"1493",28,38,2,2,53,3,1,0,1,1.5784035170391,1.53153271035447
"1494",28,34,2,2,54,2,2,1,4,0.44268003109288,0.373121640568293
"1495",28,40,2,1,55,3,2,0,2,0.350448849581453,0.307079729228353
"1496",28,38,2,2,56,2,1,0,3,0.609671787826985,0.56888085613665
"1497",28,33,2,1,57,2,1,1,3,0.531037146192969,0.565149817416351
"1498",28,37,2,2,58,1,2,1,4,0.57431029521079,0.557961254407677
"1499",28,23,2,1,59,1,1,1,4,0.404792735453614,0.478730130972037
"1500",28,36,2,2,60,3,1,0,2,1.21125973867519,1.24417925095229
"1501",28,23,2,1,61,2,2,0,2,0.92167466089603,0.971092959841295
"1502",28,40,2,2,62,3,2,1,3,0.747060809612276,0.838704116936248
"1503",28,38,2,1,63,2,1,1,4,0.652483816657078,0.630554513706951
"1504",28,34,2,1,64,1,2,0,3,0.725616981526415,0.669990141051831
"1505",28,40,2,2,65,2,2,1,3,0.560737536010496,0.54957838859255
"1506",28,38,2,1,66,3,1,1,2,0.898744198110197,0.994487672827696
"1507",28,33,2,1,67,2,2,0,2,0.306691649461966,0.34757592891039
"1508",28,37,2,1,68,1,2,0,3,0.578687468840032,0.558180160935148
"1509",28,23,2,1,69,1,1,1,4,0.404248583787735,0.427863139811376
"1510",28,36,2,2,70,2,1,0,3,0.683294765148399,0.677831126101698
"1511",28,23,2,2,71,2,2,1,3,0.671013245951846,0.663678611188249
"1512",28,40,2,1,72,2,1,1,4,0.590513316270938,0.550101762360878
"1513",28,38,2,2,73,1,2,1,5,0.387861033724029,0.349097826870074
"1514",28,34,2,1,74,1,1,1,5,0.442026627710878,0.417867398602302
"1515",28,40,2,2,75,3,1,0,2,0.897184504999593,0.902465801023637
"1516",28,38,2,1,76,2,1,1,3,0.501919264763489,0.544943205743378
"1517",28,33,2,1,77,3,2,0,1,1.28081004520283,1.28878385219102
"1518",28,37,2,1,78,2,1,1,3,0.514971515691912,0.49499468084958
"1519",28,23,2,2,79,1,2,1,4,0.404045425804345,0.309714760087566
"1520",28,36,2,2,80,3,2,1,2,0.516843488427097,0.601793576891825
"1521",28,23,2,1,81,1,1,1,4,0.478184875221616,0.388404075402652
"1522",28,40,2,2,82,1,2,1,4,0.403440106721129,0.352081123532763
"1523",28,38,2,2,83,2,2,1,3,0.74910624469033,0.798166051288544
"1524",28,34,2,1,84,3,1,1,3,0.482132702094201,0.406197855190461
"1525",28,40,2,1,85,1,1,1,4,0.430299749485416,0.45097552841365
"1526",28,38,2,1,86,2,2,0,2,0.820984566445269,0.795615355878219
"1527",28,33,2,1,87,1,1,1,4,0.514373721933933,0.537868032644119
"1528",28,37,2,1,88,2,2,0,2,0.78239912687318,0.800796648821947
"1529",28,23,2,1,89,1,1,1,5,0.365944157643609,0.358225077168315
"1530",28,36,2,2,90,3,1,0,1,1.33185203501171,1.25757340779167
"1531",28,23,2,1,91,2,2,0,3,0.795081335625445,0.849352649412706
"1532",28,40,2,1,92,3,1,1,2,0.482721154678555,0.445555838312177
"1533",28,38,2,2,93,3,2,1,3,0.874937728299017,0.89491718678039
"1534",28,34,2,2,94,2,2,1,4,0.344923318992929,0.367304968269029
"1535",28,40,2,1,95,1,1,1,5,0.497743209641883,0.488915524002984
"1536",28,38,2,1,96,2,2,0,3,0.698100427888413,0.682350898471226
"1537",28,33,2,1,97,1,1,1,4,0.408278129257648,0.438115469554204
"1538",28,37,2,2,98,3,2,1,2,0.580041845762825,0.590951434570927
"1539",28,23,2,2,99,2,1,0,3,0.506392953456802,0.491180591985355
"1540",28,36,2,2,100,2,1,0,3,0.559399609515311,0.410133986619914
"1541",28,23,2,1,101,2,1,1,3,0.487049108613196,0.478403744866411
"1542",28,40,2,1,102,1,1,1,5,0.264156115773031,0.198995390719902
"1543",28,38,2,2,103,3,2,1,3,0.74576632982005,0.748287179483361
"1544",28,34,2,1,104,3,1,1,3,0.929217305611188,0.844850810022506
"1545",28,40,2,1,105,2,1,1,4,0.820263003754473,0.836597402734078
"1546",28,38,2,2,106,1,1,0,3,0.59564434277978,0.617237408723217
"1547",28,33,2,2,107,2,2,1,4,0.620305365786726,0.53727872868282
"1548",28,37,2,1,108,3,1,1,3,0.96320937095386,0.953617575485958
"1549",28,23,2,2,109,3,2,1,2,0.694003862087279,0.692413943057568
"1550",28,36,2,1,110,2,1,1,3,0.631595045973808,0.52895679337312
"1551",28,23,2,2,111,1,2,1,5,0.537098175522657,0.463040681477158
"1552",28,40,2,2,112,1,2,1,4,0.367301185801752,0.319575965172523
"1553",28,38,2,2,113,3,1,0,2,1.1768224604239,1.11817923808824
"1554",28,34,2,2,114,1,2,1,4,0.241980094448616,0.274445312441758
"1555",28,40,2,1,115,3,1,1,2,1.03758748961156,1.06745110714497
"1556",28,38,2,1,116,1,1,1,5,0.341333290777567,0.418775473964697
"1557",28,33,2,2,117,2,2,1,4,0.540427517596599,0.551236840411996
"1558",28,37,2,2,118,2,2,1,3,0.551723342463617,0.549361958784941
"1559",28,23,2,1,119,3,1,1,3,1.05716681787428,1.01262520258745
"1560",28,36,2,2,120,1,2,1,5,0.520090238081046,0.494667538430592
"1561",28,23,2,2,121,3,1,0,2,1.24955246648578,1.30549357458769
"1562",28,40,2,2,122,3,2,1,3,0.754866437169631,0.700338206296089
"1563",28,38,2,1,123,3,1,1,3,0.601724677331693,0.557857976445391
"1564",28,34,2,1,124,3,2,0,1,0.845770664459983,0.813189544771377
"1565",28,40,2,2,125,2,2,1,4,0.951760769552121,0.897250186743226
"1566",28,38,2,2,126,2,2,1,3,0.484822276799,0.523615814948809
"1567",28,33,2,2,127,2,2,1,3,0.669971792491617,0.729340147641605
"1568",28,37,2,2,128,1,2,1,4,0.42476444790083,0.420201866882969
"1569",28,23,2,1,129,3,2,0,2,1.09224307509872,1.06998362190836
"1570",28,36,2,2,130,1,1,0,3,0.64855333707624,0.623645309971792
"1571",28,23,2,2,131,1,2,1,4,0.24134460357257,0.135644844752823
"1572",28,40,2,2,132,1,2,1,5,0.461119093810528,0.410466441604017
"1573",28,38,2,1,133,1,1,1,5,0.356214559227014,0.349711029137504
"1574",28,34,2,1,134,1,1,1,4,0.428559624741893,0.323750371047399
"1575",28,40,2,1,135,3,2,0,1,1.11345273794926,1.1026070044642
"1576",28,38,2,1,136,3,2,0,2,1.17710206906528,1.23539421636489
