"","subj_no","age","group","stim","trial","difficulty","resp","corr","conf","RT_day1","RT_day2"
"1",35,37,1,2,1,3,1,0,2,1.30691968744846,1.36316833661832
"2",35,20,1,2,2,2,2,1,3,0.807279771038463,0.793770061258197
"3",35,21,1,1,3,2,1,1,4,0.420450578354669,0.444378226838473
"4",35,29,1,2,4,3,1,0,2,0.579376374823765,0.601913922138944
"5",35,32,1,2,5,2,2,1,4,0.386813603807034,0.420546041072689
"6",35,29,1,2,6,1,2,1,5,0.470733235146772,0.471607689469395
"7",35,27,1,1,7,2,1,1,3,0.569223439341118,0.512677250569906
"8",35,38,1,2,8,2,2,1,3,0.574641987614115,0.657953494622781
"9",35,19,1,2,9,1,1,0,4,0.566708286551707,0.465766344910079
"10",35,20,1,1,10,1,1,1,4,0.456052151559176,0.509347580731209
"11",35,37,1,1,11,1,1,1,4,0.399187875603037,0.471592097441115
"12",35,20,1,2,12,1,2,1,4,0.416419605612039,0.498526286562011
"13",35,21,1,1,13,3,1,1,3,1.18596608461551,1.17528490495698
"14",35,29,1,2,14,2,2,1,4,0.516354654056665,0.48376602917984
"15",35,32,1,1,15,3,1,1,3,0.984156721296883,0.926018473908962
"16",35,29,1,1,16,2,1,1,3,0.598716099063493,0.566497178703806
"17",35,27,1,1,17,1,1,1,4,0.40910341483555,0.441794805147049
"18",35,38,1,1,18,3,2,0,2,1.2054865691098,1.22356319754534
"19",35,19,1,1,19,1,1,1,5,0.349863936187949,0.329084664928051
"20",35,20,1,1,20,2,1,1,3,0.60075335114478,0.544889636196588
"21",35,37,1,2,21,2,2,1,4,0.585485517669292,0.585591425733099
"22",35,20,1,2,22,1,2,1,4,0.483574038986678,0.451731821454846
"23",35,21,1,2,23,2,1,0,3,0.657733996822693,0.671077565406167
"24",35,29,1,2,24,2,2,1,3,0.772057556597235,0.729938869651769
"25",35,32,1,1,25,2,1,1,4,0.672470234158475,0.600310948611825
"26",35,29,1,1,26,3,2,0,2,0.990662995693119,0.976528396937483
"27",35,27,1,2,27,3,2,1,3,0.719429854950764,0.672857320887935
"28",35,38,1,1,28,3,2,0,2,0.489549188773767,0.442576926248394
"29",35,19,1,2,29,2,2,1,3,0.710611710489344,0.606007729843344
"30",35,20,1,1,30,2,1,1,3,0.574806932759125,0.50385456560974
"31",35,37,1,1,31,1,2,0,3,0.661095253795125,0.701164971545202
"32",35,20,1,1,32,1,2,0,4,0.469629696544448,0.423733677775557
"33",35,21,1,2,33,2,2,1,4,0.7462545493047,0.720273683326301
"34",35,29,1,1,34,2,1,1,4,0.741129411774196,0.730896068569261
"35",35,32,1,1,35,1,1,1,4,0.414262439688354,0.363076327565632
"36",35,29,1,1,36,3,2,0,1,0.944484762749787,0.909671719494473
"37",35,27,1,2,37,1,2,1,5,0.335669157772771,0.310541188969296
"38",35,38,1,2,38,1,2,1,5,0.287564914246673,0.320764529218523
"39",35,19,1,2,39,2,1,0,3,0.644760213610548,0.607388450657004
"40",35,20,1,1,40,1,1,1,4,0.328658692488244,0.279779771236244
"41",35,37,1,2,41,2,1,0,2,0.678891840439049,0.675521443207575
"42",35,20,1,1,42,3,1,1,3,0.683957265002333,0.7220278920392
"43",35,21,1,1,43,1,2,0,3,0.49440062703277,0.468073511225466
"44",35,29,1,1,44,2,2,0,2,0.768063588569113,0.751004536919726
"45",35,32,1,1,45,3,2,0,2,1.07996058085842,1.05509631536156
"46",35,29,1,2,46,2,2,1,3,0.305605468869365,0.23942553067669
"47",35,27,1,1,47,3,1,1,3,0.664598965399309,0.633769516553846
"48",35,38,1,2,48,1,2,1,5,0.449895567242183,0.523561710089671
"49",35,19,1,1,49,1,1,1,4,0.44798436978464,0.535466689879355
"50",35,20,1,1,50,2,1,1,3,0.486677407938011,0.455579220690765
"51",35,37,1,1,51,3,1,1,3,1.15156949003739,1.17976036584904
"52",35,20,1,2,52,1,2,1,5,0.218080273996944,0.237869682868815
"53",35,21,1,1,53,3,2,0,1,0.38919631853727,0.318070770959682
"54",35,29,1,1,54,3,2,0,1,0.967139581468924,1.02102460975467
"55",35,32,1,1,55,3,2,0,2,0.66908690578674,0.676737373570158
"56",35,29,1,1,56,1,1,1,5,0.571167826112896,0.562781073104337
"57",35,27,1,1,57,2,2,0,3,0.669945555826694,0.644237375462673
"58",35,38,1,2,58,1,1,0,3,0.483927478558668,0.513566565851751
"59",35,19,1,1,59,3,2,0,2,0.532611474699969,0.43265879297108
"60",35,20,1,2,60,2,2,1,4,0.680956517075562,0.710422066874413
"61",35,37,1,2,61,2,1,0,2,0.620925960682547,0.577837295343011
"62",35,20,1,1,62,2,1,1,4,0.436788774401315,0.500107724548851
"63",35,21,1,2,63,1,2,1,5,0.438936173232182,0.40756014086959
"64",35,29,1,2,64,1,2,1,5,0.528670297124348,0.488648445088137
"65",35,32,1,2,65,1,2,1,4,0.29131591467776,0.286358495065523
"66",35,29,1,1,66,3,2,0,1,0.72324493928395,0.757472515294574
"67",35,27,1,1,67,1,1,1,4,0.400949650932521,0.393357517407756
"68",35,38,1,1,68,3,2,0,2,0.255419180827432,0.286403746337242
"69",35,19,1,1,69,3,2,0,2,1.07144621957891,0.965877852965188
"70",35,20,1,2,70,3,2,1,2,0.951583833796697,0.984839144194551
"71",35,37,1,1,71,2,2,0,3,0.78454938606898,0.823994411557188
"72",35,20,1,2,72,1,2,1,5,0.285740092141651,0.316239996275132
"73",35,21,1,2,73,2,2,1,3,0.499504237121901,0.563311898333203
"74",35,29,1,1,74,3,2,0,1,1.19060941354693,1.17369291368332
"75",35,32,1,2,75,1,2,1,4,0.410707324777061,0.40182280840315
"76",35,29,1,2,76,1,2,1,5,0.361367938651277,0.390881599223299
"77",35,27,1,2,77,1,1,0,4,0.54783606928703,0.551361818172025
"78",35,38,1,2,78,3,2,1,3,0.955978028810966,0.991567058836773
"79",35,19,1,1,79,1,1,1,5,0.415813541516587,0.401484048764641
"80",35,20,1,1,80,2,2,0,2,0.716409941493036,0.75405877890386
"81",35,37,1,1,81,2,2,0,2,0.678822799263116,0.687053870849807
"82",35,20,1,2,82,2,1,0,2,0.748953793360687,0.874337800490838
"83",35,21,1,1,83,1,2,0,3,0.654238439759297,0.702243529934955
"84",35,29,1,2,84,2,1,0,3,0.760334663654637,0.8113504455403
"85",35,32,1,1,85,2,1,1,4,0.671307973324457,0.625731616424635
"86",35,29,1,2,86,3,1,0,1,1.90453081498776,1.91558268213451
"87",35,27,1,2,87,3,2,1,2,0.625014665719615,0.620090801790672
"88",35,38,1,2,88,3,1,0,1,0.934301773387172,0.932374598258752
"89",35,19,1,1,89,2,1,1,3,0.51481814953533,0.435999526175215
"90",35,20,1,1,90,2,1,1,4,0.651407724868503,0.781297682827426
"91",35,37,1,1,91,2,2,0,3,0.691597246593023,0.570056421426216
"92",35,20,1,2,92,3,2,1,2,0.554892637490321,0.605258823258654
"93",35,21,1,2,93,3,2,1,3,0.812392960573359,0.812302793436782
"94",35,29,1,2,94,2,1,0,3,0.234563946835665,0.287045119095029
"95",35,32,1,1,95,3,2,0,1,0.56586199607769,0.562467555470236
"96",35,29,1,2,96,1,2,1,4,0.421346926967242,0.366181833237513
"97",35,27,1,2,97,1,2,1,4,0.39341015177314,0.451670153710849
"98",35,38,1,2,98,3,1,0,2,1.32294656803026,1.3478282625025
"99",35,19,1,1,99,3,1,1,3,0.595157926542399,0.600580983733351
"100",35,20,1,1,100,3,2,0,1,1.32963532055132,1.32964839919943
"101",35,37,1,1,101,1,2,0,3,0.614413467486733,0.673303143158139
"102",35,20,1,2,102,1,2,1,5,0.523647526335436,0.510177664054991
"103",35,21,1,1,103,1,1,1,5,0.59420095888688,0.634043326426013
"104",35,29,1,2,104,1,2,1,4,0.469282312419029,0.444291494419407
"105",35,32,1,2,105,2,2,1,3,0.590480912342589,0.650524045270905
"106",35,29,1,1,106,3,2,0,1,0.925255858127849,0.934979860790258
"107",35,27,1,2,107,1,2,1,4,0.382976822891451,0.427061225046363
"108",35,38,1,2,108,1,2,1,5,0.403108302680248,0.418020382054081
"109",35,19,1,2,109,2,2,1,4,0.620066204701291,0.625423322371166
"110",35,20,1,1,110,3,1,1,2,0.561911893298119,0.59377504505259
"111",35,37,1,2,111,2,1,0,3,0.473854815872558,0.488825136518238
"112",35,20,1,1,112,1,1,1,4,0.332835089651746,0.290708675853599
"113",35,21,1,2,113,2,2,1,4,0.664953773156632,0.693986854389758
"114",35,29,1,1,114,2,1,1,3,0.527214327631442,0.477641680991145
"115",35,32,1,2,115,2,2,1,4,0.490848572848061,0.509244731113154
"116",35,29,1,1,116,3,2,0,1,0.961138099978711,0.908397467392378
"117",35,27,1,1,117,1,2,0,4,0.638409353663599,0.678690999927683
"118",35,38,1,2,118,3,1,0,2,0.862954100943784,0.817694452324712
"119",35,19,1,1,119,1,2,0,3,0.412520821380917,0.361503191832771
"120",35,20,1,2,120,1,2,1,5,0.444409838740405,0.496843776251045
"121",35,37,1,2,121,2,1,0,2,0.531767682142207,0.585310191099718
"122",35,20,1,1,122,2,1,1,4,0.542018771773794,0.520004816217718
"123",35,21,1,2,123,1,1,0,3,0.395690753666691,0.441020923193861
"124",35,29,1,2,124,3,2,1,2,0.66043407773386,0.706651154724235
"125",35,32,1,1,125,1,1,1,4,0.276013391808819,0.296046643393673
"126",35,29,1,1,126,2,1,1,4,0.619151666003396,0.532626532308917
"127",35,27,1,2,127,1,1,0,4,0.567149646250762,0.461873815668849
"128",35,38,1,1,128,3,1,1,2,0.685805766526395,0.641952892252408
"129",35,19,1,1,129,2,1,1,3,0.661348003515163,0.601198100893024
"130",35,20,1,2,130,2,2,1,4,0.58749265138521,0.507649880397488
"131",35,37,1,2,131,2,2,1,3,0.677094986449478,0.675819632651442
"132",35,20,1,2,132,1,2,1,5,0.297835767057444,0.277608094525927
"133",35,21,1,2,133,3,2,1,2,0.863014811374057,0.84147689014147
"134",35,29,1,2,134,1,2,1,5,0.540614683150432,0.5998319772837
"135",35,32,1,2,135,3,1,0,2,0.122288912489827,0.240504941642595
"136",35,29,1,2,136,2,2,1,4,0.464877471467615,0.538257285599463
"137",35,27,1,1,137,3,1,1,3,0.662073089574597,0.617655975496005
"138",35,38,1,1,138,1,1,1,5,0.431449209709721,0.402740934754092
"139",35,19,1,1,139,3,1,1,3,0.826009619806694,0.862442641822628
"140",35,20,1,1,140,1,1,1,5,0.47485003982994,0.484699750915057
"141",35,37,1,1,141,3,1,1,2,0.856120731694572,0.858492713814816
"142",35,20,1,1,142,1,1,1,5,0.446085092776593,0.461673235812873
"143",35,21,1,2,143,1,1,0,3,0.531915217382211,0.539907245819594
"144",35,29,1,1,144,3,2,0,1,0.939669670951374,0.935258807597341
"145",35,32,1,1,145,2,1,1,4,0.833656890039411,0.802228890783569
"146",35,29,1,2,146,3,1,0,1,0.799257730424807,0.836922277937979
"147",35,27,1,2,147,3,2,1,3,0.557252459893453,0.542131444963634
"148",35,38,1,2,148,2,2,1,3,0.626416173413518,0.534201875170044
"149",35,19,1,1,149,2,1,1,3,0.436165774734981,0.45728533070507
"150",35,20,1,2,150,3,2,1,2,0.769198531021325,0.704842981313161
"151",35,37,1,2,151,1,2,1,5,0.34096216796804,0.325587431372276
"152",35,20,1,2,152,3,1,0,2,1.0181623375401,1.02409009823946
"153",35,21,1,2,153,3,1,0,2,0.747381259436444,0.753047010762777
"154",35,29,1,1,154,3,2,0,2,1.24405840462306,1.28319666838641
"155",35,32,1,1,155,2,1,1,4,0.506799791584699,0.538047505390729
"156",35,29,1,1,156,1,2,0,4,0.577234851315281,0.606045636294952
"157",35,27,1,1,157,3,2,0,2,0.913753015759215,0.951976170289047
"158",35,38,1,1,158,2,2,0,3,0.442220847519458,0.442749793204567
"159",35,19,1,2,159,1,1,0,3,0.337249674353728,0.365470943630097
"160",35,20,1,1,160,2,1,1,4,0.561086823034941,0.652034873067954
"161",35,37,1,1,161,2,1,1,4,0.741489729144653,0.67135275584418
"162",35,20,1,2,162,2,2,1,4,0.529827371955904,0.547331854745405
"163",35,21,1,2,163,2,2,1,3,0.578718218353139,0.611764373427947
"164",35,29,1,2,164,2,2,1,4,0.606049348498558,0.618717221760681
"165",35,32,1,1,165,1,2,0,4,0.636488868586773,0.619775092813696
"166",35,29,1,1,166,1,1,1,4,0.294797256030041,0.332657174776709
"167",35,27,1,1,167,1,1,1,5,0.404889102380581,0.44077103584547
"168",35,38,1,1,168,1,1,1,4,0.276880960924923,0.200930808814374
"169",35,19,1,1,169,1,1,1,4,0.396103233947918,0.482306005118799
"170",35,20,1,2,170,3,1,0,1,0.336793797110622,0.211043621209732
"171",35,37,1,2,171,2,2,1,4,0.641179542667325,0.530540377037059
"172",35,20,1,2,172,1,2,1,4,0.41972907429698,0.403346152182611
"173",35,21,1,1,173,3,1,1,2,0.980945251833991,1.02589455685691
"174",35,29,1,2,174,3,2,1,3,0.992157913263128,0.94238980109326
"175",35,32,1,1,175,3,2,0,2,1.48446807597847,1.50828735209363
"176",35,29,1,2,176,3,2,1,3,0.787081638850795,0.703295778895366
"177",35,27,1,2,177,1,2,1,4,0.420644966666492,0.474691237151927
"178",35,38,1,2,178,2,1,0,3,0.662888676391009,0.622455754456947
"179",35,19,1,2,179,1,2,1,5,0.37390524364708,0.427811253596028
"180",35,20,1,1,180,1,2,0,3,0.487319217208423,0.50887416711512
"181",35,37,1,2,181,1,2,1,4,0.539839996308094,0.608339554553801
"182",35,20,1,1,182,2,2,0,2,0.646684906243153,0.743719621347133
"183",35,21,1,2,183,1,2,1,4,0.344757418740546,0.349841858295926
"184",35,29,1,1,184,3,2,0,2,1.0410822867016,1.13763331789894
"185",35,32,1,2,185,1,2,1,5,0.402040523047065,0.461021045541408
"186",35,29,1,2,186,2,2,1,3,0.551532258254478,0.469685424980481
"187",35,27,1,1,187,1,1,1,4,0.398446051837276,0.372337679262777
"188",35,38,1,2,188,1,2,1,4,0.346552092357144,0.278282536509735
"189",35,19,1,1,189,3,2,0,2,1.20778979069932,1.11603470182548
"190",35,20,1,2,190,2,2,1,3,0.523018952130206,0.420669334484434
"191",35,37,1,1,191,3,2,0,1,0.774424357975567,0.926295487283639
"192",35,20,1,1,192,3,2,0,2,0.92883712400636,0.892008188566134
"193",35,21,1,2,193,3,2,1,2,0.909171614842617,0.8174024460796
"194",35,29,1,2,194,2,2,1,4,0.445334440181712,0.42254125276132
"195",35,32,1,2,195,1,2,1,4,0.318661606230191,0.344616321631527
"196",35,29,1,2,196,2,1,0,3,0.603933978868566,0.673442712495287
"197",35,27,1,1,197,3,2,0,2,1.14687435355583,1.08629986200591
"198",35,38,1,2,198,3,1,0,1,1.10826503024122,1.14612113845483
"199",35,19,1,1,199,3,1,1,3,0.634590545969409,0.598764073522928
"200",35,20,1,1,200,3,1,1,3,0.803317988034669,0.720842222653089
"201",35,37,1,1,201,1,1,1,4,0.367669259688287,0.35899802063064
"202",35,20,1,2,202,1,2,1,5,0.43807557472654,0.513601885461119
"203",35,21,1,1,203,1,1,1,5,0.468693961117769,0.412578417353912
"204",35,29,1,1,204,1,1,1,5,0.471109152451492,0.506118014714044
"205",35,32,1,2,205,3,2,1,2,0.389497910659502,0.402139698680358
"206",35,29,1,1,206,3,1,1,2,0.565510613988519,0.677944385216168
"207",35,27,1,2,207,3,2,1,3,0.687306688164631,0.70959408600267
"208",35,38,1,1,208,1,1,1,5,0.413146540587672,0.394942848565917
"209",35,19,1,1,209,3,1,1,3,1.1007267167655,1.00026170729926
"210",35,20,1,1,210,2,1,1,4,0.520028704917291,0.492412013102701
"211",35,37,1,2,211,3,1,0,2,0.806954800421767,0.834565669427231
"212",35,20,1,2,212,2,2,1,4,0.63304264938047,0.678265984023674
"213",35,21,1,2,213,3,1,0,1,1.62841838085335,1.65044293123761
"214",35,29,1,2,214,1,2,1,4,0.420383203445603,0.370893213373835
"215",35,32,1,1,215,1,2,0,3,0.401564819994578,0.436764861111213
"216",35,29,1,2,216,3,2,1,2,0.809712619708667,0.815358349018289
"217",35,27,1,1,217,1,1,1,4,0.399069954861358,0.401920725965737
"218",35,38,1,2,218,3,1,0,2,1.0825661047178,1.05570347961557
"219",35,19,1,1,219,2,1,1,4,0.41402498712418,0.409529254569668
"220",35,20,1,2,220,1,2,1,4,0.325835416869908,0.328195862353085
"221",35,37,1,2,221,2,1,0,2,0.833475506383638,0.87497548825883
"222",35,20,1,1,222,2,1,1,3,0.470495358026067,0.386230386790342
"223",35,21,1,2,223,3,1,0,1,1.49153121242036,1.53112263720465
"224",35,29,1,2,224,2,2,1,4,0.628341800270119,0.683270885382763
"225",35,32,1,1,225,2,1,1,4,0.414600888685497,0.339918176666153
"226",35,29,1,1,226,2,2,0,3,0.851711905746604,0.883820601284659
"227",35,27,1,2,227,3,2,1,2,0.692919487101225,0.659844241088648
"228",35,38,1,2,228,2,2,1,4,0.698334172239934,0.659932229303625
"229",35,19,1,2,229,3,2,1,3,0.803644764891769,0.85324583880193
"230",35,20,1,2,230,3,1,0,1,1.22781757288985,1.24231403660823
"231",35,37,1,2,231,1,2,1,4,0.455426746124596,0.475120255550104
"232",35,20,1,1,232,2,1,1,4,0.617998315921633,0.57529239322271
"233",35,21,1,1,233,3,2,0,2,0.291351392537106,0.328610274441227
"234",35,29,1,2,234,3,2,1,3,1.20371754807139,1.16733777867708
"235",35,32,1,2,235,2,2,1,3,0.526043199699896,0.490764546296263
"236",35,29,1,1,236,2,1,1,3,0.622074629381673,0.679200746948278
"237",35,27,1,1,237,2,1,1,4,0.590817902681957,0.523340585271528
"238",35,38,1,1,238,3,2,0,1,1.22068998045054,1.16080823932524
"239",35,19,1,1,239,1,1,1,5,0.405561222109739,0.392101165351897
"240",35,20,1,1,240,2,1,1,3,0.523635655529169,0.537866786366485
"241",34,19,2,1,1,1,1,1,4,0.478193285325443,0.48714568395728
"242",34,30,2,1,2,2,1,1,3,0.612660452842999,0.587451638037285
"243",34,37,2,2,3,2,2,1,3,0.830534535057132,0.837158001786943
"244",34,29,2,1,4,3,1,1,2,0.995351495792964,0.94263017429073
"245",34,26,2,2,5,2,2,1,3,0.631134804517438,0.621535535494859
"246",34,21,2,1,6,3,2,0,1,0.82408023217358,0.794767160990758
"247",34,20,2,1,7,1,1,1,4,0.506466772683101,0.518571936260853
"248",34,35,2,2,8,1,1,0,3,0.642630358731463,0.650413718698759
"249",34,24,2,1,9,1,1,1,5,0.370253960557938,0.230332178844482
"250",34,32,2,1,10,3,2,0,2,1.19460232911141,1.16610245517126
"251",34,19,2,1,11,2,1,1,3,0.665388083728624,0.71330703668882
"252",34,30,2,1,12,1,2,0,3,0.795931587195264,0.69511531375646
"253",34,37,2,2,13,3,1,0,2,1.0078778365657,0.989698420116381
"254",34,29,2,2,14,2,1,0,3,0.801494851756182,0.858222358640854
"255",34,26,2,1,15,3,2,0,2,1.25315802035363,1.18914750363814
"256",34,21,2,2,16,2,1,0,2,0.905370932285862,0.85963137286315
"257",34,20,2,2,17,1,2,1,4,0.382723678947547,0.34090505636812
"258",34,35,2,1,18,3,1,1,3,0.689225269814596,0.733540599557291
"259",34,24,2,1,19,3,1,1,3,0.73335172219711,0.740686916672385
"260",34,32,2,1,20,3,2,0,2,1.08075549519567,1.11839393197543
"261",34,19,2,1,21,3,1,1,2,0.810970242482888,0.808081163117626
"262",34,30,2,2,22,2,2,1,3,0.611953794292673,0.73334657073137
"263",34,37,2,2,23,1,2,1,4,0.517193632240681,0.516683252315607
"264",34,29,2,1,24,1,1,1,5,0.402802875377147,0.320209370287283
"265",34,26,2,1,25,1,2,0,3,0.712345967146838,0.767672211723778
"266",34,21,2,2,26,3,1,0,1,0.44433805541745,0.450239555851457
"267",34,20,2,1,27,1,1,1,4,0.315643189059662,0.345903903583049
"268",34,35,2,2,28,3,1,0,2,0.661356375998398,0.675922267183518
"269",34,24,2,2,29,2,2,1,4,0.611678136104677,0.626519974046099
"270",34,32,2,2,30,3,2,1,3,0.507784637608345,0.68979593001103
"271",34,19,2,2,31,1,2,1,4,0.390176367287046,0.369983925517738
"272",34,30,2,1,32,1,1,1,5,0.414802925314136,0.311795712869306
"273",34,37,2,1,33,2,2,0,3,0.911611551819429,0.915778651376958
"274",34,29,2,1,34,2,2,0,3,0.571907685428059,0.532030898986798
"275",34,26,2,1,35,1,2,0,3,0.695863924343489,0.636184245105845
"276",34,21,2,2,36,2,1,0,2,0.63033116658177,0.652909707094291
"277",34,20,2,2,37,3,1,0,2,0.985963256836394,0.983580395120907
"278",34,35,2,2,38,3,1,0,1,1.69610220865424,1.70057907589145
"279",34,24,2,2,39,2,1,0,2,0.719644882159312,0.741353377766951
"280",34,32,2,2,40,2,2,1,3,0.616648164548709,0.585841411490769
"281",34,19,2,2,41,2,2,1,4,0.619201541108388,0.548348456316381
"282",34,30,2,2,42,2,1,0,3,0.69824262992831,0.695068632326669
"283",34,37,2,1,43,2,2,0,3,0.859934319541645,0.848577354121126
"284",34,29,2,2,44,2,2,1,4,0.461179263688353,0.46038380035549
"285",34,26,2,2,45,1,2,1,4,0.450675744184668,0.408792679522581
"286",34,21,2,2,46,1,2,1,5,0.397524176528799,0.37365117814624
"287",34,20,2,2,47,3,2,1,2,1.16368108765702,1.24768636326095
"288",34,35,2,1,48,1,1,1,4,0.480299844181401,0.515168621722919
"289",34,24,2,2,49,3,1,0,1,1.36148062157893,1.39726211826303
"290",34,32,2,2,50,3,2,1,3,0.504613187697632,0.52899077033947
"291",34,19,2,2,51,3,2,1,2,0.682136199172324,0.631929798322674
"292",34,30,2,1,52,1,1,1,4,0.219144210438124,0.253846050093776
"293",34,37,2,2,53,3,1,0,2,1.60889681383135,1.57679692198178
"294",34,29,2,2,54,2,1,0,3,0.572014032128772,0.640592649713111
"295",34,26,2,1,55,3,2,0,1,1.10599126573985,1.14141453816376
"296",34,21,2,1,56,3,2,0,2,0.693907857541567,0.794600862528894
"297",34,20,2,1,57,2,1,1,3,0.377150874878265,0.363532397166446
"298",34,35,2,2,58,1,2,1,4,0.459427717572293,0.408557654497061
"299",34,24,2,2,59,3,1,0,2,1.0838354362245,1.02014514463793
"300",34,32,2,1,60,3,2,0,2,1.03255962746937,1.04054133481289
"301",34,19,2,2,61,3,1,0,1,1.38651122382945,1.41186453179479
"302",34,30,2,2,62,2,2,1,3,0.667180400068465,0.654035680025284
"303",34,37,2,2,63,3,1,0,1,1.27900752203533,1.19140603180876
"304",34,29,2,1,64,1,1,1,5,0.439997304431621,0.34316111932168
"305",34,26,2,1,65,3,2,0,1,0.464395662846437,0.414212551113594
"306",34,21,2,1,66,3,1,1,2,0.868942287175137,0.906985066324187
"307",34,20,2,2,67,2,1,0,3,0.853766789007134,0.876171982038043
"308",34,35,2,1,68,1,1,1,4,0.352591743352959,0.493000482539402
"309",34,24,2,1,69,3,2,0,2,0.963907520439821,0.861733998926077
"310",34,32,2,1,70,2,1,1,3,0.516617067321602,0.562703690215557
"311",34,19,2,1,71,1,2,0,3,0.529075891659273,0.549022593926311
"312",34,30,2,1,72,1,1,1,4,0.353157454194036,0.360627230643058
"313",34,37,2,1,73,2,2,0,2,0.693913853504575,0.682977987028098
"314",34,29,2,2,74,3,2,1,3,1.02656127956748,1.07328570671195
"315",34,26,2,1,75,3,2,0,1,1.48438915263909,1.33784797628666
"316",34,21,2,2,76,1,1,0,3,0.639793651742215,0.619682097777327
"317",34,20,2,1,77,1,2,0,4,0.556369388293135,0.617074479576742
"318",34,35,2,1,78,1,1,1,5,0.489464090766255,0.460484601254446
"319",34,24,2,2,79,1,2,1,5,0.529350819631574,0.487453295593312
"320",34,32,2,2,80,1,1,0,3,0.579534154807506,0.603676594297993
"321",34,19,2,1,81,1,1,1,4,0.549839375866312,0.489099135430835
"322",34,30,2,1,82,3,2,0,1,0.839786836570975,0.839494734256455
"323",34,37,2,1,83,2,1,1,4,0.643756758821411,0.666041965156507
"324",34,29,2,1,84,2,2,0,3,0.577009403439776,0.500603233967323
"325",34,26,2,1,85,2,2,0,3,0.583256815574733,0.614437978699129
"326",34,21,2,2,86,3,2,1,3,0.622649356094157,0.656909239177792
"327",34,20,2,2,87,3,2,1,2,0.665489589205926,0.626586682404905
"328",34,35,2,2,88,1,2,1,5,0.344107946539425,0.286485932542164
"329",34,24,2,1,89,3,2,0,2,1.25075502765146,1.23269894119931
"330",34,32,2,1,90,2,1,1,4,0.580083519228806,0.593815289693183
"331",34,19,2,1,91,1,2,0,4,0.506174139158274,0.520387869370452
"332",34,30,2,2,92,3,1,0,2,1.57332292916347,1.52301612383107
"333",34,37,2,1,93,3,1,1,2,1.01943839324674,0.986295753067673
"334",34,29,2,1,94,2,2,0,3,0.543997067722763,0.629472863194037
"335",34,26,2,1,95,2,2,0,3,0.617699373752191,0.604747686818889
"336",34,21,2,2,96,2,1,0,3,0.722230314838,0.830264984459459
"337",34,20,2,2,97,1,2,1,4,0.403280996041852,0.351866619122567
"338",34,35,2,1,98,2,1,1,3,0.521268470222979,0.525914824853801
"339",34,24,2,2,99,1,2,1,5,0.19758441812219,0.195671900573913
"340",34,32,2,1,100,2,1,1,3,0.689618059693388,0.697470595425107
"341",34,19,2,2,101,3,1,0,2,1.38256543359455,1.37886633862439
"342",34,30,2,1,102,1,1,1,5,0.369394593929311,0.338663787147675
"343",34,37,2,2,103,3,2,1,2,0.633560906296036,0.585679873218667
"344",34,29,2,1,104,3,2,0,2,1.49966732096111,1.53079529420689
"345",34,26,2,1,105,1,2,0,3,0.695444438666612,0.757965938251164
"346",34,21,2,2,106,3,1,0,2,1.19193867858299,1.17838369519711
"347",34,20,2,2,107,3,2,1,3,0.717610794819272,0.741821982069115
"348",34,35,2,2,108,3,2,1,3,0.766391983473768,0.804932358111122
"349",34,24,2,2,109,1,2,1,4,0.432090810926178,0.429303999071601
"350",34,32,2,1,110,1,2,0,4,0.514610107841054,0.632194683957235
"351",34,19,2,2,111,1,2,1,4,0.447448715915862,0.444538146704389
"352",34,30,2,2,112,2,1,0,3,0.746602361823154,0.782868896424863
"353",34,37,2,2,113,1,1,0,4,0.766248080541978,0.806380531794453
"354",34,29,2,1,114,1,1,1,4,0.424134152269189,0.417761995089984
"355",34,26,2,2,115,2,2,1,3,0.556594980281113,0.546403571857783
"356",34,21,2,2,116,2,1,0,3,0.7066242429954,0.738302861432684
"357",34,20,2,2,117,3,1,0,1,1.42423941298856,1.37121719478499
"358",34,35,2,1,118,2,2,0,3,0.637587536540611,0.609054181408022
"359",34,24,2,2,119,1,1,0,4,0.696864835551205,0.684703073804222
"360",34,32,2,1,120,3,2,0,1,1.40422569786917,1.42938548546846
"361",34,19,2,2,121,3,2,1,2,1.0280264980735,1.06536826478117
"362",34,30,2,1,122,2,1,1,3,0.349073487701838,0.3631121872002
"363",34,37,2,1,123,1,1,1,4,0.339509112303229,0.344802463178127
"364",34,29,2,1,124,2,1,1,3,0.558959146875393,0.621172230741876
"365",34,26,2,1,125,3,2,0,1,0.311878364711389,0.379624408905069
"366",34,21,2,2,126,2,1,0,3,0.732147468345544,0.763768397404382
"367",34,20,2,1,127,2,2,0,2,0.729496112071637,0.693030012136704
"368",34,35,2,2,128,1,2,1,5,0.411391893443732,0.436057018416305
"369",34,24,2,2,129,2,2,1,3,0.706721008132861,0.707441061604277
"370",34,32,2,2,130,3,2,1,3,0.967708027615723,0.981708486988868
"371",34,19,2,2,131,2,1,0,3,0.666653020921411,0.627804228976783
"372",34,30,2,1,132,2,1,1,4,0.66241117208959,0.700129792021604
"373",34,37,2,1,133,3,2,0,1,0.961344646902885,0.959436395320991
"374",34,29,2,2,134,1,2,1,4,0.424302270593412,0.473312498667439
"375",34,26,2,2,135,3,2,1,2,0.750776710023974,0.756695898452528
"376",34,21,2,2,136,2,2,1,4,0.646352539693996,0.672771163896925
"377",34,20,2,2,137,2,1,0,3,0.705846411310446,0.646695433210524
"378",34,35,2,1,138,1,1,1,4,0.267480220342737,0.305288733405466
"379",34,24,2,2,139,3,1,0,2,1.62647815100987,1.54640921196055
"380",34,32,2,1,140,2,1,1,3,0.384752093368538,0.364818749917677
"381",34,19,2,2,141,2,2,1,3,0.704047176589927,0.641229607981068
"382",34,30,2,2,142,2,2,1,3,0.572467172202551,0.617196971455059
"383",34,37,2,2,143,1,2,1,4,0.379386460076618,0.364798671007491
"384",34,29,2,2,144,1,2,1,4,0.416845501073087,0.433618248600007
"385",34,26,2,1,145,1,1,1,4,0.390187873459638,0.413040570620366
"386",34,21,2,2,146,3,2,1,3,0.847213533700829,0.84168984739506
"387",34,20,2,2,147,2,2,1,3,0.687744635882134,0.723180381866971
"388",34,35,2,1,148,1,2,0,4,0.546176471348428,0.560678141217135
"389",34,24,2,2,149,2,2,1,4,0.770269073193735,0.715177415151114
"390",34,32,2,2,150,1,2,1,5,0.408182906426601,0.421465301052632
"391",34,19,2,2,151,3,2,1,2,0.991050699854485,1.04821599652851
"392",34,30,2,1,152,2,1,1,3,0.517680036438836,0.550272503818032
"393",34,37,2,2,153,3,2,1,2,0.949170268883787,1.02601922320034
"394",34,29,2,2,154,1,2,1,5,0.454180212482288,0.384852360957978
"395",34,26,2,1,155,1,1,1,5,0.292516235622812,0.248601015462761
"396",34,21,2,2,156,3,2,1,3,0.664109561333358,0.673381517754128
"397",34,20,2,2,157,2,2,1,4,0.551959910777212,0.58187201842419
"398",34,35,2,1,158,2,2,0,2,0.283258921539029,0.269334457334734
"399",34,24,2,2,159,2,2,1,3,0.613439995050471,0.655426691991008
"400",34,32,2,2,160,2,1,0,2,0.549659200634151,0.586862727603438
"401",34,19,2,2,161,1,2,1,4,0.389606218476397,0.366037447671009
"402",34,30,2,1,162,1,2,0,4,0.628553634864223,0.624319020962913
"403",34,37,2,1,163,2,2,0,2,0.858922151067255,0.822944312073529
"404",34,29,2,1,164,1,1,1,4,0.23050496898681,0.243106810979359
"405",34,26,2,1,165,2,1,1,3,0.447567919960448,0.401907238353906
"406",34,21,2,1,166,2,2,0,3,0.536771374507837,0.515450926951831
"407",34,20,2,2,167,2,1,0,2,0.479371814515973,0.496165486350206
"408",34,35,2,2,168,1,2,1,5,0.411944679629934,0.446493579208426
"409",34,24,2,1,169,1,1,1,5,0.33371224765349,0.277935487705113
"410",34,32,2,1,170,3,1,1,2,1.01573023100716,1.0191161330647
"411",34,19,2,1,171,1,2,0,3,0.505089570138616,0.520314930457276
"412",34,30,2,1,172,2,1,1,3,0.526160741767251,0.48761508433423
"413",34,37,2,2,173,2,2,1,3,0.628957645628248,0.626876779983988
"414",34,29,2,1,174,2,2,0,2,0.529664231024843,0.487747376310193
"415",34,26,2,2,175,2,1,0,3,0.677470356764474,0.759118813652467
"416",34,21,2,1,176,3,2,0,2,1.14205669700319,1.19440939001863
"417",34,20,2,2,177,2,1,0,3,0.729039458343815,0.677832192754376
"418",34,35,2,1,178,2,1,1,3,0.828158028077301,0.847779008170144
"419",34,24,2,1,179,2,2,0,3,0.213561007451721,0.15591858592728
"420",34,32,2,1,180,1,1,1,5,0.579080264105021,0.630348145851886
"421",34,19,2,1,181,1,1,1,4,0.346841504864607,0.35657807596038
"422",34,30,2,1,182,1,1,1,4,0.310846806626862,0.290151582202931
"423",34,37,2,1,183,2,1,1,4,0.500296078225555,0.471406494537179
"424",34,29,2,1,184,2,1,1,4,0.585495348704184,0.620523889199986
"425",34,26,2,2,185,3,1,0,2,0.884540713922852,0.817398582459141
"426",34,21,2,1,186,1,1,1,5,0.421213947121693,0.396575458100453
"427",34,20,2,1,187,3,1,1,2,0.775936254347997,0.71841196249883
"428",34,35,2,1,188,1,1,1,5,0.436052393865494,0.378656301769213
"429",34,24,2,2,189,2,2,1,4,0.689856601737055,0.739710996846521
"430",34,32,2,1,190,1,1,1,4,0.492218238962083,0.45677819720291
"431",34,19,2,2,191,1,1,0,4,0.49787147122153,0.563691413858223
"432",34,30,2,1,192,3,2,0,2,1.40700757020204,1.38406763049676
"433",34,37,2,1,193,3,1,1,2,1.07390944439464,1.11185402288916
"434",34,29,2,1,194,1,1,1,5,0.283059371282204,0.278324871138108
"435",34,26,2,2,195,2,2,1,4,0.716978963649018,0.598588230898703
"436",34,21,2,1,196,1,2,0,3,0.453971748045138,0.526241856224952
"437",34,20,2,1,197,1,1,1,4,0.380868512303115,0.338488795555264
"438",34,35,2,2,198,1,2,1,4,0.47589693080899,0.525187491076933
"439",34,24,2,1,199,2,2,0,3,0.572171217184552,0.655318000822462
"440",34,32,2,2,200,3,1,0,2,0.810356029529405,0.699236378579841
"441",34,19,2,1,201,1,1,1,5,0.326712060673792,0.281829045219818
"442",34,30,2,1,202,1,2,0,3,0.641705146282654,0.679052909767687
"443",34,37,2,2,203,2,2,1,4,0.593814511737253,0.695661469451618
"444",34,29,2,1,204,2,1,1,4,0.688445426910073,0.571214056896015
"445",34,26,2,2,205,1,2,1,5,0.494521884814405,0.450985859562219
"446",34,21,2,1,206,3,2,0,2,1.06006944803414,1.12991390537421
"447",34,20,2,1,207,3,2,0,1,0.882091725403763,0.863781022160542
"448",34,35,2,2,208,2,1,0,2,0.74381288049773,0.75416107445734
"449",34,24,2,1,209,2,2,0,3,0.74899344293872,0.743741568250198
"450",34,32,2,1,210,3,2,0,2,1.23985939170446,1.25706163684154
"451",34,19,2,2,211,3,2,1,2,0.603418594853061,0.600548616806706
"452",34,30,2,2,212,3,2,1,2,1.08192196079568,1.09709222666312
"453",34,37,2,2,213,2,1,0,3,0.506233031960275,0.452786929278747
"454",34,29,2,2,214,3,1,0,1,1.12931695260973,1.06665256881013
"455",34,26,2,2,215,3,2,1,3,0.801621648332555,0.773644962136821
"456",34,21,2,1,216,3,2,0,1,0.900388400117167,0.869243693837674
"457",34,20,2,1,217,3,1,1,3,0.927717628645557,0.925639065432403
"458",34,35,2,2,218,1,1,0,3,0.45814649521535,0.556626544284031
"459",34,24,2,1,219,2,1,1,3,0.546367812966918,0.509540698655856
"460",34,32,2,2,220,1,2,1,5,0.260964758162183,0.162673907681705
"461",34,19,2,1,221,2,1,1,4,0.61368956416215,0.66039297559213
"462",34,30,2,2,222,3,2,1,3,0.756744321511267,0.764855941243137
"463",34,37,2,2,223,3,2,1,3,0.76831041858485,0.776183324910766
"464",34,29,2,2,224,3,1,0,1,0.517264180299208,0.435732800044117
"465",34,26,2,2,225,2,1,0,3,0.676352671151858,0.732959073625061
"466",34,21,2,2,226,2,2,1,3,0.634838117239348,0.685051784896728
"467",34,20,2,2,227,1,2,1,5,0.40651894404379,0.462945958630362
"468",34,35,2,1,228,3,1,1,2,0.526156598531302,0.514853626105471
"469",34,24,2,2,229,3,2,1,2,0.978919376599781,1.08030483900396
"470",34,32,2,2,230,3,2,1,3,0.696488789478448,0.704164076090553
"471",34,19,2,1,231,3,2,0,2,1.24245996207404,1.23628661779526
"472",34,30,2,1,232,3,2,0,1,0.788531104390565,0.821499565282781
"473",34,37,2,1,233,1,1,1,5,0.408906439229989,0.580868254463755
"474",34,29,2,2,234,1,2,1,4,0.350296113618044,0.333129525989683
"475",34,26,2,1,235,1,1,1,4,0.386722201216784,0.418630263857269
"476",34,21,2,2,236,1,2,1,5,0.399471346113954,0.353138639625089
"477",34,20,2,1,237,3,2,0,1,0.555512416102424,0.596887084191731
"478",34,35,2,2,238,1,2,1,4,0.487410400697667,0.569017628388839
"479",34,24,2,2,239,1,2,1,4,0.3910483901827,0.363670549520075
"480",34,32,2,1,240,3,2,0,2,0.300813794583504,0.316865089839506
"481",33,30,1,2,1,1,1,0,3,0.499203479299172,0.45496595397586
"482",33,39,1,2,2,3,1,0,1,0.718465216133718,0.754909969771603
"483",33,27,1,2,3,3,1,0,2,0.712877576358449,0.68753726378674
"484",33,26,1,1,4,2,1,1,3,0.638059045214233,0.568655417371757
"485",33,28,1,1,5,2,1,1,4,0.388788685970838,0.318750109926897
"486",33,28,1,1,6,3,2,0,2,1.28143106316824,1.36271854388214
"487",33,23,1,1,7,1,1,1,5,0.364590822424005,0.355009401839583
"488",33,20,1,2,8,1,2,1,5,0.531267123081828,0.530133708728847
"489",33,39,1,1,9,1,1,1,5,0.413005143839451,0.35323731535483
"490",33,24,1,1,10,1,1,1,5,0.397411291826959,0.372845294049824
"491",33,30,1,2,11,1,2,1,4,0.408349324675142,0.427422798409913
"492",33,39,1,2,12,2,2,1,3,0.603131049963991,0.617888956275961
"493",33,27,1,2,13,2,1,0,3,0.929040541162604,1.06862544065998
"494",33,26,1,2,14,2,2,1,3,0.49225815792384,0.541652309230528
"495",33,28,1,1,15,2,2,0,2,0.62371412213334,0.562753097665618
"496",33,28,1,1,16,3,2,0,2,1.59919308986112,1.70741364142515
"497",33,23,1,2,17,3,2,1,2,0.956992262074069,0.97164273597305
"498",33,20,1,1,18,3,1,1,3,0.629024818976091,0.573114548796289
"499",33,39,1,1,19,2,1,1,3,0.425631084935034,0.424045201508454
"500",33,24,1,1,20,2,2,0,2,0.614479878409873,0.592024782291467
"501",33,30,1,2,21,2,2,1,4,0.639657183187489,0.628054022710678
"502",33,39,1,2,22,3,1,0,2,0.294674591350386,0.333250185209583
"503",33,27,1,1,23,1,1,1,4,0.254902577951548,0.299796348480143
"504",33,26,1,2,24,3,1,0,1,0.684675748151994,0.716970448076428
"505",33,28,1,1,25,1,1,1,4,0.457142297252093,0.481094748909932
"506",33,28,1,2,26,3,1,0,1,1.10036002375514,1.163628235123
"507",33,23,1,2,27,2,1,0,2,0.766901199016665,0.7880921518293
"508",33,20,1,1,28,3,1,1,3,1.01194809551028,1.03773928702381
"509",33,39,1,1,29,2,1,1,4,0.647886517381621,0.656170890775976
"510",33,24,1,1,30,1,1,1,5,0.367043546058779,0.366560297432075
"511",33,30,1,2,31,3,2,1,3,0.523837148560999,0.472621418521134
"512",33,39,1,2,32,3,2,1,2,0.999651442814619,0.956095965994236
"513",33,27,1,1,33,2,2,0,3,0.567194620864472,0.65708778199769
"514",33,26,1,2,34,1,2,1,5,0.278649884788089,0.270068931259902
"515",33,28,1,1,35,2,1,1,4,0.674562480671737,0.630357559247527
"516",33,28,1,1,36,2,2,0,3,0.510121235008656,0.484925063756577
"517",33,23,1,2,37,1,2,1,5,0.495835449720162,0.530693748487802
"518",33,20,1,1,38,2,2,0,3,0.674277336577287,0.697761744497267
"519",33,39,1,1,39,2,1,1,3,0.704584263933371,0.699537944575969
"520",33,24,1,2,40,3,1,0,2,0.967032401362217,0.940438898685029
"521",33,30,1,1,41,1,2,0,3,0.597980958004714,0.527666658660683
"522",33,39,1,1,42,1,1,1,4,0.49097446771777,0.47918939738245
"523",33,27,1,1,43,1,1,1,5,0.460971640902722,0.490560510463163
"524",33,26,1,2,44,1,2,1,5,0.468242001363164,0.461119673521148
"525",33,28,1,1,45,3,2,0,1,1.54143485992828,1.5840190036199
"526",33,28,1,2,46,1,2,1,4,0.398777299028842,0.31884334534436
"527",33,23,1,2,47,2,1,0,2,0.49156955273965,0.480624620604857
"528",33,20,1,2,48,1,2,1,5,0.361378869767874,0.455985443020514
"529",33,39,1,1,49,1,1,1,5,0.39292092719705,0.425444679665552
"530",33,24,1,2,50,1,1,0,3,0.672081456565006,0.740040799175996
"531",33,30,1,1,51,2,2,0,2,0.898517889976085,0.878027544862303
"532",33,39,1,1,52,3,2,0,1,1.01785723503963,1.01427681354275
"533",33,27,1,1,53,1,1,1,5,0.399102085065749,0.370586243419942
"534",33,26,1,2,54,3,1,0,2,1.1654317368235,1.1940766526745
"535",33,28,1,2,55,2,2,1,3,0.675087902379142,0.767788669316915
"536",33,28,1,1,56,2,1,1,3,0.55827261146542,0.558702025570443
"537",33,23,1,2,57,2,1,0,3,0.786836799338706,0.837112053633368
"538",33,20,1,1,58,2,2,0,3,0.546441991128313,0.58193190946667
"539",33,39,1,1,59,3,2,0,1,0.710387107154669,0.679247026137613
"540",33,24,1,2,60,2,1,0,3,0.73215217810054,0.630641733846513
"541",33,30,1,1,61,2,1,1,3,0.339922585360122,0.299914717681981
"542",33,39,1,2,62,3,2,1,2,0.8131665942524,0.74944180570383
"543",33,27,1,1,63,3,2,0,1,1.12101913570461,1.14720639299923
"544",33,26,1,2,64,2,2,1,3,0.645591937260502,0.562217788293446
"545",33,28,1,2,65,1,2,1,4,0.529566809119113,0.522432426595819
"546",33,28,1,2,66,2,2,1,3,0.59746616861012,0.602519986040093
"547",33,23,1,1,67,2,1,1,3,0.68525923963126,0.62265590516743
"548",33,20,1,1,68,1,1,1,4,0.380876641246709,0.364359425503715
"549",33,39,1,2,69,3,2,1,2,1.13166627304495,1.08954041162196
"550",33,24,1,2,70,1,2,1,5,0.44883961638462,0.504119950412321
"551",33,30,1,1,71,2,1,1,4,0.662412943445667,0.61448462000925
"552",33,39,1,2,72,1,2,1,4,0.319179731907513,0.239599216627158
"553",33,27,1,1,73,2,1,1,3,0.783263426881186,0.808813422775784
"554",33,26,1,1,74,1,2,0,4,0.73584952979103,0.756200444585236
"555",33,28,1,1,75,1,1,1,4,0.463926725543503,0.555385082951463
"556",33,28,1,1,76,1,1,1,5,0.376752749366141,0.391300959522742
"557",33,23,1,2,77,1,2,1,5,0.475545425099945,0.455385047510632
"558",33,20,1,2,78,3,1,0,1,0.851099786985925,0.903620888118048
"559",33,39,1,1,79,3,1,1,3,0.586357018848674,0.593580132664142
"560",33,24,1,2,80,1,2,1,5,0.27700277716985,0.25087931411558
"561",33,30,1,2,81,2,2,1,3,0.683410760811313,0.601693503886613
"562",33,39,1,2,82,2,2,1,4,0.67980994534713,0.644828949672337
"563",33,27,1,2,83,3,1,0,1,0.825609318780461,0.76608957299677
"564",33,26,1,1,84,1,1,1,4,0.431249851383877,0.438920685871207
"565",33,28,1,2,85,1,2,1,5,0.246425094803644,0.245650769656062
"566",33,28,1,1,86,3,1,1,3,1.17525162508077,1.1201431727415
"567",33,23,1,2,87,1,2,1,5,0.346724700092606,0.36562036835758
"568",33,20,1,1,88,1,2,0,3,0.850906471153634,0.944790591388683
"569",33,39,1,2,89,2,1,0,3,0.437948637414969,0.423147801641171
"570",33,24,1,2,90,2,1,0,2,0.502472628313437,0.495705427312147
"571",33,30,1,2,91,2,2,1,4,0.463348246351142,0.486256333869396
"572",33,39,1,1,92,3,2,0,2,1.17980005602699,1.2140765889189
"573",33,27,1,2,93,3,1,0,1,0.528882955279424,0.545209086609324
"574",33,26,1,1,94,3,1,1,2,0.65397506812979,0.688829278015422
"575",33,28,1,2,95,3,1,0,1,1.30940224844696,1.34004041068298
"576",33,28,1,2,96,1,1,0,4,0.61966111779767,0.580262193179765
"577",33,23,1,1,97,1,2,0,4,0.510466994984941,0.492516582164689
"578",33,20,1,2,98,3,2,1,2,1.00112055659177,0.993266617148257
"579",33,39,1,2,99,3,1,0,1,0.536137391695862,0.536257724785452
"580",33,24,1,2,100,1,2,1,4,0.398353664449987,0.461593699946323
"581",33,30,1,2,101,2,2,1,3,0.668470748306152,0.612486291272564
"582",33,39,1,1,102,3,1,1,3,1.11640569804571,1.1300810538541
"583",33,27,1,1,103,3,2,0,1,1.20874140504095,1.2562729682395
"584",33,26,1,1,104,1,1,1,5,0.386094184309653,0.388601720316812
"585",33,28,1,2,105,2,1,0,2,0.666521862989615,0.727262799814871
"586",33,28,1,1,106,1,1,1,4,0.414421130284952,0.422311836147886
"587",33,23,1,2,107,3,2,1,2,0.840495240670868,0.833469365302527
"588",33,20,1,1,108,2,2,0,2,0.598741879800504,0.549916413585199
"589",33,39,1,2,109,3,1,0,2,1.04285934303782,0.944920625552571
"590",33,24,1,1,110,2,2,0,2,0.930987425954782,0.921285754578318
"591",33,30,1,1,111,3,1,1,2,0.754556434059745,0.800341800378009
"592",33,39,1,2,112,1,2,1,5,0.342290162854275,0.311624101937498
"593",33,27,1,1,113,2,1,1,4,0.520263573395818,0.576682192164484
"594",33,26,1,2,114,2,1,0,2,0.687246427954514,0.747278440567336
"595",33,28,1,1,115,3,1,1,3,0.868123735361235,0.838870797664629
"596",33,28,1,2,116,3,1,0,2,1.19187896833893,1.29074596735998
"597",33,23,1,2,117,3,1,0,1,0.766000419739293,0.787473004604773
"598",33,20,1,1,118,1,2,0,4,0.449704301134905,0.491614750279105
"599",33,39,1,1,119,2,1,1,3,0.618634128490603,0.591368958074899
"600",33,24,1,1,120,1,1,1,5,0.48171828642484,0.596086163136162
"601",33,30,1,1,121,1,1,1,4,0.40011135941095,0.50046744244508
"602",33,39,1,2,122,1,1,0,4,0.707337918941106,0.692553963443498
"603",33,27,1,2,123,2,1,0,2,0.703024218226723,0.740050948948475
"604",33,26,1,1,124,3,1,1,3,0.844939957731007,0.744497973593594
"605",33,28,1,1,125,1,2,0,3,0.700425901020485,0.707584476800873
"606",33,28,1,2,126,3,1,0,1,0.522405793988654,0.529767506339813
"607",33,23,1,2,127,3,1,0,1,0.818420117631852,0.827881166893166
"608",33,20,1,1,128,2,1,1,3,0.56690051399224,0.609137650995144
"609",33,39,1,1,129,2,2,0,2,0.702472775060766,0.727477772619763
"610",33,24,1,2,130,1,2,1,5,0.291377297580335,0.347611479092481
"611",33,30,1,1,131,2,1,1,4,0.593856568712124,0.585097865424289
"612",33,39,1,2,132,1,2,1,4,0.325091565872607,0.354182917851758
"613",33,27,1,2,133,1,2,1,5,0.41731833531595,0.413158589051665
"614",33,26,1,2,134,2,2,1,4,0.505193309381631,0.471883460016865
"615",33,28,1,1,135,2,1,1,4,0.561100485163768,0.574390477830728
"616",33,28,1,2,136,2,1,0,3,0.494268141188243,0.524076245133105
"617",33,23,1,2,137,1,1,0,3,0.48887143374786,0.473650019170901
"618",33,20,1,2,138,3,2,1,2,0.604874026452239,0.575939728563117
"619",33,39,1,2,139,1,2,1,4,0.211991226798833,0.270900427848987
"620",33,24,1,1,140,3,2,0,2,0.323748224581073,0.268338852134469
"621",33,30,1,1,141,2,2,0,3,0.507144764281904,0.459901351649144
"622",33,39,1,1,142,3,2,0,1,0.424033002444885,0.449809911097048
"623",33,27,1,2,143,2,1,0,2,0.646251917270768,0.689494769391643
"624",33,26,1,2,144,2,2,1,3,0.77394034175449,0.845951173614761
"625",33,28,1,2,145,2,2,1,3,0.542058638326531,0.529149983880448
"626",33,28,1,2,146,3,2,1,3,0.857070834995624,0.860979264792347
"627",33,23,1,2,147,3,1,0,1,1.15083945368296,1.10249832539905
"628",33,20,1,1,148,1,1,1,5,0.392441602340649,0.430803786184066
"629",33,39,1,2,149,2,1,0,3,0.871083840277364,0.87325309540903
"630",33,24,1,2,150,1,2,1,5,0.308667252718462,0.342789946528775
"631",33,30,1,1,151,2,2,0,3,1.05217139480132,1.09404407147625
"632",33,39,1,2,152,2,2,1,3,0.522299539583125,0.494901964581681
"633",33,27,1,1,153,3,2,0,2,1.44388306197342,1.37602932325887
"634",33,26,1,2,154,2,2,1,4,0.770370399444785,0.756702981016145
"635",33,28,1,1,155,2,2,0,2,0.628782342343415,0.661458066235984
"636",33,28,1,1,156,3,2,0,2,0.503990727340926,0.528561910100705
"637",33,23,1,1,157,1,2,0,4,0.492337776217404,0.467963886612151
"638",33,20,1,2,158,1,1,0,4,0.349208701167796,0.377503281346314
"639",33,39,1,2,159,2,2,1,3,0.641869873098836,0.594555450719585
"640",33,24,1,1,160,1,2,0,4,0.52835191191119,0.521399647754404
"641",33,30,1,1,161,3,1,1,2,0.880856287733741,0.881463250782882
"642",33,39,1,1,162,3,2,0,2,0.750475071940243,0.733154469020137
"643",33,27,1,2,163,3,2,1,3,0.637087581615264,0.64218916903134
"644",33,26,1,2,164,2,1,0,2,0.484752632791115,0.425316723257493
"645",33,28,1,2,165,2,1,0,3,0.778524697670945,0.748022515826384
"646",33,28,1,1,166,1,1,1,4,0.341883870133843,0.388619634409512
"647",33,23,1,1,167,2,1,1,3,0.446447565308899,0.538339369734941
"648",33,20,1,1,168,1,1,1,5,0.382311108039088,0.344032430169807
"649",33,39,1,2,169,3,1,0,2,0.873546521278509,0.882173947339374
"650",33,24,1,1,170,1,1,1,4,0.499812267159389,0.527654711138271
"651",33,30,1,1,171,1,1,1,5,0.397249289182746,0.452764200352194
"652",33,39,1,2,172,2,2,1,3,0.553033380331078,0.562798038200539
"653",33,27,1,2,173,2,2,1,3,0.703519410725512,0.699106933825305
"654",33,26,1,2,174,1,2,1,4,0.443410718958835,0.469587430603536
"655",33,28,1,1,175,1,1,1,4,0.446822917625758,0.415978037181296
"656",33,28,1,1,176,1,1,1,5,0.438421012963641,0.466782865920259
"657",33,23,1,1,177,2,1,1,3,0.560491834422306,0.50440837943557
"658",33,20,1,1,178,1,1,1,4,0.416322948841163,0.502160245684322
"659",33,39,1,1,179,2,1,1,3,0.538529427026589,0.493633616666467
"660",33,24,1,2,180,2,1,0,3,0.827952844705564,0.768369905710729
"661",33,30,1,1,181,3,1,1,2,0.73054975559389,0.766881634345701
"662",33,39,1,1,182,2,1,1,3,0.524475476590914,0.507359778565733
"663",33,27,1,2,183,3,2,1,2,0.593930663017531,0.593882296227702
"664",33,26,1,2,184,2,2,1,3,0.646939153767584,0.673812531459853
"665",33,28,1,1,185,1,1,1,5,0.4078709522727,0.368956417298262
"666",33,28,1,2,186,2,2,1,4,0.625285275175494,0.717065610088322
"667",33,23,1,2,187,3,2,1,3,0.701864200453283,0.65795404349277
"668",33,20,1,2,188,2,1,0,3,0.851147110235469,0.863469334627499
"669",33,39,1,1,189,3,1,1,3,0.461211605550907,0.469954042561971
"670",33,24,1,2,190,3,1,0,1,1.29645881960563,1.28821589068192
"671",33,30,1,1,191,3,2,0,1,1.69696549239949,1.76749397239948
"672",33,39,1,1,192,2,1,1,3,0.539964408361715,0.481191771801277
"673",33,27,1,1,193,1,1,1,5,0.445390645007942,0.396126653923673
"674",33,26,1,1,194,1,1,1,5,0.432588549880784,0.364523569967695
"675",33,28,1,1,195,1,2,0,3,0.467318836835562,0.479454386569935
"676",33,28,1,2,196,3,2,1,2,0.805016605248516,0.81223186187357
"677",33,23,1,1,197,3,1,1,3,1.04315181247888,0.998994305376361
"678",33,20,1,1,198,3,1,1,3,0.436175798426128,0.291280532686644
"679",33,39,1,2,199,1,2,1,4,0.47544054782972,0.521185236718365
"680",33,24,1,1,200,2,2,0,2,0.575493437862023,0.634907701685941
"681",33,30,1,2,201,1,2,1,4,0.380527825972698,0.334545116199335
"682",33,39,1,2,202,2,1,0,3,0.570459587986407,0.528201680657103
"683",33,27,1,2,203,2,1,0,3,0.559406249030752,0.555503477056814
"684",33,26,1,2,204,3,2,1,2,0.795751047705518,0.712647746595152
"685",33,28,1,2,205,3,1,0,2,1.13068522105833,1.1061577334503
"686",33,28,1,2,206,1,1,0,4,0.565075948781136,0.489483226864423
"687",33,23,1,1,207,2,1,1,3,0.684665921028052,0.598621539680225
"688",33,20,1,2,208,3,2,1,3,0.503349729997344,0.610176575129957
"689",33,39,1,1,209,1,1,1,4,0.422547274889436,0.407261517528014
"690",33,24,1,2,210,2,1,0,3,0.631522306765621,0.609080549138075
"691",33,30,1,1,211,3,2,0,1,1.10262531090463,1.03799414978916
"692",33,39,1,1,212,3,1,1,3,0.872333036901519,0.989763805079152
"693",33,27,1,2,213,3,1,0,2,1.42331540532892,1.45073939605654
"694",33,26,1,1,214,2,1,1,4,0.65564242631386,0.652076410496972
"695",33,28,1,2,215,2,2,1,3,0.440235804843131,0.319879932341635
"696",33,28,1,2,216,3,2,1,2,0.846737791667472,0.775692748685064
"697",33,23,1,1,217,3,2,0,2,0.525265493380573,0.524107307657761
"698",33,20,1,1,218,1,1,1,5,0.452427643183957,0.456976167028059
"699",33,39,1,1,219,3,1,1,3,0.796243338738657,0.819457682584957
"700",33,24,1,1,220,3,1,1,2,0.647625598746846,0.701073759338076
"701",33,30,1,2,221,3,2,1,3,0.932314521979763,0.895791112234011
"702",33,39,1,2,222,3,2,1,3,0.826222329706148,0.745193796252435
"703",33,27,1,2,223,3,1,0,2,1.50041405317018,1.48467644265818
"704",33,26,1,1,224,3,2,0,1,0.893109666635535,1.04556531346256
"705",33,28,1,2,225,1,2,1,4,0.496711990621619,0.409997945032099
"706",33,28,1,1,226,3,2,0,1,1.39465460889423,1.37933894758559
"707",33,23,1,2,227,3,2,1,2,0.994266412297564,0.986607841696352
"708",33,20,1,2,228,1,2,1,5,0.404226953081684,0.355268816632513
"709",33,39,1,2,229,1,1,0,4,0.550149623532308,0.477127123421705
"710",33,24,1,1,230,1,1,1,4,0.398603488837811,0.393216446629911
"711",33,30,1,1,231,1,1,1,4,0.338619016807892,0.371395268685126
"712",33,39,1,1,232,3,1,1,3,0.332211090966876,0.377490925804456
"713",33,27,1,1,233,1,1,1,4,0.392201372061315,0.434977380346814
"714",33,26,1,2,234,1,1,0,4,0.500421252926998,0.562119606072938
"715",33,28,1,2,235,1,2,1,4,0.424534089934572,0.403492370575995
"716",33,28,1,1,236,2,1,1,4,0.722141995152055,0.710715041166099
"717",33,23,1,1,237,2,2,0,2,0.650905561572903,0.706509625549424
"718",33,20,1,2,238,3,1,0,1,0.862635117827833,0.904630086492463
"719",33,39,1,1,239,3,1,1,2,0.742380325030151,0.750049593193788
"720",33,24,1,1,240,1,1,1,4,0.367343316149777,0.311005225316578
"721",32,19,2,1,1,1,1,1,4,0.49211196592877,0.434685788692559
"722",32,38,2,2,2,1,1,0,4,0.487524588155821,0.448959381825679
"723",32,36,2,2,3,2,1,0,3,0.596380615498146,0.478712730247321
"724",32,29,2,1,4,2,1,1,3,0.464652646530901,0.423050654227958
"725",32,25,2,2,5,2,2,1,4,0.629388757229841,0.614514569670497
"726",32,40,2,1,6,1,1,1,4,0.324584157697032,0.416014559471266
"727",32,21,2,2,7,2,1,0,3,0.832472891230381,0.840487738903315
"728",32,39,2,1,8,3,2,0,2,1.21321700125276,1.24501391140876
"729",32,39,2,1,9,3,2,0,2,1.18291021832085,1.20562169934068
"730",32,18,2,1,10,1,1,1,4,0.408498643571215,0.416200561027249
"731",32,19,2,2,11,1,2,1,4,0.485151575114491,0.537670511586675
"732",32,38,2,2,12,3,2,1,3,1.14447127257834,1.11432247573461
"733",32,36,2,1,13,1,1,1,5,0.345985180347945,0.375719303153078
"734",32,29,2,1,14,3,1,1,2,0.622795509252622,0.623812379865749
"735",32,25,2,1,15,3,2,0,2,0.782944294158759,0.690138999661379
"736",32,40,2,1,16,2,2,0,3,0.745151564731257,0.685343524295398
"737",32,21,2,2,17,2,1,0,3,0.409097117345826,0.35847437484095
"738",32,39,2,1,18,2,2,0,3,0.648852764507545,0.64218403736048
"739",32,39,2,1,19,2,2,0,3,0.80744236157462,0.805890783971957
"740",32,18,2,2,20,2,2,1,4,0.654798546761276,0.73784154842617
"741",32,19,2,1,21,2,2,0,3,0.884342192771345,0.918675844990974
"742",32,38,2,2,22,1,2,1,5,0.421952191969796,0.474494598357128
"743",32,36,2,1,23,2,1,1,3,0.63541289975444,0.541410075803731
"744",32,29,2,1,24,2,1,1,4,0.924558682533897,0.909490164049322
"745",32,25,2,2,25,2,1,0,3,0.484013188117247,0.509556157184741
"746",32,40,2,1,26,3,2,0,2,0.72590229379553,0.672059717452541
"747",32,21,2,2,27,1,2,1,5,0.385178078348745,0.458802038646143
"748",32,39,2,2,28,3,1,0,1,0.97347459258685,1.00808859929645
"749",32,39,2,1,29,3,1,1,3,0.855385529584948,0.871098156526048
"750",32,18,2,2,30,3,1,0,2,0.800079534245245,0.725109603178995
"751",32,19,2,2,31,1,2,1,4,0.408415187635004,0.471000628029147
"752",32,38,2,2,32,1,2,1,5,0.424533427262516,0.401365754557191
"753",32,36,2,2,33,3,2,1,2,0.918892168339094,0.908802165096038
"754",32,29,2,2,34,3,1,0,1,1.5182063002981,1.5380113885003
"755",32,25,2,1,35,3,2,0,1,1.7288698478846,1.75904817092958
"756",32,40,2,2,36,1,1,0,4,0.438336122243132,0.490945224785013
"757",32,21,2,1,37,2,1,1,4,0.745315900481243,0.745154168040314
"758",32,39,2,1,38,3,2,0,2,0.872425156835112,0.832235305056676
"759",32,39,2,2,39,3,2,1,3,0.571038090178029,0.579136041393354
"760",32,18,2,1,40,1,1,1,5,0.43938914200412,0.456203024386373
"761",32,19,2,2,41,1,2,1,5,0.415664550274912,0.438301034095547
"762",32,38,2,2,42,1,2,1,4,0.299359407574732,0.216864651202347
"763",32,36,2,2,43,2,1,0,2,0.754741664364313,0.706202746982385
"764",32,29,2,1,44,3,1,1,2,0.481865125260725,0.466602181659163
"765",32,25,2,1,45,2,1,1,4,0.757547206621879,0.799901175226393
"766",32,40,2,2,46,1,1,0,3,0.630747462033534,0.574721499731156
"767",32,21,2,2,47,3,1,0,2,0.905173518313178,0.996664372499707
"768",32,39,2,1,48,1,1,1,4,0.424537272752669,0.438479090868215
"769",32,39,2,2,49,2,2,1,4,0.597233801973253,0.496731557617961
"770",32,18,2,1,50,3,1,1,3,0.823745147445505,0.888398619616233
"771",32,19,2,1,51,2,1,1,4,0.602257876151254,0.605584986074163
"772",32,38,2,1,52,1,1,1,5,0.38657116796708,0.33622023139716
"773",32,36,2,1,53,1,1,1,4,0.297674414381796,0.235259472963798
"774",32,29,2,2,54,2,1,0,3,0.734626702383375,0.730871967865083
"775",32,25,2,1,55,2,1,1,3,0.698865797422859,0.767113907918236
"776",32,40,2,1,56,3,1,1,3,0.664943791531782,0.694406799095998
"777",32,21,2,2,57,3,1,0,1,1.38534268333615,1.33632851753053
"778",32,39,2,1,58,2,2,0,3,0.864094805639991,0.970714727382271
"779",32,39,2,2,59,1,2,1,4,0.484711327407388,0.452463337708762
"780",32,18,2,2,60,2,2,1,4,0.418051429101828,0.450575108706478
"781",32,19,2,1,61,1,1,1,4,0.405643319748384,0.419579141448019
"782",32,38,2,1,62,1,1,1,4,0.422675057137365,0.491841725347857
"783",32,36,2,1,63,1,1,1,4,0.446567003482187,0.35305638411374
"784",32,29,2,2,64,1,1,0,3,0.489005292178669,0.519766637197555
"785",32,25,2,1,65,2,1,1,4,0.756500889489768,0.801732601554723
"786",32,40,2,2,66,1,2,1,4,0.486894949040257,0.530346993291701
"787",32,21,2,1,67,3,2,0,1,0.422128317270966,0.40887959283574
"788",32,39,2,1,68,3,2,0,1,1.17638048730759,1.20337469065152
"789",32,39,2,1,69,2,1,1,3,0.591643971300094,0.589364335205075
"790",32,18,2,2,70,1,2,1,4,0.364328729795011,0.336071067857006
"791",32,19,2,2,71,1,2,1,5,0.394072439028947,0.409729124809299
"792",32,38,2,2,72,1,2,1,5,0.374282085579852,0.453175135127442
"793",32,36,2,1,73,2,1,1,3,0.432054976902697,0.457851263629868
"794",32,29,2,2,74,3,2,1,3,0.960850308060891,1.04587649524529
"795",32,25,2,1,75,3,2,0,2,0.684601826228545,0.653403962542388
"796",32,40,2,2,76,3,2,1,2,0.827001901428084,0.816567341148124
"797",32,21,2,1,77,3,2,0,1,1.33811152707547,1.30265554653008
"798",32,39,2,1,78,1,1,1,5,0.308828313534298,0.334425006362002
"799",32,39,2,1,79,3,2,0,2,0.934830652759042,0.947268463391496
"800",32,18,2,2,80,1,1,0,4,0.582030522826694,0.56540246933305
"801",32,19,2,1,81,1,1,1,4,0.372103986114586,0.277735872547882
"802",32,38,2,2,82,1,2,1,5,0.354613646398865,0.369322570275354
"803",32,36,2,2,83,3,1,0,2,1.14183684117544,1.1259408265906
"804",32,29,2,1,84,2,2,0,3,0.618097500707221,0.586141387935056
"805",32,25,2,1,85,1,1,1,4,0.424321413860114,0.501315488717411
"806",32,40,2,1,86,2,1,1,3,0.587965147129918,0.591960083361935
"807",32,21,2,2,87,1,1,0,3,0.444618970293951,0.556898012687989
"808",32,39,2,2,88,2,2,1,3,0.449086374325616,0.39296478393527
"809",32,39,2,1,89,3,1,1,3,0.890930301111909,1.01384024126157
"810",32,18,2,1,90,1,1,1,4,0.310618287157155,0.282437705336053
"811",32,19,2,2,91,1,2,1,5,0.486996731899838,0.433249704519404
"812",32,38,2,2,92,1,1,0,3,0.537018106653947,0.524932451333591
"813",32,36,2,1,93,1,2,0,3,0.46976709933371,0.489454806372234
"814",32,29,2,2,94,3,1,0,1,0.6837261679313,0.708431763584117
"815",32,25,2,2,95,3,2,1,3,0.680317765623458,0.667238406032351
"816",32,40,2,2,96,3,1,0,1,0.951412229986025,1.00731672455296
"817",32,21,2,1,97,2,1,1,3,0.688472536472239,0.572830097784445
"818",32,39,2,1,98,3,1,1,3,0.944659573933995,0.938223663818142
"819",32,39,2,1,99,2,2,0,3,0.389377648601543,0.422409163334418
"820",32,18,2,2,100,1,2,1,5,0.311383658088479,0.395915052292342
"821",32,19,2,2,101,1,2,1,4,0.441379890433592,0.515583753008514
"822",32,38,2,1,102,2,2,0,3,0.353757389308774,0.320076405255166
"823",32,36,2,2,103,3,2,1,2,0.567740007117538,0.522254906978227
"824",32,29,2,1,104,1,1,1,4,0.535129605929957,0.564656020524263
"825",32,25,2,2,105,1,2,1,4,0.376875912937389,0.421216952398953
"826",32,40,2,1,106,3,2,0,1,0.944756829831547,0.947925117301866
"827",32,21,2,1,107,2,1,1,3,0.697305350375099,0.714522395470819
"828",32,39,2,2,108,3,2,1,2,0.384439702446966,0.351745336675223
"829",32,39,2,2,109,1,2,1,4,0.505040440131888,0.508949879329519
"830",32,18,2,1,110,3,2,0,1,0.745055426245805,0.76822573295414
"831",32,19,2,2,111,3,2,1,2,0.683219109381724,0.715416213945654
"832",32,38,2,2,112,3,2,1,2,0.73325923132454,0.704759187868795
"833",32,36,2,2,113,2,2,1,3,0.846706472472195,0.77324738746301
"834",32,29,2,2,114,3,2,1,3,0.458659105192032,0.470482560687034
"835",32,25,2,2,115,1,2,1,4,0.401174535126927,0.430223224055679
"836",32,40,2,2,116,1,2,1,4,0.27556649410674,0.236751444287908
"837",32,21,2,2,117,1,2,1,5,0.302668705364163,0.345899659418074
"838",32,39,2,1,118,1,1,1,5,0.451701937570799,0.519181139109962
"839",32,39,2,1,119,1,2,0,4,0.356063989596673,0.381348958488612
"840",32,18,2,1,120,3,1,1,3,0.737470261224279,0.800041691291047
"841",32,19,2,2,121,3,2,1,2,0.947005121033172,1.05912577946744
"842",32,38,2,2,122,2,1,0,3,0.88225270408095,0.935496334668194
"843",32,36,2,2,123,2,2,1,4,0.552161855329465,0.532902756554209
"844",32,29,2,1,124,3,2,0,2,0.39375639197688,0.387226333135362
"845",32,25,2,2,125,2,1,0,3,0.612428352538559,0.600163165501334
"846",32,40,2,2,126,3,1,0,1,0.860129367341656,0.835073892784332
"847",32,21,2,1,127,3,2,0,2,0.966080579257314,1.01249250358293
"848",32,39,2,2,128,1,2,1,5,0.478390743375926,0.401513512957611
"849",32,39,2,2,129,1,2,1,5,0.267452741227165,0.281537521186184
"850",32,18,2,2,130,3,1,0,1,0.6584086678609,0.674475728772582
"851",32,19,2,2,131,3,1,0,1,1.20453197548113,1.27419965345801
"852",32,38,2,1,132,2,1,1,3,0.480054333397712,0.536579823166472
"853",32,36,2,1,133,2,1,1,3,0.438255609481593,0.411698742904486
"854",32,29,2,2,134,3,1,0,2,0.704100912946798,0.726807469050598
"855",32,25,2,2,135,2,1,0,2,0.782844530523493,0.899665893999257
"856",32,40,2,1,136,3,2,0,2,0.745393887251566,0.713427183668367
"857",32,21,2,1,137,3,2,0,2,1.04260323674261,0.9958018878088
"858",32,39,2,1,138,3,2,0,2,1.04443772406146,1.00541892890156
"859",32,39,2,1,139,3,1,1,3,1.17789066247717,1.17598102142775
"860",32,18,2,2,140,1,1,0,3,0.670429524412091,0.638446102393192
"861",32,19,2,2,141,2,2,1,4,0.608090262487008,0.523939011378284
"862",32,38,2,1,142,3,1,1,3,0.607493169586742,0.583416266938156
"863",32,36,2,1,143,2,2,0,3,0.643078468270168,0.630585892582634
"864",32,29,2,2,144,3,1,0,1,0.517061763300213,0.600260346553937
"865",32,25,2,1,145,1,1,1,4,0.497742703619732,0.529929695446202
"866",32,40,2,1,146,2,1,1,3,0.45311595894093,0.462978617566874
"867",32,21,2,2,147,2,1,0,2,0.808992227182812,0.767566972797055
"868",32,39,2,2,148,1,2,1,5,0.251085218424453,0.236815312797112
"869",32,39,2,2,149,1,2,1,5,0.489293166364615,0.494063621937133
"870",32,18,2,2,150,3,2,1,3,1.15930383367913,1.11620046437919
"871",32,19,2,2,151,1,1,0,4,0.519751250757829,0.617659877032621
"872",32,38,2,2,152,1,2,1,4,0.361378253024878,0.455236074477482
"873",32,36,2,1,153,3,1,1,3,0.581572613003847,0.541128170414043
"874",32,29,2,2,154,2,2,1,4,0.581378748167762,0.57940025579322
"875",32,25,2,2,155,1,2,1,4,0.529858772448123,0.527111353974967
"876",32,40,2,1,156,2,2,0,2,0.662501208802748,0.563089074652966
"877",32,21,2,1,157,3,1,1,2,0.731675722735237,0.748208887449141
"878",32,39,2,2,158,2,2,1,3,0.525482786055891,0.557660634996162
"879",32,39,2,2,159,3,1,0,2,0.569422803518964,0.587268144397818
"880",32,18,2,1,160,2,1,1,3,0.54292994285595,0.594766492045139
"881",32,19,2,2,161,2,2,1,3,0.468289112041272,0.446214852394529
"882",32,38,2,1,162,1,1,1,5,0.296535552864023,0.256067102425286
"883",32,36,2,1,163,3,1,1,2,0.723969521179991,0.751975498941122
"884",32,29,2,2,164,3,1,0,1,0.605262864553975,0.705094599091882
"885",32,25,2,1,165,2,2,0,2,0.594784819532406,0.559770789973054
"886",32,40,2,2,166,3,1,0,1,0.758989615209777,0.778323699781982
"887",32,21,2,2,167,3,2,1,3,0.865503897050887,0.849436891494338
"888",32,39,2,2,168,2,2,1,3,0.649693135007859,0.689725008468501
"889",32,39,2,1,169,2,1,1,4,0.567509810522399,0.51334139873573
"890",32,18,2,1,170,2,2,0,2,0.463465452193948,0.43666427779118
"891",32,19,2,2,171,3,1,0,1,0.948673517108101,0.981452370557076
"892",32,38,2,2,172,2,2,1,3,0.566710274111264,0.529775654903075
"893",32,36,2,2,173,2,1,0,2,0.765313229643262,0.744179145705524
"894",32,29,2,2,174,2,2,1,3,0.624834427657077,0.52405510304288
"895",32,25,2,1,175,2,1,1,3,0.651019801203999,0.685669974255043
"896",32,40,2,2,176,2,2,1,4,0.495959035205763,0.401930707797538
"897",32,21,2,1,177,2,1,1,4,0.810569829483273,0.862276192425362
"898",32,39,2,1,178,2,1,1,4,0.557541197494129,0.56017090072551
"899",32,39,2,1,179,1,1,1,5,0.316797576316077,0.252832924635119
"900",32,18,2,1,180,1,2,0,3,0.661683383072873,0.595959690874925
"901",32,19,2,1,181,1,1,1,4,0.374650443115365,0.40115109024498
"902",32,38,2,2,182,2,2,1,3,0.321233612282381,0.237191435837571
"903",32,36,2,1,183,1,1,1,5,0.360554240272292,0.30906938098562
"904",32,29,2,1,184,2,2,0,3,0.577827639671628,0.636921240309453
"905",32,25,2,2,185,2,2,1,4,0.613596103046609,0.567886128806531
"906",32,40,2,1,186,2,1,1,3,0.674850991154779,0.590492882175666
"907",32,21,2,1,187,2,2,0,2,0.679820540643751,0.633247300686234
"908",32,39,2,2,188,1,2,1,4,0.277069940554752,0.252417752697441
"909",32,39,2,2,189,3,2,1,2,1.21487317271695,1.1468346695188
"910",32,18,2,1,190,3,2,0,2,1.32995554627724,1.35543597368707
"911",32,19,2,1,191,1,1,1,4,0.502269887880498,0.5861640857891
"912",32,38,2,1,192,2,2,0,2,0.704556678852019,0.633471570539364
"913",32,36,2,2,193,2,1,0,3,0.73636192626532,0.717982924819494
"914",32,29,2,2,194,3,1,0,1,1.50746080888183,1.45520691772197
"915",32,25,2,2,195,3,1,0,1,1.11132503741353,1.18064331379767
"916",32,40,2,1,196,1,2,0,4,0.653543240285328,0.654016374289114
"917",32,21,2,2,197,3,2,1,2,0.636783907105745,0.737352117083473
"918",32,39,2,1,198,3,1,1,2,0.768577422834523,0.80220081141089
"919",32,39,2,1,199,2,1,1,4,0.748542971823243,0.714694985619454
"920",32,18,2,1,200,3,2,0,1,1.09819307822088,1.23431850109476
"921",32,19,2,2,201,3,2,1,3,0.686905588214975,0.722410338233195
"922",32,38,2,2,202,2,1,0,2,1.0433815143056,1.02494047960673
"923",32,36,2,1,203,2,1,1,3,0.617464251108369,0.56180457038102
"924",32,29,2,2,204,1,2,1,5,0.480372641849361,0.439429276058574
"925",32,25,2,2,205,1,1,0,3,0.594264113321173,0.543363480348123
"926",32,40,2,2,206,2,2,1,4,0.84994379945099,0.845638989845444
"927",32,21,2,1,207,1,1,1,5,0.371820764244976,0.370336830197976
"928",32,39,2,1,208,3,1,1,2,0.464023799422146,0.42246898878944
"929",32,39,2,1,209,1,2,0,3,0.434450849373222,0.450515362098293
"930",32,18,2,1,210,1,1,1,4,0.403214346805659,0.368490158458248
"931",32,19,2,1,211,2,1,1,3,0.599785892280914,0.579315192436352
"932",32,38,2,1,212,3,1,1,3,0.901211850692264,0.82784367932815
"933",32,36,2,1,213,1,1,1,4,0.389571116384652,0.279487180027845
"934",32,29,2,2,214,1,2,1,4,0.324920491893031,0.274611757321701
"935",32,25,2,2,215,1,2,1,5,0.499090119937028,0.534285080608008
"936",32,40,2,2,216,1,2,1,5,0.391463730299246,0.44121653086793
"937",32,21,2,1,217,1,1,1,5,0.461404201957288,0.483776299253114
"938",32,39,2,2,218,1,2,1,4,0.444668499854088,0.421872563205856
"939",32,39,2,2,219,3,2,1,2,0.616788669559751,0.673376294984131
"940",32,18,2,1,220,3,1,1,3,0.693640871147493,0.706742777024842
"941",32,19,2,1,221,1,1,1,4,0.423803383248938,0.32657156207852
"942",32,38,2,1,222,2,1,1,4,0.449419911050589,0.421185086031243
"943",32,36,2,1,223,3,1,1,3,0.877266653917892,0.919349311323539
"944",32,29,2,2,224,2,2,1,3,0.614576120549142,0.646695889063513
"945",32,25,2,1,225,3,2,0,1,0.719805749832728,0.703720423020028
"946",32,40,2,2,226,1,2,1,4,0.510636855792245,0.448588371847064
"947",32,21,2,1,227,2,2,0,2,0.771006192696112,0.645789465985087
"948",32,39,2,2,228,2,2,1,3,0.580109196635244,0.635024852021368
"949",32,39,2,1,229,2,2,0,3,0.494505281068106,0.424111333825152
"950",32,18,2,2,230,1,2,1,5,0.386424487539089,0.285992252921947
"951",32,19,2,2,231,3,2,1,2,1.14867801392988,1.0947083068409
"952",32,38,2,1,232,1,1,1,4,0.490641543991789,0.461030052109772
"953",32,36,2,2,233,3,2,1,3,0.528149927026379,0.397535782402567
"954",32,29,2,1,234,3,2,0,1,0.2120165377731,0.183074659220869
"955",32,25,2,1,235,2,1,1,3,0.616294454286088,0.5728168075124
"956",32,40,2,2,236,3,2,1,3,0.566990341591849,0.495532696265344
"957",32,21,2,1,237,2,1,1,3,0.577461531889853,0.630861556028112
"958",32,39,2,2,238,2,2,1,4,0.733232505281268,0.694151392244488
"959",32,39,2,2,239,1,2,1,4,0.433665079692029,0.405059824297508
"960",32,18,2,1,240,2,2,0,2,0.788838884675686,0.781835596515826
"961",31,39,1,2,1,3,2,1,3,0.734032078295408,0.78859732504759
"962",31,26,1,2,2,2,2,1,3,0.64518094585079,0.683939697791429
"963",31,23,1,1,3,3,2,0,2,0.414336397395788,0.455272228264392
"964",31,36,1,2,4,2,1,0,3,0.776136708001013,0.802809491713808
"965",31,21,1,2,5,1,2,1,4,0.325761671070819,0.286145812773504
"966",31,32,1,1,6,3,1,1,2,0.718463051493144,0.742301337925235
"967",31,23,1,2,7,2,1,0,3,0.607800185125614,0.551861818181212
"968",31,33,1,2,8,3,1,0,2,0.95272446081145,1.00000528470994
"969",31,40,1,1,9,3,2,0,1,0.597461668879963,0.596102577071105
"970",31,39,1,1,10,2,2,0,2,0.747918366265061,0.764835694524399
"971",31,39,1,1,11,2,1,1,3,0.632654778962496,0.645525829115783
"972",31,26,1,1,12,1,2,0,3,0.667123306150326,0.603923453740858
"973",31,23,1,1,13,1,1,1,5,0.477844393202148,0.554976306686074
"974",31,36,1,1,14,3,1,1,3,0.499012569898777,0.541562684165141
"975",31,21,1,1,15,2,1,1,4,0.521336487821888,0.492585337986524
"976",31,32,1,2,16,2,1,0,3,0.826706246777782,0.835920684418853
"977",31,23,1,2,17,1,2,1,4,0.282838168706281,0.253553433498488
"978",31,33,1,1,18,2,1,1,4,0.499745463382283,0.38572279659366
"979",31,40,1,2,19,2,1,0,2,0.412909230035054,0.373458214756741
"980",31,39,1,1,20,2,2,0,2,0.692184449382722,0.629974326434326
"981",31,39,1,2,21,2,2,1,3,0.715272940315468,0.745744496197196
"982",31,26,1,2,22,3,2,1,3,0.829745668198691,0.84785769583877
"983",31,23,1,1,23,2,1,1,4,0.562422652487518,0.551013806131423
"984",31,36,1,2,24,1,2,1,5,0.287474813672928,0.301612037784526
"985",31,21,1,2,25,2,2,1,3,0.574481103404767,0.607609429682204
"986",31,32,1,1,26,2,1,1,3,0.678531076524962,0.681171405859677
"987",31,23,1,2,27,3,2,1,3,0.983972921340366,0.912385990923526
"988",31,33,1,2,28,2,2,1,4,0.603081503254746,0.698421899193047
"989",31,40,1,2,29,2,2,1,4,0.723833415206417,0.707503542223957
"990",31,39,1,2,30,1,1,0,3,0.422171297180964,0.455978221614154
"991",31,39,1,2,31,2,1,0,3,0.895569676219101,0.792139177953022
"992",31,26,1,2,32,1,1,0,3,0.416488466746172,0.484069568600514
"993",31,23,1,2,33,1,2,1,4,0.428908562963644,0.315369218969458
"994",31,36,1,2,34,3,2,1,2,0.714044692273725,0.767314898634189
"995",31,21,1,2,35,1,2,1,5,0.254877798270855,0.195419128742556
"996",31,32,1,2,36,1,2,1,5,0.360105112235961,0.358014243930946
"997",31,23,1,1,37,1,1,1,4,0.347560992676892,0.426449230847055
"998",31,33,1,2,38,2,1,0,3,0.651538388798656,0.668392125313254
"999",31,40,1,1,39,3,1,1,3,0.959514765432949,0.943881970967719
"1000",31,39,1,2,40,3,1,0,1,1.19359045070066,1.16470129113249
"1001",31,39,1,2,41,3,2,1,3,0.923838250257583,0.913826954492158
"1002",31,26,1,1,42,3,2,0,2,1.05506202500154,1.04064065740472
"1003",31,23,1,1,43,3,1,1,2,0.651689766109253,0.616254258006735
"1004",31,36,1,1,44,3,2,0,1,0.770865063470316,0.660461494337635
"1005",31,21,1,2,45,2,2,1,3,0.736866928975754,0.744155676840942
"1006",31,32,1,2,46,2,1,0,2,0.835923580016314,0.834944217506877
"1007",31,23,1,1,47,2,2,0,2,0.858450792437932,0.913248783708919
"1008",31,33,1,2,48,2,2,1,3,0.802995052992301,0.862662654589459
"1009",31,40,1,2,49,3,1,0,1,1.45722166712193,1.35105638248261
"1010",31,39,1,1,50,2,2,0,2,0.333928467734978,0.325673637421456
"1011",31,39,1,2,51,2,1,0,3,0.710642353987301,0.742534490769931
"1012",31,26,1,1,52,2,2,0,3,0.629822850124485,0.592922664154665
"1013",31,23,1,1,53,3,1,1,3,0.675212110163516,0.69085399183319
"1014",31,36,1,2,54,3,2,1,2,1.00659917166499,1.06414509663386
"1015",31,21,1,1,55,1,1,1,4,0.486091301541862,0.494102708698742
"1016",31,32,1,2,56,1,2,1,4,0.404056459080727,0.505524722775134
"1017",31,23,1,1,57,2,2,0,3,0.906316598908667,0.839909999127363
"1018",31,33,1,1,58,1,1,1,4,0.417999308942044,0.424704091183423
"1019",31,40,1,2,59,2,1,0,3,0.6333562354179,0.656805544273498
"1020",31,39,1,2,60,2,1,0,3,0.689968380271365,0.653637616345907
"1021",31,39,1,1,61,1,1,1,4,0.50489758485904,0.586073315128622
"1022",31,26,1,1,62,3,2,0,1,1.93507120044802,1.99333475932593
"1023",31,23,1,2,63,3,2,1,3,1.1308624667291,1.21464464582409
"1024",31,36,1,1,64,3,2,0,1,0.31854065295852,0.375862002972804
"1025",31,21,1,2,65,3,2,1,2,1.25403519460788,1.25227921341269
"1026",31,32,1,2,66,1,2,1,5,0.216708769920172,0.174798766694713
"1027",31,23,1,2,67,1,2,1,4,0.413296024625814,0.392156736945639
"1028",31,33,1,2,68,3,1,0,1,0.909575539068679,0.914095238233458
"1029",31,40,1,2,69,1,2,1,5,0.436275725361167,0.424301875821824
"1030",31,39,1,1,70,3,1,1,2,0.951517575233841,1.06371708726836
"1031",31,39,1,1,71,3,1,1,3,1.14404992857948,1.17517795413759
"1032",31,26,1,1,72,3,2,0,1,1.31870129366503,1.24733697667293
"1033",31,23,1,2,73,1,2,1,5,0.224050356715911,0.217309274994487
"1034",31,36,1,2,74,1,2,1,4,0.418140681188888,0.479021409544918
"1035",31,21,1,2,75,2,2,1,4,0.558305754257795,0.614279214474822
"1036",31,32,1,2,76,1,1,0,3,0.459590223245826,0.472330153086472
"1037",31,23,1,1,77,3,2,0,1,1.32024664175444,1.33376426216017
"1038",31,33,1,1,78,2,2,0,3,0.782666155653875,0.752350964676468
"1039",31,40,1,1,79,1,1,1,5,0.302418917647681,0.344080202290001
"1040",31,39,1,1,80,3,1,1,3,0.690083937140958,0.701831682066106
"1041",31,39,1,2,81,3,1,0,2,0.629438562259986,0.658906841173834
"1042",31,26,1,2,82,3,2,1,3,1.08682211741476,1.11536086610756
"1043",31,23,1,2,83,2,1,0,2,0.867446231192671,0.833212337413258
"1044",31,36,1,1,84,3,1,1,2,0.87449985243888,0.861264614942168
"1045",31,21,1,1,85,2,2,0,2,0.674621537346175,0.787113685136636
"1046",31,32,1,1,86,3,1,1,2,0.462035800421989,0.420815884127032
"1047",31,23,1,2,87,2,1,0,2,0.589886359645608,0.505706651270283
"1048",31,33,1,1,88,1,1,1,4,0.378741383518719,0.390770605305252
"1049",31,40,1,1,89,1,1,1,4,0.381220684259627,0.401142078568087
"1050",31,39,1,1,90,3,2,0,2,0.709038893494445,0.684586775931388
"1051",31,39,1,2,91,2,1,0,2,0.652237986895949,0.652969831548823
"1052",31,26,1,2,92,1,2,1,5,0.558380044242869,0.496516637860833
"1053",31,23,1,1,93,2,2,0,2,0.8656041213634,0.857393336172836
"1054",31,36,1,2,94,1,2,1,4,0.41868173541113,0.46202938115509
"1055",31,21,1,1,95,2,1,1,4,0.430274049555388,0.416113706203369
"1056",31,32,1,1,96,2,2,0,3,0.748102528503339,0.675791400296732
"1057",31,23,1,1,97,3,2,0,2,1.08620152301392,1.11169076398366
"1058",31,33,1,2,98,2,1,0,3,0.859389146085797,0.865442519417146
"1059",31,40,1,1,99,2,2,0,2,0.901327566169302,0.959050399648931
"1060",31,39,1,2,100,1,1,0,4,0.616595455531917,0.580313278924118
"1061",31,39,1,1,101,1,1,1,5,0.327915906268688,0.378040213361449
"1062",31,26,1,2,102,2,1,0,2,0.664228428875963,0.666615023098953
"1063",31,23,1,2,103,1,2,1,5,0.41081679026118,0.457537392603913
"1064",31,36,1,2,104,1,2,1,4,0.368278342263116,0.40969099135131
"1065",31,21,1,2,105,1,2,1,5,0.519574825579279,0.507390514476487
"1066",31,32,1,1,106,3,1,1,3,0.937614768875032,1.01831174789127
"1067",31,23,1,2,107,2,1,0,3,0.720745225089143,0.742458887437524
"1068",31,33,1,1,108,3,1,1,2,0.619219343289485,0.524717155252545
"1069",31,40,1,2,109,1,2,1,4,0.439201643927862,0.576220348842104
"1070",31,39,1,1,110,3,2,0,2,0.402988595946646,0.389420212276414
"1071",31,39,1,1,111,1,1,1,5,0.494569553375992,0.533627754205556
"1072",31,26,1,1,112,1,2,0,4,0.429557336165697,0.29704672356844
"1073",31,23,1,2,113,1,2,1,5,0.388330157800848,0.270734121764291
"1074",31,36,1,1,114,2,2,0,2,0.794933647740859,0.773066989340158
"1075",31,21,1,1,115,3,1,1,2,0.900775986185655,0.912143362145909
"1076",31,32,1,1,116,1,2,0,4,0.562299837158296,0.546719357299457
"1077",31,23,1,1,117,2,2,0,2,0.777206167778483,0.753687312531015
"1078",31,33,1,1,118,1,1,1,4,0.153505244361831,0.25403036041857
"1079",31,40,1,1,119,1,1,1,5,0.604999801941298,0.609934491904394
"1080",31,39,1,1,120,1,1,1,4,0.447699802437164,0.417913367968694
"1081",31,39,1,2,121,3,1,0,1,0.821336749415729,0.817316615658334
"1082",31,26,1,2,122,3,1,0,1,1.11965037098826,1.14193893375679
"1083",31,23,1,2,123,1,2,1,4,0.335812950746587,0.275194928891112
"1084",31,36,1,1,124,1,1,1,5,0.356341175819181,0.276654831879889
"1085",31,21,1,1,125,3,2,0,1,1.32381094561765,1.40349048579295
"1086",31,32,1,2,126,2,1,0,2,0.561482835403112,0.532902199396563
"1087",31,23,1,1,127,1,1,1,5,0.451781188438161,0.431951695323178
"1088",31,33,1,2,128,3,2,1,2,0.817772367959838,0.870788704301624
"1089",31,40,1,1,129,1,1,1,5,0.227981095487413,0.228400534399354
"1090",31,39,1,1,130,3,2,0,2,1.32112646312815,1.37389883138207
"1091",31,39,1,1,131,3,1,1,3,0.761306328462385,0.765964695841488
"1092",31,26,1,2,132,3,1,0,2,1.0632809761058,1.09214570654614
"1093",31,23,1,2,133,1,2,1,5,0.23869431689917,0.265869212696509
"1094",31,36,1,2,134,2,1,0,3,0.874773116704434,0.916285251313067
"1095",31,21,1,2,135,2,2,1,4,0.550899426399354,0.603271365926952
"1096",31,32,1,1,136,1,1,1,4,0.404235838517357,0.394669051812455
"1097",31,23,1,1,137,1,1,1,4,0.239031726099919,0.259857457573975
"1098",31,33,1,2,138,1,1,0,4,0.499909140156346,0.436692186389093
"1099",31,40,1,1,139,3,2,0,2,0.917537044009661,0.93624305380183
"1100",31,39,1,1,140,2,1,1,4,0.598086301786254,0.582099221384336
"1101",31,39,1,1,141,2,2,0,3,0.642299899429402,0.661360475705509
"1102",31,26,1,1,142,2,2,0,3,0.8180418841086,0.854996247483519
"1103",31,23,1,2,143,2,2,1,3,0.539436411025041,0.584039042067254
"1104",31,36,1,2,144,2,1,0,2,0.8769175324086,0.786348846852043
"1105",31,21,1,2,145,2,1,0,3,0.843081861094626,0.750863743231429
"1106",31,32,1,2,146,1,2,1,4,0.35805701820845,0.369973989746283
"1107",31,23,1,1,147,3,1,1,2,0.724153349693243,0.802672842393035
"1108",31,33,1,2,148,3,2,1,2,0.965803082535713,0.967475933173147
"1109",31,40,1,2,149,3,1,0,1,0.963343026397482,0.923190716022473
"1110",31,39,1,1,150,3,2,0,1,0.893692659302299,0.948216616356068
"1111",31,39,1,2,151,2,1,0,2,0.610546442269559,0.616209506751444
"1112",31,26,1,2,152,2,1,0,2,0.490684363931611,0.481002882141509
"1113",31,23,1,2,153,2,2,1,3,0.653432694582093,0.684604100204126
"1114",31,36,1,1,154,2,1,1,4,0.559057475558448,0.485662721060448
"1115",31,21,1,1,155,3,1,1,2,0.774281452307584,0.73803211499207
"1116",31,32,1,2,156,1,2,1,5,0.433748383199507,0.407678368771361
"1117",31,23,1,2,157,1,2,1,5,0.444918554434946,0.463207853438725
"1118",31,33,1,1,158,2,2,0,2,0.701252977280841,0.711076851506183
"1119",31,40,1,2,159,3,2,1,2,0.573921217177237,0.628600971641108
"1120",31,39,1,1,160,2,1,1,4,0.666030077911418,0.636229946327911
"1121",31,39,1,1,161,3,1,1,3,0.977738606974924,0.982275506864893
"1122",31,26,1,1,162,1,1,1,4,0.428157984628052,0.450441784827498
"1123",31,23,1,1,163,1,1,1,5,0.423456259578962,0.534997094473603
"1124",31,36,1,1,164,1,1,1,5,0.416667540885447,0.39419744588754
"1125",31,21,1,2,165,2,2,1,4,0.614579556171519,0.681288470347953
"1126",31,32,1,1,166,1,1,1,4,0.337291350952985,0.356249211744786
"1127",31,23,1,1,167,1,1,1,5,0.376990609894456,0.42445590740656
"1128",31,33,1,1,168,3,1,1,2,0.543954535501463,0.550605703598984
"1129",31,40,1,1,169,3,1,1,3,0.995444641336949,1.0224390225652
"1130",31,39,1,2,170,3,1,0,2,1.16998107690175,1.12453641755638
"1131",31,39,1,2,171,1,1,0,4,0.648969532402478,0.523402822748776
"1132",31,26,1,1,172,3,1,1,3,0.462539132988461,0.386921573804915
"1133",31,23,1,1,173,1,1,1,4,0.331302861488874,0.340412674936204
"1134",31,36,1,2,174,2,2,1,4,0.562405138565129,0.548485070320453
"1135",31,21,1,2,175,1,2,1,4,0.333264201346561,0.380030034364562
"1136",31,32,1,1,176,3,2,0,2,0.718132250237826,0.733657852976457
"1137",31,23,1,2,177,2,1,0,3,0.804257695591346,0.769666335712724
"1138",31,33,1,1,178,2,2,0,3,0.655086625500217,0.684364131452522
"1139",31,40,1,1,179,1,2,0,3,0.370126213670316,0.412019455903802
"1140",31,39,1,2,180,2,1,0,2,0.820221735324043,0.81252330722192
"1141",31,39,1,1,181,1,1,1,4,0.262735407294395,0.308883930729435
"1142",31,26,1,2,182,1,2,1,4,0.284642065077952,0.188046399527471
"1143",31,23,1,2,183,3,1,0,1,1.23974630056173,1.2492176993633
"1144",31,36,1,1,184,2,1,1,3,0.486939629062881,0.561578777749348
"1145",31,21,1,1,185,1,1,1,5,0.455591002540754,0.492723435682763
"1146",31,32,1,2,186,1,2,1,4,0.348985192841774,0.329791407180961
"1147",31,23,1,2,187,3,1,0,1,0.686199598644415,0.731441449713343
"1148",31,33,1,1,188,2,1,1,4,0.48032566889748,0.525110880305156
"1149",31,40,1,1,189,3,2,0,2,0.626578145091143,0.639890885277117
"1150",31,39,1,1,190,1,2,0,3,0.446281600858442,0.417044304149257
"1151",31,39,1,1,191,3,2,0,2,0.955459036530006,1.01333382925917
"1152",31,26,1,2,192,1,2,1,4,0.394647145656911,0.417781339377396
"1153",31,23,1,2,193,3,1,0,2,0.776444562804023,0.751795787215389
"1154",31,36,1,1,194,3,2,0,2,1.26002952545691,1.22571980445585
"1155",31,21,1,2,195,1,2,1,5,0.479071123866664,0.437815733533677
"1156",31,32,1,1,196,1,2,0,4,0.45221149301371,0.439133201918358
"1157",31,23,1,1,197,1,1,1,5,0.333963739591146,0.369371452448125
"1158",31,33,1,2,198,1,2,1,4,0.47606907920322,0.464296362308123
"1159",31,40,1,2,199,1,2,1,5,0.291112912404434,0.314981319729849
"1160",31,39,1,1,200,1,2,0,4,0.498273031280803,0.563660391841247
"1161",31,39,1,2,201,3,1,0,1,0.516155640569589,0.514529624683656
"1162",31,26,1,1,202,1,1,1,4,0.472447916381614,0.493144684538711
"1163",31,23,1,1,203,2,2,0,3,0.744747705242744,0.755613361131147
"1164",31,36,1,2,204,2,2,1,4,0.705182340625006,0.747106154801967
"1165",31,21,1,2,205,2,2,1,4,0.746241592585556,0.71544609993289
"1166",31,32,1,1,206,2,2,0,3,0.951592907028505,0.942081138148577
"1167",31,23,1,1,207,3,2,0,1,1.08246456729327,1.06472119495492
"1168",31,33,1,2,208,3,2,1,2,0.111280259848902,0.149804018461648
"1169",31,40,1,1,209,2,1,1,4,0.575626863255834,0.540078267201136
"1170",31,39,1,2,210,3,2,1,3,0.698826787593481,0.72055619069181
"1171",31,39,1,1,211,3,2,0,2,0.576826797207359,0.623250099687565
"1172",31,26,1,2,212,1,1,0,4,0.495986586907067,0.552633157781378
"1173",31,23,1,2,213,3,2,1,3,1.00726858639389,0.95974208094211
"1174",31,36,1,2,214,3,1,0,1,1.24247367912291,1.29145210244299
"1175",31,21,1,2,215,2,1,0,3,0.711019884261413,0.646802736910976
"1176",31,32,1,2,216,2,2,1,3,0.542900391136242,0.55197703003798
"1177",31,23,1,1,217,1,1,1,4,0.211306620872656,0.292738532152649
"1178",31,33,1,1,218,3,1,1,2,1.13395721787659,1.12368651097536
"1179",31,40,1,2,219,3,1,0,2,0.718435210256801,0.686464018446402
"1180",31,39,1,1,220,3,1,1,3,0.728284909389658,0.737245952036429
"1181",31,39,1,1,221,2,2,0,3,0.401696623517265,0.435109184238597
"1182",31,26,1,2,222,2,1,0,3,0.684482261207969,0.577829231187302
"1183",31,23,1,1,223,3,2,0,1,1.0779709016561,1.0843167439805
"1184",31,36,1,1,224,1,1,1,4,0.306571528507474,0.364075302312358
"1185",31,21,1,2,225,1,2,1,4,0.442969702751011,0.424146611855051
"1186",31,32,1,2,226,3,1,0,2,0.741968701079607,0.717420419121508
"1187",31,23,1,1,227,1,1,1,5,0.532887062370023,0.44071144764374
"1188",31,33,1,2,228,2,1,0,2,0.898332630734967,0.906234398073821
"1189",31,40,1,2,229,1,2,1,5,0.562274177177982,0.564274603068788
"1190",31,39,1,2,230,3,1,0,1,1.03188365741958,1.03154923403827
"1191",31,39,1,1,231,3,1,1,3,0.957567142817633,0.959731038008573
"1192",31,26,1,1,232,2,1,1,3,0.678173693607231,0.738659439198852
"1193",31,23,1,2,233,2,2,1,3,0.732467075239394,0.723618130753811
"1194",31,36,1,2,234,2,2,1,4,0.645904180933872,0.571364950581892
"1195",31,21,1,2,235,2,1,0,3,0.821195167769943,0.823567896955196
"1196",31,32,1,1,236,2,1,1,3,0.607001537646458,0.577199850053765
"1197",31,23,1,1,237,3,2,0,2,0.767508205338557,0.687229319533066
"1198",31,33,1,2,238,1,1,0,3,0.348424254767741,0.285153659037033
"1199",31,40,1,1,239,3,1,1,2,0.70404829863511,0.719235521611013
"1200",31,39,1,1,240,1,1,1,4,0.298061376091442,0.307365595259592
"1201",30,33,2,1,1,2,2,0,2,0.727858766188425,0.761275605921261
"1202",30,34,2,1,2,3,2,0,2,1.48397929116957,1.50585086637306
"1203",30,27,2,2,3,1,2,1,5,0.523575857031506,0.477948649077708
"1204",30,20,2,2,4,3,1,0,1,1.26504795580157,1.27914098660242
"1205",30,18,2,2,5,3,1,0,1,1.70212307089747,1.6355243753274
"1206",30,18,2,2,6,2,2,1,3,0.630659920614686,0.729145270781512
"1207",30,37,2,1,7,1,1,1,4,0.268960215624396,0.1387770314374
"1208",30,28,2,2,8,1,2,1,5,0.478085675113666,0.413926137522448
"1209",30,26,2,2,9,1,2,1,5,0.326910135781256,0.366737657767244
"1210",30,21,2,1,10,3,1,1,2,0.759800329153404,0.718775580630754
"1211",30,33,2,1,11,1,1,1,4,0.360050442094358,0.191054138105676
"1212",30,34,2,1,12,1,1,1,4,0.347035900607325,0.425631747327213
"1213",30,27,2,2,13,1,2,1,4,0.32410887814543,0.291858701342158
"1214",30,20,2,2,14,1,2,1,5,0.252007812257521,0.199197407473179
"1215",30,18,2,2,15,1,2,1,4,0.470894486853069,0.519560318997932
"1216",30,18,2,2,16,2,1,0,3,0.707336624464473,0.665355560051531
"1217",30,37,2,1,17,3,1,1,2,1.00042274324816,1.02369281313092
"1218",30,28,2,1,18,2,1,1,4,0.612341167954418,0.608522989208855
"1219",30,26,2,2,19,1,2,1,5,0.405362245189961,0.458937245624103
"1220",30,21,2,2,20,2,2,1,4,0.781084449309112,0.794340166351435
"1221",30,33,2,1,21,3,1,1,2,0.888221012518438,0.877860277921932
"1222",30,34,2,1,22,2,2,0,2,0.855282696081123,0.862284580881085
"1223",30,27,2,1,23,1,1,1,5,0.361332230269072,0.335373823053151
"1224",30,20,2,1,24,3,2,0,2,1.04591287541593,1.06947942362252
"1225",30,18,2,1,25,2,1,1,3,0.83499328056424,0.832716328673495
"1226",30,18,2,2,26,3,1,0,2,1.08984137599612,0.992700685404726
"1227",30,37,2,2,27,2,1,0,3,0.603145512583453,0.556437076504927
"1228",30,28,2,2,28,1,2,1,5,0.300422705792418,0.292009151409761
"1229",30,26,2,2,29,2,1,0,2,0.650002997284921,0.680153463461004
"1230",30,21,2,2,30,1,2,1,4,0.314757975338155,0.378194942126842
"1231",30,33,2,2,31,1,2,1,4,0.465330858763247,0.462942165904599
"1232",30,34,2,2,32,3,2,1,3,0.874807317768356,0.789465906803686
"1233",30,27,2,1,33,3,2,0,2,1.24127693132033,1.26138419519787
"1234",30,20,2,1,34,2,2,0,3,0.528149303746894,0.516486737894061
"1235",30,18,2,2,35,2,2,1,4,0.73316523742862,0.748024939071181
"1236",30,18,2,2,36,1,2,1,5,0.451379464459355,0.431371553563354
"1237",30,37,2,1,37,3,1,1,3,0.80844654174609,0.778227471495374
"1238",30,28,2,1,38,1,1,1,4,0.410315249361329,0.362525327982417
"1239",30,26,2,2,39,2,1,0,2,0.615845509172086,0.594187783877099
"1240",30,21,2,2,40,2,1,0,2,0.96634446628685,1.00375013275243
"1241",30,33,2,1,41,2,1,1,3,0.839361732686242,0.910860305282014
"1242",30,34,2,1,42,3,1,1,3,0.980147786325011,0.998448898684731
"1243",30,27,2,1,43,1,1,1,4,0.478871481839813,0.483522690804471
"1244",30,20,2,1,44,3,2,0,1,0.994049786487619,0.934514002362543
"1245",30,18,2,1,45,3,2,0,2,0.992836335213123,1.00961724167239
"1246",30,18,2,1,46,2,1,1,3,0.701548349486478,0.630917245601956
"1247",30,37,2,2,47,3,1,0,2,1.14994961127324,1.12780830980663
"1248",30,28,2,1,48,2,2,0,2,0.621025776901127,0.512991884459901
"1249",30,26,2,1,49,2,1,1,4,0.511604137724059,0.480364428039718
"1250",30,21,2,2,50,2,1,0,3,0.668298685518681,0.674140953490527
"1251",30,33,2,1,51,1,1,1,5,0.372196941644749,0.432914348193998
"1252",30,34,2,2,52,2,2,1,4,0.525383390429834,0.622925109938461
"1253",30,27,2,1,53,2,1,1,3,0.836061086830987,0.896517759339667
"1254",30,20,2,1,54,1,1,1,4,0.353656848813853,0.215013246085907
"1255",30,18,2,1,55,2,1,1,4,0.653368453371115,0.729282423820214
"1256",30,18,2,1,56,2,1,1,4,0.710821589627131,0.658984867989401
"1257",30,37,2,2,57,3,1,0,2,1.05158715032718,1.12600521038384
"1258",30,28,2,1,58,1,1,1,5,0.38281672987436,0.425923288620574
"1259",30,26,2,2,59,3,2,1,2,0.860565740049099,0.790648783095118
"1260",30,21,2,2,60,2,1,0,3,0.634319592198023,0.683151190729854
"1261",30,33,2,1,61,1,1,1,5,0.410771979183895,0.435852969517334
"1262",30,34,2,2,62,3,2,1,2,1.17734071784382,1.22303038887716
"1263",30,27,2,1,63,3,1,1,2,0.956378030206296,0.955182591272224
"1264",30,20,2,2,64,3,1,0,1,1.00263087498447,1.01670082299444
"1265",30,18,2,2,65,1,2,1,5,0.383113263176902,0.370616775831822
"1266",30,18,2,1,66,3,1,1,3,0.792157054093256,0.887288950485115
"1267",30,37,2,1,67,1,1,1,5,0.397054931840874,0.38114954921611
"1268",30,28,2,2,68,3,2,1,3,0.680131860475445,0.644717293664027
"1269",30,26,2,2,69,1,2,1,5,0.394021207129453,0.350570564657684
"1270",30,21,2,2,70,2,1,0,2,0.676378275084862,0.739086906200181
"1271",30,33,2,2,71,2,2,1,4,0.51910864851843,0.547490177245973
"1272",30,34,2,2,72,3,1,0,1,0.951153737087458,0.888227902621516
"1273",30,27,2,2,73,2,2,1,4,0.621475588454695,0.621383816723972
"1274",30,20,2,2,74,2,1,0,2,0.673586570754657,0.630849981241007
"1275",30,18,2,2,75,2,1,0,2,0.704430933790293,0.651897138265324
"1276",30,18,2,1,76,1,1,1,5,0.19172291051711,0.141511653828338
"1277",30,37,2,2,77,3,2,1,2,0.742681009426022,0.740292409608593
"1278",30,28,2,1,78,2,1,1,3,0.540489389667198,0.504564386844374
"1279",30,26,2,2,79,3,1,0,1,0.979355277326524,1.00030754043619
"1280",30,21,2,2,80,3,1,0,2,0.921881600101019,0.879102617270598
"1281",30,33,2,2,81,2,2,1,3,0.69218890830271,0.832325483531822
"1282",30,34,2,1,82,1,1,1,5,0.347279310873754,0.355241741568474
"1283",30,27,2,2,83,1,1,0,3,0.800001036036942,0.797288147054703
"1284",30,20,2,2,84,3,2,1,2,0.736389124294314,0.714835183025645
"1285",30,18,2,1,85,2,2,0,2,0.7378097057445,0.790611187098621
"1286",30,18,2,1,86,2,1,1,4,0.678054653045776,0.706179558909851
"1287",30,37,2,2,87,3,2,1,2,1.00378922854669,0.980197973082524
"1288",30,28,2,2,88,1,2,1,5,0.632229635164744,0.749515834190398
"1289",30,26,2,2,89,3,2,1,2,1.09860792562632,1.04122053650308
"1290",30,21,2,2,90,2,2,1,4,0.544118508785659,0.582348752448197
"1291",30,33,2,1,91,1,1,1,4,0.384739943691529,0.390479897804231
"1292",30,34,2,1,92,1,1,1,5,0.473906230548919,0.439928789166652
"1293",30,27,2,2,93,2,1,0,3,0.75247442661175,0.717996837249805
"1294",30,20,2,1,94,1,1,1,5,0.408143389316739,0.322066002890776
"1295",30,18,2,1,95,2,1,1,3,0.67030834227171,0.619057562261817
"1296",30,18,2,1,96,3,2,0,2,0.432603773488633,0.404036568993687
"1297",30,37,2,1,97,2,2,0,2,0.679438533840509,0.60323774671245
"1298",30,28,2,1,98,3,2,0,2,0.575897580348443,0.648190582732307
"1299",30,26,2,1,99,2,1,1,3,0.524845205269873,0.463233666653144
"1300",30,21,2,1,100,2,1,1,4,0.622969503890827,0.679654621927518
"1301",30,33,2,1,101,2,1,1,4,0.485400807537028,0.502909198500655
"1302",30,34,2,1,102,2,1,1,3,0.855571676780641,0.81538510818653
"1303",30,27,2,1,103,3,1,1,3,0.957305972363378,1.06129834519771
"1304",30,20,2,2,104,2,2,1,3,0.813565305142781,0.796763488325363
"1305",30,18,2,2,105,2,2,1,3,0.518194755419521,0.508894108605005
"1306",30,18,2,1,106,1,1,1,5,0.35690406055887,0.321395415443645
"1307",30,37,2,1,107,3,2,0,2,1.13993559710891,1.23468628406374
"1308",30,28,2,2,108,1,2,1,4,0.411434908278965,0.360433457791005
"1309",30,26,2,1,109,1,1,1,4,0.439312812322247,0.469721093284184
"1310",30,21,2,2,110,2,1,0,2,0.629862918088198,0.656649250078678
"1311",30,33,2,1,111,1,1,1,4,0.259569268931678,0.274165378013937
"1312",30,34,2,2,112,3,2,1,2,0.862538042336041,0.898492643680293
"1313",30,27,2,2,113,1,2,1,4,0.300958344467846,0.328057795475659
"1314",30,20,2,1,114,3,1,1,3,0.826974732458428,0.83334874088482
"1315",30,18,2,1,115,2,1,1,4,0.455009847303328,0.419170230826833
"1316",30,18,2,1,116,2,2,0,2,0.723309554762283,0.713017859273903
"1317",30,37,2,2,117,1,1,0,4,0.45212475439985,0.469894752845352
"1318",30,28,2,1,118,3,2,0,2,0.060583248551265,0.0885745027399142
"1319",30,26,2,2,119,1,2,1,4,0.369769357521156,0.389802150138696
"1320",30,21,2,1,120,2,2,0,3,0.875008289886322,0.846293605703833
"1321",30,33,2,1,121,1,2,0,3,0.636916583834775,0.67900142466708
"1322",30,34,2,1,122,1,1,1,5,0.358819821658244,0.373328615294419
"1323",30,27,2,1,123,2,2,0,2,0.906201183511469,0.86983722453358
"1324",30,20,2,2,124,2,2,1,3,0.949647682993134,0.891811147763215
"1325",30,18,2,2,125,2,1,0,2,0.809663557351965,0.83056935220733
"1326",30,18,2,2,126,2,2,1,3,0.744525835895752,0.775545441306739
"1327",30,37,2,2,127,2,1,0,2,0.758096266950657,0.668252743123768
"1328",30,28,2,1,128,2,1,1,3,0.589429492339733,0.64745581030822
"1329",30,26,2,1,129,1,2,0,3,0.607580242974765,0.604337501481799
"1330",30,21,2,1,130,1,1,1,5,0.413271302077946,0.395316067845205
"1331",30,33,2,2,131,2,2,1,3,0.309722519127304,0.261521835854097
"1332",30,34,2,1,132,2,1,1,3,0.352596391936357,0.346518347943642
"1333",30,27,2,2,133,3,2,1,3,0.874261627357226,0.855533915075288
"1334",30,20,2,2,134,1,1,0,3,0.524090214338543,0.464762424311257
"1335",30,18,2,2,135,3,2,1,2,0.949921710452155,0.999516920734706
"1336",30,18,2,1,136,3,2,0,2,1.45585677684205,1.3818523923018
"1337",30,37,2,1,137,2,1,1,4,0.691609580820344,0.64744807646535
"1338",30,28,2,1,138,1,1,1,4,0.407029501544916,0.347899664622946
"1339",30,26,2,2,139,3,2,1,2,0.642693647373194,0.656709863110769
"1340",30,21,2,2,140,3,1,0,1,1.15305846366858,1.18036680162764
"1341",30,33,2,2,141,3,2,1,3,0.904434974807129,1.01683337480445
"1342",30,34,2,1,142,3,1,1,3,0.589887140911061,0.562827053040787
"1343",30,27,2,2,143,1,2,1,4,0.501031652071747,0.508620499538611
"1344",30,20,2,1,144,1,1,1,4,0.411646451534511,0.382981804547712
"1345",30,18,2,2,145,2,1,0,3,0.47692693347395,0.428088225642255
"1346",30,18,2,1,146,3,1,1,2,1.01914340495778,1.03429890388397
"1347",30,37,2,2,147,2,1,0,3,0.868613567477578,0.930912635502317
"1348",30,28,2,1,148,3,2,0,2,1.59150648716607,1.6489736335288
"1349",30,26,2,2,149,1,2,1,5,0.386971206500015,0.339234778351287
"1350",30,21,2,2,150,3,1,0,2,0.842332063126134,0.844638102465741
"1351",30,33,2,2,151,1,2,1,5,0.366994298782974,0.398218177140514
"1352",30,34,2,2,152,1,2,1,4,0.336209785856931,0.313780105409948
"1353",30,27,2,1,153,1,1,1,5,0.191683884399817,0.217767730564124
"1354",30,20,2,1,154,2,1,1,4,0.778770198999979,0.751898593869958
"1355",30,18,2,2,155,2,1,0,3,0.559804117651621,0.649046692710384
"1356",30,18,2,2,156,3,2,1,2,0.831685795566269,0.788795846894876
"1357",30,37,2,2,157,1,2,1,5,0.372922373722782,0.448257681975753
"1358",30,28,2,1,158,3,1,1,2,0.95000340732531,0.838498974030558
"1359",30,26,2,2,159,3,1,0,2,0.805833436497431,0.844605091678219
"1360",30,21,2,2,160,2,1,0,2,0.642017773411161,0.648525473720937
"1361",30,33,2,1,161,3,2,0,2,0.980702499106504,1.0132754131837
"1362",30,34,2,2,162,3,2,1,3,0.695504252702571,0.661683174958832
"1363",30,27,2,2,163,3,2,1,2,0.918702060386645,0.933739062624343
"1364",30,20,2,1,164,3,1,1,2,0.852375801406904,0.821815995361228
"1365",30,18,2,2,165,1,2,1,4,0.473010666149863,0.467709075325567
"1366",30,18,2,1,166,1,2,0,3,0.392664046925962,0.420869374538223
"1367",30,37,2,2,167,3,1,0,2,0.697163215001998,0.728559274922832
"1368",30,28,2,2,168,2,2,1,3,0.353863770696532,0.376739527422832
"1369",30,26,2,1,169,1,1,1,4,0.418920607785869,0.423216436936959
"1370",30,21,2,1,170,3,1,1,3,0.740560683634074,0.683644125810133
"1371",30,33,2,2,171,1,2,1,5,0.375024778180788,0.340488324897767
"1372",30,34,2,1,172,3,1,1,2,1.03205923009766,1.04251525064981
"1373",30,27,2,1,173,1,1,1,4,0.256442412866498,0.271367637763401
"1374",30,20,2,1,174,1,1,1,5,0.561753354737638,0.590500397912589
"1375",30,18,2,1,175,3,2,0,1,1.0316069305633,1.05099813643017
"1376",30,18,2,2,176,3,1,0,1,1.29208015100643,1.30236329840085
"1377",30,37,2,1,177,1,1,1,4,0.395720132454928,0.340498606443453
"1378",30,28,2,2,178,3,2,1,2,1.07837985019539,1.04434933230107
"1379",30,26,2,1,179,3,2,0,1,0.641759855197899,0.740439370318788
"1380",30,21,2,1,180,3,2,0,1,0.644790598958422,0.574918619646069
"1381",30,33,2,2,181,3,1,0,1,1.03441188208232,1.05034274731977
"1382",30,34,2,1,182,2,1,1,3,0.723269439103522,0.736551938202125
"1383",30,27,2,1,183,2,2,0,3,0.604587539168944,0.626479928617942
"1384",30,20,2,1,184,1,1,1,4,0.391321412834478,0.390643825570584
"1385",30,18,2,2,185,3,1,0,2,0.485318846391798,0.453431342641997
"1386",30,18,2,2,186,3,1,0,2,0.883259781038851,0.901352838232143
"1387",30,37,2,2,187,3,1,0,1,1.3316655651152,1.356574547226
"1388",30,28,2,2,188,2,2,1,3,0.71074751084744,0.704566160717851
"1389",30,26,2,1,189,2,2,0,2,0.66869426480067,0.711661850211806
"1390",30,21,2,2,190,2,1,0,2,0.568845020281831,0.646748772523728
"1391",30,33,2,1,191,3,1,1,2,0.782317642523198,0.824027979248639
"1392",30,34,2,1,192,2,2,0,2,0.912866355622215,0.981530663597273
"1393",30,27,2,2,193,2,1,0,3,0.814306432428746,0.871087686871015
"1394",30,20,2,2,194,2,2,1,4,0.739580765454107,0.751558613068638
"1395",30,18,2,2,195,3,1,0,2,0.658243834299014,0.66668859240724
"1396",30,18,2,1,196,3,1,1,3,0.775601940746262,0.796239187809586
"1397",30,37,2,1,197,2,1,1,4,0.7087805215734,0.736982238292641
"1398",30,28,2,2,198,3,2,1,3,0.768096356292589,0.810832441581575
"1399",30,26,2,2,199,3,2,1,2,0.739445795996938,0.743039310466819
"1400",30,21,2,2,200,2,2,1,4,0.903968559937422,0.929053369186644
"1401",30,33,2,1,201,3,1,1,2,0.839647648841397,0.865821219840665
"1402",30,34,2,1,202,2,1,1,3,0.596572622769489,0.62042564622527
"1403",30,27,2,1,203,2,2,0,3,0.487860257452946,0.476010912463949
"1404",30,20,2,1,204,1,1,1,5,0.293190866146737,0.280115436827023
"1405",30,18,2,1,205,1,1,1,5,0.465484974586054,0.465643072552964
"1406",30,18,2,2,206,1,1,0,3,0.56278543655493,0.577645569606648
"1407",30,37,2,1,207,1,1,1,4,0.446665780654619,0.421207120572783
"1408",30,28,2,1,208,1,1,1,4,0.405487836229331,0.399564550195488
"1409",30,26,2,2,209,2,2,1,3,0.630846140430518,0.572524124044124
"1410",30,21,2,2,210,1,2,1,4,0.394995099857376,0.455515863822783
"1411",30,33,2,1,211,1,1,1,5,0.425783613122018,0.465876489361251
"1412",30,34,2,1,212,3,1,1,2,0.92822733372538,0.89895252178238
"1413",30,27,2,1,213,2,1,1,3,0.806684490668615,0.832606001676001
"1414",30,20,2,1,214,1,1,1,4,0.416002944075669,0.438471807764297
"1415",30,18,2,1,215,2,2,0,2,0.808203563326223,0.769473226977773
"1416",30,18,2,1,216,3,1,1,3,0.81346755035686,0.754531858434271
"1417",30,37,2,2,217,2,1,0,2,0.843713996463791,0.865514109542331
"1418",30,28,2,1,218,1,1,1,5,0.355321456555864,0.340105378697704
"1419",30,26,2,2,219,1,2,1,5,0.286331021258189,0.361786634620377
"1420",30,21,2,2,220,1,2,1,4,0.461072819795057,0.451548326160615
"1421",30,33,2,2,221,3,2,1,3,0.722442167130283,0.769178420314113
"1422",30,34,2,1,222,1,1,1,5,0.369072822146682,0.341264400535491
"1423",30,27,2,1,223,1,1,1,4,0.253636762291561,0.276406259127452
"1424",30,20,2,1,224,3,1,1,2,0.916877440425531,1.00373445611621
"1425",30,18,2,2,225,3,2,1,2,0.91352543504501,0.853434725415354
"1426",30,18,2,2,226,3,1,0,1,1.69350777877571,1.67243273042364
"1427",30,37,2,2,227,1,2,1,4,0.515606643068449,0.456011908477941
"1428",30,28,2,2,228,1,2,1,4,0.43873806576722,0.440113175924911
"1429",30,26,2,2,229,1,2,1,4,0.4850559105849,0.439595471762939
"1430",30,21,2,2,230,2,2,1,3,0.350612900861475,0.336899907190707
"1431",30,33,2,1,231,3,1,1,2,1.17393997064416,1.26030179363043
"1432",30,34,2,2,232,2,1,0,2,0.936047806422969,0.872371373354753
"1433",30,27,2,1,233,1,2,0,3,0.43706677408505,0.425172179910748
"1434",30,20,2,1,234,3,2,0,2,1.07721896448262,1.01151684119264
"1435",30,18,2,1,235,3,2,0,2,0.676623193168112,0.746671714251939
"1436",30,18,2,2,236,1,2,1,4,0.328458603860397,0.351180375280368
"1437",30,37,2,2,237,2,2,1,4,0.627800615415035,0.644197194226092
"1438",30,28,2,2,238,1,2,1,4,0.470673122628302,0.437815039233612
"1439",30,26,2,2,239,1,2,1,4,0.292444666312994,0.275430046953486
"1440",30,21,2,1,240,1,1,1,5,0.444001332001913,0.501090836153187
"1441",29,30,1,2,1,3,2,1,2,0.729144241443875,0.752850710425862
"1442",29,38,1,2,2,3,1,0,2,1.62741749818824,1.60520936693523
"1443",29,35,1,1,3,1,1,1,5,0.471166270813021,0.339095234494554
"1444",29,36,1,2,4,1,1,0,4,0.732097062687971,0.809777533630179
"1445",29,20,1,1,5,1,1,1,4,0.3091604877554,0.273223109302683
"1446",29,33,1,2,6,1,2,1,4,0.359534632591077,0.395112325560319
"1447",29,37,1,2,7,2,1,0,3,0.65248354529194,0.635145038965586
"1448",29,38,1,1,8,3,1,1,2,0.902519204149112,0.927810824549896
"1449",29,38,1,1,9,3,1,1,2,0.526720233387621,0.563974762218966
"1450",29,39,1,2,10,3,2,1,2,0.936649358292018,0.887267867697697
"1451",29,30,1,2,11,3,1,0,1,1.2261280524263,1.23145688978868
"1452",29,38,1,2,12,2,2,1,3,0.326163331275522,0.316067165544688
"1453",29,35,1,2,13,3,2,1,3,0.975821209642398,0.922295441034528
"1454",29,36,1,1,14,1,1,1,5,0.285342445857507,0.289085576856559
"1455",29,20,1,2,15,3,1,0,2,0.165870060647573,0.0532667690724729
"1456",29,33,1,1,16,1,2,0,3,0.513629451035835,0.551487998774512
"1457",29,37,1,2,17,1,2,1,5,0.39594387553363,0.322206365210684
"1458",29,38,1,1,18,3,2,0,2,0.527052947150303,0.503894092454147
"1459",29,38,1,2,19,1,2,1,5,0.394679529501213,0.368056859787631
"1460",29,39,1,2,20,2,2,1,4,0.644048129067717,0.637526634543963
"1461",29,30,1,2,21,2,2,1,3,0.537247754033246,0.549305867622278
"1462",29,38,1,1,22,1,1,1,4,0.388989165427193,0.387313533363521
"1463",29,35,1,2,23,1,1,0,3,0.458879154194548,0.453939373996888
"1464",29,36,1,1,24,3,2,0,2,0.572688931291743,0.583260340825283
"1465",29,20,1,2,25,3,1,0,1,1.24057975317214,1.32814349707599
"1466",29,33,1,1,26,1,1,1,5,0.4466673900651,0.377208421340633
"1467",29,37,1,1,27,2,2,0,3,0.986699510225785,1.03742388594695
"1468",29,38,1,1,28,2,1,1,4,0.527953645076783,0.50673011200719
"1469",29,38,1,2,29,2,1,0,3,0.54716099614336,0.544367604679237
"1470",29,39,1,1,30,3,1,1,2,0.82347121483236,0.85387304504798
"1471",29,30,1,1,31,1,1,1,5,0.558458890505858,0.552009117749051
"1472",29,38,1,1,32,3,1,1,3,0.755546599102935,0.764285154858559
"1473",29,35,1,2,33,1,1,0,3,0.50701587859407,0.443626056191075
"1474",29,36,1,1,34,3,1,1,2,1.02370794765822,1.01332623928681
"1475",29,20,1,2,35,1,2,1,5,0.400076502486223,0.453778276606576
"1476",29,33,1,2,36,2,2,1,4,0.528175914510548,0.506338362307915
"1477",29,37,1,2,37,2,1,0,2,0.432302028794616,0.430169798521398
"1478",29,38,1,1,38,3,2,0,2,0.955380197254785,0.919429081919659
"1479",29,38,1,2,39,2,2,1,3,0.687655637187633,0.634472563015069
"1480",29,39,1,1,40,2,2,0,3,0.596590732513743,0.630987261252454
"1481",29,30,1,1,41,1,2,0,4,0.584314034519271,0.588621017325568
"1482",29,38,1,2,42,1,2,1,4,0.34510138170068,0.244520800101582
"1483",29,35,1,1,43,3,2,0,1,1.47898057033306,1.53476258068532
"1484",29,36,1,2,44,2,2,1,3,0.718055418841965,0.712213761077074
"1485",29,20,1,1,45,1,1,1,5,0.43685954339576,0.399375204609993
"1486",29,33,1,2,46,2,1,0,2,0.371968986546729,0.346441723681844
"1487",29,37,1,1,47,3,1,1,3,0.612022516823588,0.626632727175455
"1488",29,38,1,1,48,2,2,0,2,0.732415259519259,0.704898601854287
"1489",29,38,1,1,49,1,1,1,5,0.390491964835402,0.314568736359905
"1490",29,39,1,2,50,1,2,1,5,0.377415915375663,0.273108616607438
"1491",29,30,1,1,51,3,1,1,2,1.15438756311077,1.13313443990173
"1492",29,38,1,2,52,2,1,0,3,0.620578402352746,0.64576596624141
"1493",29,35,1,1,53,1,1,1,4,0.343473734811345,0.271093210859218
"1494",29,36,1,1,54,2,1,1,4,0.59322190429074,0.532998585168985
"1495",29,20,1,2,55,1,2,1,4,0.586734073902304,0.51842672341854
"1496",29,33,1,2,56,3,2,1,2,0.48153274751189,0.450787067630806
"1497",29,37,1,1,57,2,2,0,2,0.781098070625595,0.783958695600003
"1498",29,38,1,2,58,2,2,1,4,0.603175234217704,0.61250165526934
"1499",29,38,1,2,59,1,2,1,5,0.517142472332891,0.567021229285604
"1500",29,39,1,1,60,2,1,1,3,0.842323747123391,0.863690714791592
"1501",29,30,1,2,61,2,1,0,3,0.905006795440407,0.850389812089873
"1502",29,38,1,1,62,3,1,1,2,0.571274122256829,0.567723719817064
"1503",29,35,1,2,63,3,2,1,3,0.862960241346227,0.907905127573156
"1504",29,36,1,2,64,3,1,0,1,0.87468659380311,0.892647583790559
"1505",29,20,1,1,65,1,2,0,4,0.600404101369549,0.453678379822578
"1506",29,33,1,2,66,2,1,0,2,0.601913781772628,0.632955965663613
"1507",29,37,1,1,67,2,1,1,4,0.45826869005363,0.436620955057429
"1508",29,38,1,1,68,2,1,1,3,0.437873088351414,0.494221465059121
"1509",29,38,1,2,69,3,1,0,1,1.35981539610761,1.38474157729201
"1510",29,39,1,1,70,2,2,0,2,0.74897107675622,0.747644167410891
"1511",29,30,1,2,71,2,2,1,4,0.573151103501466,0.581908255169664
"1512",29,38,1,1,72,2,2,0,3,0.793427723885127,0.717016383215167
"1513",29,35,1,1,73,3,2,0,2,1.50220038364994,1.5891203554529
"1514",29,36,1,1,74,3,2,0,2,0.92433534871158,0.970637311259751
"1515",29,20,1,2,75,3,2,1,2,0.943974767648594,0.954022552840933
"1516",29,33,1,2,76,2,2,1,3,0.542590027668554,0.592306133035191
"1517",29,37,1,1,77,1,1,1,4,0.338123562420813,0.331418168423222
"1518",29,38,1,2,78,3,1,0,1,1.00463661078969,1.019433029433
"1519",29,38,1,1,79,1,1,1,5,0.303368289029697,0.3757831122167
"1520",29,39,1,1,80,1,1,1,5,0.334602894615581,0.402742720357563
"1521",29,30,1,1,81,1,1,1,5,0.296042347363137,0.238810672462801
"1522",29,38,1,2,82,2,2,1,4,0.594601522667461,0.547005959727273
"1523",29,35,1,1,83,1,2,0,4,0.57583753246914,0.546453605563138
"1524",29,36,1,2,84,3,1,0,2,0.251297651660269,0.290949301466554
"1525",29,20,1,2,85,1,2,1,4,0.260213772029077,0.307411415746741
"1526",29,33,1,2,86,2,1,0,3,0.783497586529362,0.715366480796771
"1527",29,37,1,1,87,2,2,0,2,0.754227291804075,0.749196058367088
"1528",29,38,1,2,88,3,2,1,3,0.546173858556155,0.534218593136897
"1529",29,38,1,2,89,3,1,0,2,1.51703629927839,1.52844065890799
"1530",29,39,1,1,90,1,1,1,4,0.579027114407867,0.58110415764807
"1531",29,30,1,2,91,1,2,1,4,0.439309851283676,0.473948255967073
"1532",29,38,1,2,92,2,1,0,2,0.671127585611516,0.744305765474824
"1533",29,35,1,1,93,3,1,1,3,0.976751775057691,0.90461804826911
"1534",29,36,1,2,94,3,2,1,2,0.850916814426983,0.848386985625396
"1535",29,20,1,1,95,3,2,0,1,0.585046196373903,0.569174121716633
"1536",29,33,1,1,96,3,1,1,3,1.10384716717254,1.08058323858491
"1537",29,37,1,1,97,1,2,0,4,0.73442621351482,0.728723095065979
"1538",29,38,1,1,98,3,2,0,2,0.84450994398547,0.708795490274193
"1539",29,38,1,2,99,2,1,0,3,0.602776911853404,0.715462075037014
"1540",29,39,1,2,100,2,2,1,3,0.693591533177326,0.644288985971632
"1541",29,30,1,1,101,3,2,0,1,-0.353973512460705,-0.359286066046096
"1542",29,38,1,1,102,1,1,1,4,0.447647668027314,0.400023844160839
"1543",29,35,1,1,103,3,1,1,3,0.650116178506279,0.683293435430905
"1544",29,36,1,1,104,3,2,0,1,0.947152376815955,0.983521835867581
"1545",29,20,1,1,105,3,2,0,1,0.994047878134363,1.06354761839575
"1546",29,33,1,2,106,1,1,0,3,0.461782838879781,0.376984896448792
"1547",29,37,1,1,107,3,1,1,2,0.779201383922484,0.786522916129107
"1548",29,38,1,1,108,1,1,1,4,0.40892819015141,0.409833301933462
"1549",29,38,1,1,109,1,1,1,4,0.405932913910739,0.418562471219329
"1550",29,39,1,2,110,3,2,1,3,1.05808349048952,1.05173200954286
"1551",29,30,1,1,111,2,2,0,2,0.527028251845489,0.533261601277207
"1552",29,38,1,1,112,2,2,0,2,1.07615997441151,1.06988974724149
"1553",29,35,1,1,113,1,1,1,5,0.406057892910686,0.438708685972254
"1554",29,36,1,1,114,1,1,1,4,0.319548698909617,0.251911733153579
"1555",29,20,1,1,115,2,2,0,3,0.664156925522216,0.714213229512876
"1556",29,33,1,2,116,2,1,0,2,0.861615812250245,0.899839258618277
"1557",29,37,1,1,117,3,1,1,2,0.840921154921052,0.822079011310977
"1558",29,38,1,2,118,1,2,1,5,0.457997788052081,0.361420886490713
"1559",29,38,1,2,119,1,2,1,5,0.433438314284937,0.421433023302829
"1560",29,39,1,2,120,2,2,1,4,0.684890856407887,0.736391380043434
"1561",29,30,1,1,121,2,1,1,4,0.662318445612427,0.662100797167423
"1562",29,38,1,2,122,1,1,0,4,0.650648182926228,0.686137948576673
"1563",29,35,1,2,123,1,2,1,5,0.405271324611274,0.522612463312787
"1564",29,36,1,2,124,2,1,0,3,0.818191383107732,0.797344212189005
"1565",29,20,1,2,125,2,1,0,2,0.911937442279174,0.943232987601139
"1566",29,33,1,1,126,2,2,0,2,0.683223021585091,0.669469391167113
"1567",29,37,1,1,127,2,1,1,3,0.467452197030465,0.535033262205748
"1568",29,38,1,1,128,2,2,0,2,0.697221933879802,0.722401484164256
"1569",29,38,1,1,129,2,1,1,4,0.503626146141368,0.53161206394124
"1570",29,39,1,1,130,1,1,1,5,0.332416428617574,0.316369949548569
"1571",29,30,1,2,131,3,1,0,1,0.590837002600825,0.612395862469909
"1572",29,38,1,2,132,1,2,1,5,0.455572904285046,0.506958979491102
"1573",29,35,1,1,133,1,1,1,4,0.362857361692875,0.340783712210988
"1574",29,36,1,2,134,2,2,1,3,0.806177801962033,0.842371894600593
"1575",29,20,1,1,135,1,2,0,4,0.568622273674487,0.646391407593484
"1576",29,33,1,1,136,1,1,1,5,0.365289676465255,0.355410155576964
