"","subj_no","age","group","stim","trial","difficulty","resp","corr","conf","RT_day1","RT_day2"
"1",36,26,2,2,1,3,1,0,2,1.44438219437467,1.45627016779736
"2",36,33,2,2,2,3,1,0,1,0.777333124763364,0.798847844666414
"3",36,36,2,1,3,1,1,1,5,0.417243950238109,0.43056000455663
"4",36,38,2,1,4,2,2,0,2,0.567783620258538,0.452490401001056
"5",36,20,2,1,5,3,1,1,2,0.880494515797074,0.843450425025079
"6",36,25,2,1,6,1,1,1,4,0.480484837805842,0.557545509207577
"7",36,30,2,1,7,2,1,1,4,0.458862633538872,0.483170624525699
"8",36,34,2,1,8,1,1,1,5,0.385329337826242,0.40405539848215
"9",36,25,2,1,9,1,1,1,4,0.459510219052626,0.528670540145022
"10",36,25,2,2,10,2,2,1,3,0.719898735411692,0.814259146446661
"11",36,26,2,1,11,1,1,1,4,0.441128196417968,0.372477616990056
"12",36,33,2,1,12,1,1,1,4,0.252670942400529,0.226785180374372
"13",36,36,2,2,13,3,1,0,2,1.0613762995301,1.04404554387967
"14",36,38,2,2,14,3,2,1,2,0.776993631339825,0.706993849314212
"15",36,20,2,2,15,1,2,1,4,0.373541743037525,0.412825913377479
"16",36,25,2,2,16,3,1,0,2,1.20172773654992,1.30281591378207
"17",36,30,2,1,17,2,2,0,2,0.54885833410904,0.555034325408523
"18",36,34,2,2,18,2,1,0,2,0.482383670320327,0.454619822937789
"19",36,25,2,2,19,1,2,1,5,0.435067986566422,0.481535524752707
"20",36,25,2,2,20,2,2,1,4,0.575591934494035,0.598034624579209
"21",36,26,2,1,21,1,1,1,5,0.544017690798884,0.511884262891749
"22",36,33,2,2,22,2,2,1,3,0.475395170104552,0.413931283336999
"23",36,36,2,1,23,1,1,1,4,0.420261350976578,0.359807626756099
"24",36,38,2,1,24,1,1,1,4,0.348421104025054,0.353891228155157
"25",36,20,2,1,25,3,1,1,3,0.906711942328336,0.913798105732556
"26",36,25,2,1,26,2,1,1,4,0.51978168207008,0.572063786626482
"27",36,30,2,2,27,3,1,0,2,1.07181730714709,1.08085646354044
"28",36,34,2,1,28,2,1,1,3,0.715156506390561,0.758542234651143
"29",36,25,2,2,29,1,2,1,4,0.595335845515656,0.593182691265215
"30",36,25,2,1,30,2,1,1,4,0.643636163029019,0.650938144835621
"31",36,26,2,1,31,3,2,0,1,0.821944521165,0.783348877974619
"32",36,33,2,1,32,3,1,1,3,0.828141095723054,0.853159747844978
"33",36,36,2,1,33,2,1,1,4,0.797102511332196,0.809129682079173
"34",36,38,2,2,34,2,2,1,3,0.709024911429861,0.786699537279401
"35",36,20,2,1,35,2,1,1,4,0.630579508923672,0.619683601137067
"36",36,25,2,2,36,1,2,1,4,0.378671838048699,0.267365056053582
"37",36,30,2,1,37,3,1,1,2,0.918526055919952,0.965886171277609
"38",36,34,2,2,38,1,2,1,4,0.386571753199309,0.438053551226207
"39",36,25,2,1,39,1,1,1,4,0.353021661939557,0.338153424418419
"40",36,25,2,1,40,3,1,1,2,0.96452190768864,0.964497400161362
"41",36,26,2,2,41,3,1,0,1,1.79667010242327,1.69751761772166
"42",36,33,2,1,42,1,1,1,5,0.469846142933704,0.495930459922831
"43",36,36,2,1,43,2,2,0,3,0.694675588618393,0.758879780210395
"44",36,38,2,1,44,3,2,0,2,0.523497285093137,0.454334495683032
"45",36,20,2,2,45,3,1,0,2,1.54678517631125,1.48600988411207
"46",36,25,2,2,46,1,2,1,4,0.305631176210326,0.276052352809312
"47",36,30,2,2,47,1,2,1,5,0.319127965043206,0.27487556166164
"48",36,34,2,1,48,1,2,0,4,0.679835501803549,0.649032998142658
"49",36,25,2,2,49,1,2,1,4,0.382381403964077,0.32511369224266
"50",36,25,2,2,50,3,2,1,3,0.648213647601458,0.697940984835191
"51",36,26,2,2,51,3,2,1,3,0.939840197741165,0.970847378385628
"52",36,33,2,1,52,2,1,1,4,0.560244230729796,0.575857789680724
"53",36,36,2,1,53,2,2,0,2,0.656165139518389,0.572310284479742
"54",36,38,2,1,54,2,2,0,2,0.789020692389765,0.730355400165924
"55",36,20,2,1,55,2,1,1,3,0.597038561417596,0.610529592821319
"56",36,25,2,2,56,1,2,1,4,0.362721398133562,0.218833509899469
"57",36,30,2,1,57,2,2,0,2,0.736139227523386,0.698496193095411
"58",36,34,2,2,58,2,1,0,3,0.730948662237973,0.725086225125689
"59",36,25,2,1,59,2,2,0,2,0.685072024248797,0.578917539639216
"60",36,25,2,1,60,2,1,1,4,0.383079049092827,0.429760931059213
"61",36,26,2,2,61,3,1,0,1,1.1248412767833,1.05979520300976
"62",36,33,2,2,62,2,1,0,2,0.854776957829709,0.895386995331475
"63",36,36,2,1,63,2,2,0,3,0.663118013100724,0.682362776751906
"64",36,38,2,1,64,2,2,0,3,0.648134670089033,0.638607037103295
"65",36,20,2,2,65,3,1,0,1,0.903368994304056,0.871519777557903
"66",36,25,2,2,66,2,1,0,2,0.861080631377576,0.853641329264505
"67",36,30,2,2,67,2,2,1,4,0.573141733907164,0.64144528729935
"68",36,34,2,2,68,3,2,1,3,0.948284494281626,0.93907967946515
"69",36,25,2,2,69,1,2,1,5,0.297495164856116,0.326249524569839
"70",36,25,2,1,70,3,2,0,2,0.694030386832948,0.617293717585273
"71",36,26,2,2,71,2,2,1,3,0.496500456145984,0.560735099056658
"72",36,33,2,2,72,1,1,0,3,0.430513817046191,0.376899320816322
"73",36,36,2,2,73,1,2,1,4,0.425241528823928,0.422884783784676
"74",36,38,2,2,74,3,1,0,1,1.43053318372868,1.49668741239012
"75",36,20,2,2,75,2,2,1,4,0.601296105037658,0.585404768960324
"76",36,25,2,1,76,2,1,1,4,0.58347328559465,0.525262698857065
"77",36,30,2,1,77,3,1,1,3,1.06698966463813,1.07668564885824
"78",36,34,2,2,78,2,2,1,3,0.531617814600574,0.563381334540871
"79",36,25,2,1,79,3,1,1,3,0.816336220067053,0.881245294165749
"80",36,25,2,2,80,2,2,1,3,0.555160411173569,0.492439092282049
"81",36,26,2,2,81,3,2,1,2,1.12469013298701,1.08478830404348
"82",36,33,2,1,82,3,2,0,2,0.813825071578967,0.746682607788029
"83",36,36,2,2,83,1,2,1,5,0.371671379888892,0.340024892026054
"84",36,38,2,2,84,3,2,1,2,0.491264929967653,0.428112934517699
"85",36,20,2,2,85,3,1,0,1,0.998872028078948,1.03320602653294
"86",36,25,2,2,86,1,2,1,5,0.361314490930342,0.40345105405517
"87",36,30,2,1,87,3,1,1,3,0.950871016451564,0.904367560143785
"88",36,34,2,2,88,1,2,1,4,0.365051991048666,0.269316721019671
"89",36,25,2,2,89,2,2,1,3,0.387602771704518,0.337240931212342
"90",36,25,2,2,90,1,2,1,4,0.439638492308576,0.417275877152356
"91",36,26,2,2,91,1,2,1,4,0.42632210033754,0.469759596629589
"92",36,33,2,1,92,3,1,1,3,0.606752508743525,0.579465198352524
"93",36,36,2,1,93,2,1,1,3,0.732914774774581,0.689201872356088
"94",36,38,2,2,94,3,2,1,2,0.605178691746936,0.588606205486019
"95",36,20,2,2,95,3,1,0,1,1.40981926689056,1.40206390179649
"96",36,25,2,1,96,3,2,0,2,1.18635116317813,1.2492854890813
"97",36,30,2,1,97,2,1,1,4,0.477874210905608,0.465540109497811
"98",36,34,2,1,98,3,2,0,2,0.901228145154839,0.859225365815224
"99",36,25,2,1,99,2,1,1,4,0.373084415196582,0.435611896845618
"100",36,25,2,2,100,2,1,0,3,0.719810864775701,0.636726507202261
"101",36,26,2,2,101,1,2,1,5,0.408836224301973,0.365940302188527
"102",36,33,2,2,102,2,2,1,3,0.681316967385798,0.607460207393794
"103",36,36,2,1,103,2,2,0,3,0.643183059792401,0.70878200239693
"104",36,38,2,2,104,3,1,0,2,1.49403837354226,1.54598121649648
"105",36,20,2,2,105,1,2,1,4,0.400114918729627,0.414873377660194
"106",36,25,2,2,106,2,1,0,2,0.561851175801438,0.475189395231613
"107",36,30,2,2,107,2,2,1,3,0.797279625982176,0.742032776423613
"108",36,34,2,2,108,3,1,0,2,1.11883203000331,1.14833873146963
"109",36,25,2,2,109,2,2,1,3,0.542726385630864,0.494514228589522
"110",36,25,2,1,110,2,1,1,3,0.791515016826866,0.75717069059318
"111",36,26,2,2,111,2,2,1,4,0.506738636433584,0.516744660687398
"112",36,33,2,2,112,1,2,1,4,0.589374919227204,0.601869089611111
"113",36,36,2,2,113,1,2,1,4,0.633105257892417,0.73121850796261
"114",36,38,2,1,114,3,1,1,2,0.72092919176752,0.811433739574811
"115",36,20,2,1,115,2,1,1,4,0.521730504225408,0.496404704377566
"116",36,25,2,2,116,2,2,1,3,0.702489932309847,0.724973769565256
"117",36,30,2,1,117,1,2,0,3,0.379044390384271,0.439757760396179
"118",36,34,2,1,118,3,1,1,2,0.708114193929769,0.768246166339814
"119",36,25,2,2,119,3,1,0,2,0.806070486187005,0.771281980687382
"120",36,25,2,2,120,2,2,1,4,0.708903022514335,0.77462674056617
"121",36,26,2,1,121,3,1,1,3,1.0417564239244,0.97402957219383
"122",36,33,2,2,122,2,2,1,4,0.680032796313848,0.762697730036341
"123",36,36,2,2,123,3,2,1,3,0.840354999535985,0.914842472309509
"124",36,38,2,1,124,1,1,1,4,0.435063041568246,0.465950413836197
"125",36,20,2,2,125,2,2,1,3,0.572608418062288,0.499766803540785
"126",36,25,2,2,126,2,1,0,2,0.72037890317778,0.628105355331554
"127",36,30,2,1,127,1,1,1,5,0.441163289990179,0.393058659949371
"128",36,34,2,1,128,3,2,0,1,0.565491253937888,0.623163437629611
"129",36,25,2,1,129,3,2,0,2,1.20886085386694,1.2736215087945
"130",36,25,2,1,130,2,2,0,2,0.929256031765244,0.960856053701667
"131",36,26,2,2,131,3,2,1,2,0.76775835144892,0.827779095440948
"132",36,33,2,2,132,1,2,1,5,0.263158832163554,0.296269004444347
"133",36,36,2,1,133,2,1,1,3,0.600409887387073,0.583530773534886
"134",36,38,2,1,134,1,1,1,5,0.429235667009976,0.478276243509761
"135",36,20,2,2,135,1,2,1,5,0.353491604092301,0.261366407158296
"136",36,25,2,2,136,2,2,1,3,0.507867564610759,0.568205163080487
"137",36,30,2,1,137,3,1,1,2,1.00236712902885,0.859327293115668
"138",36,34,2,2,138,2,1,0,2,0.625984169293256,0.721405265401734
"139",36,25,2,1,139,3,2,0,1,0.718214900685672,0.702937432886207
"140",36,25,2,2,140,2,1,0,3,0.61881561071324,0.610061755988173
"141",36,26,2,1,141,1,1,1,5,0.318647965480188,0.374069251684487
"142",36,33,2,2,142,1,2,1,4,0.358605953710711,0.330694559240325
"143",36,36,2,1,143,3,1,1,3,1.10191132235999,1.09395340411676
"144",36,38,2,2,144,1,2,1,4,0.447417454653032,0.400179816669332
"145",36,20,2,1,145,3,1,1,3,0.552218536135873,0.577725044419701
"146",36,25,2,1,146,2,1,1,3,0.657313173113384,0.646573559647744
"147",36,30,2,2,147,1,2,1,4,0.450718096858755,0.389117516962457
"148",36,34,2,1,148,3,2,0,2,0.917162942889837,0.952517684228832
"149",36,25,2,2,149,2,2,1,3,0.711228740513915,0.766627896529796
"150",36,25,2,2,150,2,2,1,3,0.492529597612614,0.411263729650639
"151",36,26,2,1,151,3,2,0,1,1.20065808346192,1.26159769300623
"152",36,33,2,2,152,1,1,0,3,0.408585001757756,0.411090352016961
"153",36,36,2,1,153,1,1,1,5,0.403613551969942,0.396290336349957
"154",36,38,2,1,154,2,1,1,3,0.407774745757082,0.380563733185413
"155",36,20,2,1,155,3,2,0,2,0.979984383856747,1.00282931614862
"156",36,25,2,1,156,1,1,1,5,0.533272046296592,0.557752942778443
"157",36,30,2,1,157,2,1,1,3,0.787955944654596,0.770417255885365
"158",36,34,2,2,158,1,2,1,4,0.408401916708039,0.461846668426925
"159",36,25,2,1,159,1,2,0,4,0.537829190495416,0.51030997212751
"160",36,25,2,2,160,3,2,1,2,0.787223168066571,0.794814694729102
"161",36,26,2,1,161,3,2,0,1,0.754320171657879,0.686913916368601
"162",36,33,2,1,162,1,1,1,4,0.338192375949098,0.398096930193476
"163",36,36,2,2,163,1,2,1,4,0.578120640083285,0.591777848575326
"164",36,38,2,1,164,2,1,1,3,0.522801417300243,0.518015282078304
"165",36,20,2,1,165,2,1,1,4,0.537222156470174,0.577129375635676
"166",36,25,2,1,166,3,1,1,2,0.989107935777019,0.997607159720692
"167",36,30,2,1,167,1,2,0,4,0.326958094719858,0.338639109668556
"168",36,34,2,2,168,3,1,0,1,1.37562999701248,1.44275166041768
"169",36,25,2,2,169,1,2,1,5,0.312938467634928,0.216945349046745
"170",36,25,2,1,170,3,2,0,2,0.98433136137784,1.00176656063221
"171",36,26,2,1,171,3,2,0,2,1.27937554735551,1.27261053711514
"172",36,33,2,2,172,1,2,1,5,0.498004824063483,0.492238233113122
"173",36,36,2,1,173,3,1,1,2,1.06172113494666,1.03781557925012
"174",36,38,2,1,174,2,1,1,4,0.441317605940013,0.443660131222379
"175",36,20,2,2,175,2,1,0,2,0.875299191569569,0.949941516931075
"176",36,25,2,2,176,1,2,1,4,0.266233219809936,0.223288029309355
"177",36,30,2,2,177,1,2,1,5,0.318685243172185,0.378561069944032
"178",36,34,2,1,178,2,1,1,4,0.585916283464324,0.647228315892972
"179",36,25,2,1,179,1,2,0,4,0.363352475276231,0.344899875171287
"180",36,25,2,2,180,3,1,0,1,1.00317709560753,1.05562186789445
"181",36,26,2,1,181,3,2,0,1,0.509340631069836,0.531645354813349
"182",36,33,2,1,182,2,1,1,4,0.665873412160373,0.656260431110417
"183",36,36,2,1,183,3,2,0,1,0.843840726707459,0.902915416262277
"184",36,38,2,1,184,3,1,1,2,0.786595305446762,0.82185135175386
"185",36,20,2,2,185,1,1,0,3,0.598101501829155,0.639356326944895
"186",36,25,2,1,186,1,1,1,5,0.364051980542178,0.300441073156929
"187",36,30,2,2,187,1,2,1,4,0.562235966326335,0.604485751404575
"188",36,34,2,2,188,3,1,0,1,1.14657512045671,1.14287590306187
"189",36,25,2,2,189,3,2,1,3,0.745614681763837,0.705499251708538
"190",36,25,2,2,190,1,2,1,5,0.366265691680681,0.396780118996565
"191",36,26,2,2,191,2,1,0,2,0.696223283567444,0.697326166362636
"192",36,33,2,1,192,3,1,1,2,0.918483063625128,0.971673867714023
"193",36,36,2,2,193,2,2,1,4,0.618318779293685,0.583619472537222
"194",36,38,2,1,194,1,1,1,4,0.440191560830309,0.410042082061485
"195",36,20,2,2,195,3,1,0,1,1.21230734128571,1.22522883950432
"196",36,25,2,1,196,2,1,1,3,0.487989680447466,0.477985226406916
"197",36,30,2,2,197,3,1,0,2,0.252279114091158,0.240802761668147
"198",36,34,2,2,198,3,2,1,3,1.04897413897877,0.946038372066697
"199",36,25,2,2,199,1,2,1,4,0.370987959181691,0.398617038845648
"200",36,25,2,2,200,3,1,0,1,0.481488851666814,0.504045545779618
"201",36,26,2,1,201,1,1,1,4,0.35976840066476,0.37502244740947
"202",36,33,2,2,202,3,2,1,2,1.00601054416315,1.02548599998702
"203",36,36,2,2,203,1,2,1,5,0.498519915965656,0.590535304604109
"204",36,38,2,1,204,3,1,1,3,0.739820811430696,0.725190644559021
"205",36,20,2,1,205,2,1,1,4,0.739360155827369,0.77380878373047
"206",36,25,2,1,206,3,1,1,2,0.817569041887754,0.808170282568882
"207",36,30,2,1,207,2,2,0,2,0.62295162088892,0.751859335516369
"208",36,34,2,2,208,2,2,1,3,0.223167111372211,0.157347924751544
"209",36,25,2,1,209,1,1,1,5,0.370468161451606,0.442675296804366
"210",36,25,2,1,210,3,2,0,2,1.34725513517565,1.42438843993956
"211",36,26,2,1,211,2,2,0,3,0.732684685244507,0.695483609547493
"212",36,33,2,1,212,1,2,0,3,0.467303588661881,0.476284632319552
"213",36,36,2,1,213,1,1,1,4,0.178095836985664,0.216072017160403
"214",36,38,2,1,214,1,2,0,4,0.550888977956984,0.576909769050549
"215",36,20,2,1,215,2,1,1,3,0.339512914904851,0.316144879967846
"216",36,25,2,2,216,1,2,1,4,0.381916148466058,0.34894588449987
"217",36,30,2,2,217,1,2,1,4,0.388429602206146,0.389354662500437
"218",36,34,2,1,218,3,2,0,1,1.20174735985187,1.24587743357853
"219",36,25,2,2,219,2,2,1,3,0.566382069365121,0.645553863838856
"220",36,25,2,2,220,1,1,0,4,0.533314086205229,0.496908006567863
"221",36,26,2,1,221,2,1,1,3,0.564542749958929,0.569155823635209
"222",36,33,2,1,222,2,1,1,3,0.386660673505462,0.429917137341515
"223",36,36,2,1,223,1,2,0,3,0.572491606900743,0.640582322414635
"224",36,38,2,1,224,3,1,1,2,0.855581303327229,0.844768645683358
"225",36,20,2,2,225,2,1,0,2,0.518163920011862,0.434907918609489
"226",36,25,2,2,226,1,1,0,3,0.479825819552925,0.543494745461345
"227",36,30,2,1,227,1,1,1,5,0.452076440135513,0.46125431560426
"228",36,34,2,2,228,1,2,1,4,0.358213783788231,0.401749562576505
"229",36,25,2,2,229,3,2,1,2,0.817433261363325,0.845292946211769
"230",36,25,2,2,230,3,2,1,2,0.905758237604476,0.940108381249748
"231",36,26,2,1,231,3,1,1,2,1.06686175048121,0.985199398731107
"232",36,33,2,2,232,1,2,1,4,0.32803937284682,0.329174388012965
"233",36,36,2,1,233,1,1,1,4,0.459122923754416,0.380206839975742
"234",36,38,2,2,234,2,2,1,3,0.710848936883884,0.755947955817887
"235",36,20,2,1,235,1,2,0,3,0.569546809747284,0.536940463840178
"236",36,25,2,2,236,1,2,1,4,0.347261277384259,0.374257970907758
"237",36,30,2,1,237,3,1,1,3,0.762011525827978,0.814509635531906
"238",36,34,2,1,238,1,1,1,4,0.444125203765341,0.423946247363529
"239",36,25,2,2,239,2,2,1,4,0.591703990304294,0.622634472418272
"240",36,25,2,2,240,3,2,1,3,0.589289756437223,0.569548013441783
"241",35,37,1,2,1,3,1,0,2,1.30691968744846,1.36316833661832
"242",35,20,1,2,2,2,2,1,3,0.807279771038463,0.793770061258197
"243",35,21,1,1,3,2,1,1,4,0.420450578354669,0.444378226838473
"244",35,29,1,2,4,3,1,0,2,0.579376374823765,0.601913922138944
"245",35,32,1,2,5,2,2,1,4,0.386813603807034,0.420546041072689
"246",35,29,1,2,6,1,2,1,5,0.470733235146772,0.471607689469395
"247",35,27,1,1,7,2,1,1,3,0.569223439341118,0.512677250569906
"248",35,38,1,2,8,2,2,1,3,0.574641987614115,0.657953494622781
"249",35,19,1,2,9,1,1,0,4,0.566708286551707,0.465766344910079
"250",35,20,1,1,10,1,1,1,4,0.456052151559176,0.509347580731209
"251",35,37,1,1,11,1,1,1,4,0.399187875603037,0.471592097441115
"252",35,20,1,2,12,1,2,1,4,0.416419605612039,0.498526286562011
"253",35,21,1,1,13,3,1,1,3,1.18596608461551,1.17528490495698
"254",35,29,1,2,14,2,2,1,4,0.516354654056665,0.48376602917984
"255",35,32,1,1,15,3,1,1,3,0.984156721296883,0.926018473908962
"256",35,29,1,1,16,2,1,1,3,0.598716099063493,0.566497178703806
"257",35,27,1,1,17,1,1,1,4,0.40910341483555,0.441794805147049
"258",35,38,1,1,18,3,2,0,2,1.2054865691098,1.22356319754534
"259",35,19,1,1,19,1,1,1,5,0.349863936187949,0.329084664928051
"260",35,20,1,1,20,2,1,1,3,0.60075335114478,0.544889636196588
"261",35,37,1,2,21,2,2,1,4,0.585485517669292,0.585591425733099
"262",35,20,1,2,22,1,2,1,4,0.483574038986678,0.451731821454846
"263",35,21,1,2,23,2,1,0,3,0.657733996822693,0.671077565406167
"264",35,29,1,2,24,2,2,1,3,0.772057556597235,0.729938869651769
"265",35,32,1,1,25,2,1,1,4,0.672470234158475,0.600310948611825
"266",35,29,1,1,26,3,2,0,2,0.990662995693119,0.976528396937483
"267",35,27,1,2,27,3,2,1,3,0.719429854950764,0.672857320887935
"268",35,38,1,1,28,3,2,0,2,0.489549188773767,0.442576926248394
"269",35,19,1,2,29,2,2,1,3,0.710611710489344,0.606007729843344
"270",35,20,1,1,30,2,1,1,3,0.574806932759125,0.50385456560974
"271",35,37,1,1,31,1,2,0,3,0.661095253795125,0.701164971545202
"272",35,20,1,1,32,1,2,0,4,0.469629696544448,0.423733677775557
"273",35,21,1,2,33,2,2,1,4,0.7462545493047,0.720273683326301
"274",35,29,1,1,34,2,1,1,4,0.741129411774196,0.730896068569261
"275",35,32,1,1,35,1,1,1,4,0.414262439688354,0.363076327565632
"276",35,29,1,1,36,3,2,0,1,0.944484762749787,0.909671719494473
"277",35,27,1,2,37,1,2,1,5,0.335669157772771,0.310541188969296
"278",35,38,1,2,38,1,2,1,5,0.287564914246673,0.320764529218523
"279",35,19,1,2,39,2,1,0,3,0.644760213610548,0.607388450657004
"280",35,20,1,1,40,1,1,1,4,0.328658692488244,0.279779771236244
"281",35,37,1,2,41,2,1,0,2,0.678891840439049,0.675521443207575
"282",35,20,1,1,42,3,1,1,3,0.683957265002333,0.7220278920392
"283",35,21,1,1,43,1,2,0,3,0.49440062703277,0.468073511225466
"284",35,29,1,1,44,2,2,0,2,0.768063588569113,0.751004536919726
"285",35,32,1,1,45,3,2,0,2,1.07996058085842,1.05509631536156
"286",35,29,1,2,46,2,2,1,3,0.305605468869365,0.23942553067669
"287",35,27,1,1,47,3,1,1,3,0.664598965399309,0.633769516553846
"288",35,38,1,2,48,1,2,1,5,0.449895567242183,0.523561710089671
"289",35,19,1,1,49,1,1,1,4,0.44798436978464,0.535466689879355
"290",35,20,1,1,50,2,1,1,3,0.486677407938011,0.455579220690765
"291",35,37,1,1,51,3,1,1,3,1.15156949003739,1.17976036584904
"292",35,20,1,2,52,1,2,1,5,0.218080273996944,0.237869682868815
"293",35,21,1,1,53,3,2,0,1,0.38919631853727,0.318070770959682
"294",35,29,1,1,54,3,2,0,1,0.967139581468924,1.02102460975467
"295",35,32,1,1,55,3,2,0,2,0.66908690578674,0.676737373570158
"296",35,29,1,1,56,1,1,1,5,0.571167826112896,0.562781073104337
"297",35,27,1,1,57,2,2,0,3,0.669945555826694,0.644237375462673
"298",35,38,1,2,58,1,1,0,3,0.483927478558668,0.513566565851751
"299",35,19,1,1,59,3,2,0,2,0.532611474699969,0.43265879297108
"300",35,20,1,2,60,2,2,1,4,0.680956517075562,0.710422066874413
"301",35,37,1,2,61,2,1,0,2,0.620925960682547,0.577837295343011
"302",35,20,1,1,62,2,1,1,4,0.436788774401315,0.500107724548851
"303",35,21,1,2,63,1,2,1,5,0.438936173232182,0.40756014086959
"304",35,29,1,2,64,1,2,1,5,0.528670297124348,0.488648445088137
"305",35,32,1,2,65,1,2,1,4,0.29131591467776,0.286358495065523
"306",35,29,1,1,66,3,2,0,1,0.72324493928395,0.757472515294574
"307",35,27,1,1,67,1,1,1,4,0.400949650932521,0.393357517407756
"308",35,38,1,1,68,3,2,0,2,0.255419180827432,0.286403746337242
"309",35,19,1,1,69,3,2,0,2,1.07144621957891,0.965877852965188
"310",35,20,1,2,70,3,2,1,2,0.951583833796697,0.984839144194551
"311",35,37,1,1,71,2,2,0,3,0.78454938606898,0.823994411557188
"312",35,20,1,2,72,1,2,1,5,0.285740092141651,0.316239996275132
"313",35,21,1,2,73,2,2,1,3,0.499504237121901,0.563311898333203
"314",35,29,1,1,74,3,2,0,1,1.19060941354693,1.17369291368332
"315",35,32,1,2,75,1,2,1,4,0.410707324777061,0.40182280840315
"316",35,29,1,2,76,1,2,1,5,0.361367938651277,0.390881599223299
"317",35,27,1,2,77,1,1,0,4,0.54783606928703,0.551361818172025
"318",35,38,1,2,78,3,2,1,3,0.955978028810966,0.991567058836773
"319",35,19,1,1,79,1,1,1,5,0.415813541516587,0.401484048764641
"320",35,20,1,1,80,2,2,0,2,0.716409941493036,0.75405877890386
"321",35,37,1,1,81,2,2,0,2,0.678822799263116,0.687053870849807
"322",35,20,1,2,82,2,1,0,2,0.748953793360687,0.874337800490838
"323",35,21,1,1,83,1,2,0,3,0.654238439759297,0.702243529934955
"324",35,29,1,2,84,2,1,0,3,0.760334663654637,0.8113504455403
"325",35,32,1,1,85,2,1,1,4,0.671307973324457,0.625731616424635
"326",35,29,1,2,86,3,1,0,1,1.90453081498776,1.91558268213451
"327",35,27,1,2,87,3,2,1,2,0.625014665719615,0.620090801790672
"328",35,38,1,2,88,3,1,0,1,0.934301773387172,0.932374598258752
"329",35,19,1,1,89,2,1,1,3,0.51481814953533,0.435999526175215
"330",35,20,1,1,90,2,1,1,4,0.651407724868503,0.781297682827426
"331",35,37,1,1,91,2,2,0,3,0.691597246593023,0.570056421426216
"332",35,20,1,2,92,3,2,1,2,0.554892637490321,0.605258823258654
"333",35,21,1,2,93,3,2,1,3,0.812392960573359,0.812302793436782
"334",35,29,1,2,94,2,1,0,3,0.234563946835665,0.287045119095029
"335",35,32,1,1,95,3,2,0,1,0.56586199607769,0.562467555470236
"336",35,29,1,2,96,1,2,1,4,0.421346926967242,0.366181833237513
"337",35,27,1,2,97,1,2,1,4,0.39341015177314,0.451670153710849
"338",35,38,1,2,98,3,1,0,2,1.32294656803026,1.3478282625025
"339",35,19,1,1,99,3,1,1,3,0.595157926542399,0.600580983733351
"340",35,20,1,1,100,3,2,0,1,1.32963532055132,1.32964839919943
"341",35,37,1,1,101,1,2,0,3,0.614413467486733,0.673303143158139
"342",35,20,1,2,102,1,2,1,5,0.523647526335436,0.510177664054991
"343",35,21,1,1,103,1,1,1,5,0.59420095888688,0.634043326426013
"344",35,29,1,2,104,1,2,1,4,0.469282312419029,0.444291494419407
"345",35,32,1,2,105,2,2,1,3,0.590480912342589,0.650524045270905
"346",35,29,1,1,106,3,2,0,1,0.925255858127849,0.934979860790258
"347",35,27,1,2,107,1,2,1,4,0.382976822891451,0.427061225046363
"348",35,38,1,2,108,1,2,1,5,0.403108302680248,0.418020382054081
"349",35,19,1,2,109,2,2,1,4,0.620066204701291,0.625423322371166
"350",35,20,1,1,110,3,1,1,2,0.561911893298119,0.59377504505259
"351",35,37,1,2,111,2,1,0,3,0.473854815872558,0.488825136518238
"352",35,20,1,1,112,1,1,1,4,0.332835089651746,0.290708675853599
"353",35,21,1,2,113,2,2,1,4,0.664953773156632,0.693986854389758
"354",35,29,1,1,114,2,1,1,3,0.527214327631442,0.477641680991145
"355",35,32,1,2,115,2,2,1,4,0.490848572848061,0.509244731113154
"356",35,29,1,1,116,3,2,0,1,0.961138099978711,0.908397467392378
"357",35,27,1,1,117,1,2,0,4,0.638409353663599,0.678690999927683
"358",35,38,1,2,118,3,1,0,2,0.862954100943784,0.817694452324712
"359",35,19,1,1,119,1,2,0,3,0.412520821380917,0.361503191832771
"360",35,20,1,2,120,1,2,1,5,0.444409838740405,0.496843776251045
"361",35,37,1,2,121,2,1,0,2,0.531767682142207,0.585310191099718
"362",35,20,1,1,122,2,1,1,4,0.542018771773794,0.520004816217718
"363",35,21,1,2,123,1,1,0,3,0.395690753666691,0.441020923193861
"364",35,29,1,2,124,3,2,1,2,0.66043407773386,0.706651154724235
"365",35,32,1,1,125,1,1,1,4,0.276013391808819,0.296046643393673
"366",35,29,1,1,126,2,1,1,4,0.619151666003396,0.532626532308917
"367",35,27,1,2,127,1,1,0,4,0.567149646250762,0.461873815668849
"368",35,38,1,1,128,3,1,1,2,0.685805766526395,0.641952892252408
"369",35,19,1,1,129,2,1,1,3,0.661348003515163,0.601198100893024
"370",35,20,1,2,130,2,2,1,4,0.58749265138521,0.507649880397488
"371",35,37,1,2,131,2,2,1,3,0.677094986449478,0.675819632651442
"372",35,20,1,2,132,1,2,1,5,0.297835767057444,0.277608094525927
"373",35,21,1,2,133,3,2,1,2,0.863014811374057,0.84147689014147
"374",35,29,1,2,134,1,2,1,5,0.540614683150432,0.5998319772837
"375",35,32,1,2,135,3,1,0,2,0.122288912489827,0.240504941642595
"376",35,29,1,2,136,2,2,1,4,0.464877471467615,0.538257285599463
"377",35,27,1,1,137,3,1,1,3,0.662073089574597,0.617655975496005
"378",35,38,1,1,138,1,1,1,5,0.431449209709721,0.402740934754092
"379",35,19,1,1,139,3,1,1,3,0.826009619806694,0.862442641822628
"380",35,20,1,1,140,1,1,1,5,0.47485003982994,0.484699750915057
"381",35,37,1,1,141,3,1,1,2,0.856120731694572,0.858492713814816
"382",35,20,1,1,142,1,1,1,5,0.446085092776593,0.461673235812873
"383",35,21,1,2,143,1,1,0,3,0.531915217382211,0.539907245819594
"384",35,29,1,1,144,3,2,0,1,0.939669670951374,0.935258807597341
"385",35,32,1,1,145,2,1,1,4,0.833656890039411,0.802228890783569
"386",35,29,1,2,146,3,1,0,1,0.799257730424807,0.836922277937979
"387",35,27,1,2,147,3,2,1,3,0.557252459893453,0.542131444963634
"388",35,38,1,2,148,2,2,1,3,0.626416173413518,0.534201875170044
"389",35,19,1,1,149,2,1,1,3,0.436165774734981,0.45728533070507
"390",35,20,1,2,150,3,2,1,2,0.769198531021325,0.704842981313161
"391",35,37,1,2,151,1,2,1,5,0.34096216796804,0.325587431372276
"392",35,20,1,2,152,3,1,0,2,1.0181623375401,1.02409009823946
"393",35,21,1,2,153,3,1,0,2,0.747381259436444,0.753047010762777
"394",35,29,1,1,154,3,2,0,2,1.24405840462306,1.28319666838641
"395",35,32,1,1,155,2,1,1,4,0.506799791584699,0.538047505390729
"396",35,29,1,1,156,1,2,0,4,0.577234851315281,0.606045636294952
"397",35,27,1,1,157,3,2,0,2,0.913753015759215,0.951976170289047
"398",35,38,1,1,158,2,2,0,3,0.442220847519458,0.442749793204567
"399",35,19,1,2,159,1,1,0,3,0.337249674353728,0.365470943630097
"400",35,20,1,1,160,2,1,1,4,0.561086823034941,0.652034873067954
"401",35,37,1,1,161,2,1,1,4,0.741489729144653,0.67135275584418
"402",35,20,1,2,162,2,2,1,4,0.529827371955904,0.547331854745405
"403",35,21,1,2,163,2,2,1,3,0.578718218353139,0.611764373427947
"404",35,29,1,2,164,2,2,1,4,0.606049348498558,0.618717221760681
"405",35,32,1,1,165,1,2,0,4,0.636488868586773,0.619775092813696
"406",35,29,1,1,166,1,1,1,4,0.294797256030041,0.332657174776709
"407",35,27,1,1,167,1,1,1,5,0.404889102380581,0.44077103584547
"408",35,38,1,1,168,1,1,1,4,0.276880960924923,0.200930808814374
"409",35,19,1,1,169,1,1,1,4,0.396103233947918,0.482306005118799
"410",35,20,1,2,170,3,1,0,1,0.336793797110622,0.211043621209732
"411",35,37,1,2,171,2,2,1,4,0.641179542667325,0.530540377037059
"412",35,20,1,2,172,1,2,1,4,0.41972907429698,0.403346152182611
"413",35,21,1,1,173,3,1,1,2,0.980945251833991,1.02589455685691
"414",35,29,1,2,174,3,2,1,3,0.992157913263128,0.94238980109326
"415",35,32,1,1,175,3,2,0,2,1.48446807597847,1.50828735209363
"416",35,29,1,2,176,3,2,1,3,0.787081638850795,0.703295778895366
"417",35,27,1,2,177,1,2,1,4,0.420644966666492,0.474691237151927
"418",35,38,1,2,178,2,1,0,3,0.662888676391009,0.622455754456947
"419",35,19,1,2,179,1,2,1,5,0.37390524364708,0.427811253596028
"420",35,20,1,1,180,1,2,0,3,0.487319217208423,0.50887416711512
"421",35,37,1,2,181,1,2,1,4,0.539839996308094,0.608339554553801
"422",35,20,1,1,182,2,2,0,2,0.646684906243153,0.743719621347133
"423",35,21,1,2,183,1,2,1,4,0.344757418740546,0.349841858295926
"424",35,29,1,1,184,3,2,0,2,1.0410822867016,1.13763331789894
"425",35,32,1,2,185,1,2,1,5,0.402040523047065,0.461021045541408
"426",35,29,1,2,186,2,2,1,3,0.551532258254478,0.469685424980481
"427",35,27,1,1,187,1,1,1,4,0.398446051837276,0.372337679262777
"428",35,38,1,2,188,1,2,1,4,0.346552092357144,0.278282536509735
"429",35,19,1,1,189,3,2,0,2,1.20778979069932,1.11603470182548
"430",35,20,1,2,190,2,2,1,3,0.523018952130206,0.420669334484434
"431",35,37,1,1,191,3,2,0,1,0.774424357975567,0.926295487283639
"432",35,20,1,1,192,3,2,0,2,0.92883712400636,0.892008188566134
"433",35,21,1,2,193,3,2,1,2,0.909171614842617,0.8174024460796
"434",35,29,1,2,194,2,2,1,4,0.445334440181712,0.42254125276132
"435",35,32,1,2,195,1,2,1,4,0.318661606230191,0.344616321631527
"436",35,29,1,2,196,2,1,0,3,0.603933978868566,0.673442712495287
"437",35,27,1,1,197,3,2,0,2,1.14687435355583,1.08629986200591
"438",35,38,1,2,198,3,1,0,1,1.10826503024122,1.14612113845483
"439",35,19,1,1,199,3,1,1,3,0.634590545969409,0.598764073522928
"440",35,20,1,1,200,3,1,1,3,0.803317988034669,0.720842222653089
"441",35,37,1,1,201,1,1,1,4,0.367669259688287,0.35899802063064
"442",35,20,1,2,202,1,2,1,5,0.43807557472654,0.513601885461119
"443",35,21,1,1,203,1,1,1,5,0.468693961117769,0.412578417353912
"444",35,29,1,1,204,1,1,1,5,0.471109152451492,0.506118014714044
"445",35,32,1,2,205,3,2,1,2,0.389497910659502,0.402139698680358
"446",35,29,1,1,206,3,1,1,2,0.565510613988519,0.677944385216168
"447",35,27,1,2,207,3,2,1,3,0.687306688164631,0.70959408600267
"448",35,38,1,1,208,1,1,1,5,0.413146540587672,0.394942848565917
"449",35,19,1,1,209,3,1,1,3,1.1007267167655,1.00026170729926
"450",35,20,1,1,210,2,1,1,4,0.520028704917291,0.492412013102701
"451",35,37,1,2,211,3,1,0,2,0.806954800421767,0.834565669427231
"452",35,20,1,2,212,2,2,1,4,0.63304264938047,0.678265984023674
"453",35,21,1,2,213,3,1,0,1,1.62841838085335,1.65044293123761
"454",35,29,1,2,214,1,2,1,4,0.420383203445603,0.370893213373835
"455",35,32,1,1,215,1,2,0,3,0.401564819994578,0.436764861111213
"456",35,29,1,2,216,3,2,1,2,0.809712619708667,0.815358349018289
"457",35,27,1,1,217,1,1,1,4,0.399069954861358,0.401920725965737
"458",35,38,1,2,218,3,1,0,2,1.0825661047178,1.05570347961557
"459",35,19,1,1,219,2,1,1,4,0.41402498712418,0.409529254569668
"460",35,20,1,2,220,1,2,1,4,0.325835416869908,0.328195862353085
"461",35,37,1,2,221,2,1,0,2,0.833475506383638,0.87497548825883
"462",35,20,1,1,222,2,1,1,3,0.470495358026067,0.386230386790342
"463",35,21,1,2,223,3,1,0,1,1.49153121242036,1.53112263720465
"464",35,29,1,2,224,2,2,1,4,0.628341800270119,0.683270885382763
"465",35,32,1,1,225,2,1,1,4,0.414600888685497,0.339918176666153
"466",35,29,1,1,226,2,2,0,3,0.851711905746604,0.883820601284659
"467",35,27,1,2,227,3,2,1,2,0.692919487101225,0.659844241088648
"468",35,38,1,2,228,2,2,1,4,0.698334172239934,0.659932229303625
"469",35,19,1,2,229,3,2,1,3,0.803644764891769,0.85324583880193
"470",35,20,1,2,230,3,1,0,1,1.22781757288985,1.24231403660823
"471",35,37,1,2,231,1,2,1,4,0.455426746124596,0.475120255550104
"472",35,20,1,1,232,2,1,1,4,0.617998315921633,0.57529239322271
"473",35,21,1,1,233,3,2,0,2,0.291351392537106,0.328610274441227
"474",35,29,1,2,234,3,2,1,3,1.20371754807139,1.16733777867708
"475",35,32,1,2,235,2,2,1,3,0.526043199699896,0.490764546296263
"476",35,29,1,1,236,2,1,1,3,0.622074629381673,0.679200746948278
"477",35,27,1,1,237,2,1,1,4,0.590817902681957,0.523340585271528
"478",35,38,1,1,238,3,2,0,1,1.22068998045054,1.16080823932524
"479",35,19,1,1,239,1,1,1,5,0.405561222109739,0.392101165351897
"480",35,20,1,1,240,2,1,1,3,0.523635655529169,0.537866786366485
"481",34,19,2,1,1,1,1,1,4,0.478193285325443,0.48714568395728
"482",34,30,2,1,2,2,1,1,3,0.612660452842999,0.587451638037285
"483",34,37,2,2,3,2,2,1,3,0.830534535057132,0.837158001786943
"484",34,29,2,1,4,3,1,1,2,0.995351495792964,0.94263017429073
"485",34,26,2,2,5,2,2,1,3,0.631134804517438,0.621535535494859
"486",34,21,2,1,6,3,2,0,1,0.82408023217358,0.794767160990758
"487",34,20,2,1,7,1,1,1,4,0.506466772683101,0.518571936260853
"488",34,35,2,2,8,1,1,0,3,0.642630358731463,0.650413718698759
"489",34,24,2,1,9,1,1,1,5,0.370253960557938,0.230332178844482
"490",34,32,2,1,10,3,2,0,2,1.19460232911141,1.16610245517126
"491",34,19,2,1,11,2,1,1,3,0.665388083728624,0.71330703668882
"492",34,30,2,1,12,1,2,0,3,0.795931587195264,0.69511531375646
"493",34,37,2,2,13,3,1,0,2,1.0078778365657,0.989698420116381
"494",34,29,2,2,14,2,1,0,3,0.801494851756182,0.858222358640854
"495",34,26,2,1,15,3,2,0,2,1.25315802035363,1.18914750363814
"496",34,21,2,2,16,2,1,0,2,0.905370932285862,0.85963137286315
"497",34,20,2,2,17,1,2,1,4,0.382723678947547,0.34090505636812
"498",34,35,2,1,18,3,1,1,3,0.689225269814596,0.733540599557291
"499",34,24,2,1,19,3,1,1,3,0.73335172219711,0.740686916672385
"500",34,32,2,1,20,3,2,0,2,1.08075549519567,1.11839393197543
"501",34,19,2,1,21,3,1,1,2,0.810970242482888,0.808081163117626
"502",34,30,2,2,22,2,2,1,3,0.611953794292673,0.73334657073137
"503",34,37,2,2,23,1,2,1,4,0.517193632240681,0.516683252315607
"504",34,29,2,1,24,1,1,1,5,0.402802875377147,0.320209370287283
"505",34,26,2,1,25,1,2,0,3,0.712345967146838,0.767672211723778
"506",34,21,2,2,26,3,1,0,1,0.44433805541745,0.450239555851457
"507",34,20,2,1,27,1,1,1,4,0.315643189059662,0.345903903583049
"508",34,35,2,2,28,3,1,0,2,0.661356375998398,0.675922267183518
"509",34,24,2,2,29,2,2,1,4,0.611678136104677,0.626519974046099
"510",34,32,2,2,30,3,2,1,3,0.507784637608345,0.68979593001103
"511",34,19,2,2,31,1,2,1,4,0.390176367287046,0.369983925517738
"512",34,30,2,1,32,1,1,1,5,0.414802925314136,0.311795712869306
"513",34,37,2,1,33,2,2,0,3,0.911611551819429,0.915778651376958
"514",34,29,2,1,34,2,2,0,3,0.571907685428059,0.532030898986798
"515",34,26,2,1,35,1,2,0,3,0.695863924343489,0.636184245105845
"516",34,21,2,2,36,2,1,0,2,0.63033116658177,0.652909707094291
"517",34,20,2,2,37,3,1,0,2,0.985963256836394,0.983580395120907
"518",34,35,2,2,38,3,1,0,1,1.69610220865424,1.70057907589145
"519",34,24,2,2,39,2,1,0,2,0.719644882159312,0.741353377766951
"520",34,32,2,2,40,2,2,1,3,0.616648164548709,0.585841411490769
"521",34,19,2,2,41,2,2,1,4,0.619201541108388,0.548348456316381
"522",34,30,2,2,42,2,1,0,3,0.69824262992831,0.695068632326669
"523",34,37,2,1,43,2,2,0,3,0.859934319541645,0.848577354121126
"524",34,29,2,2,44,2,2,1,4,0.461179263688353,0.46038380035549
"525",34,26,2,2,45,1,2,1,4,0.450675744184668,0.408792679522581
"526",34,21,2,2,46,1,2,1,5,0.397524176528799,0.37365117814624
"527",34,20,2,2,47,3,2,1,2,1.16368108765702,1.24768636326095
"528",34,35,2,1,48,1,1,1,4,0.480299844181401,0.515168621722919
"529",34,24,2,2,49,3,1,0,1,1.36148062157893,1.39726211826303
"530",34,32,2,2,50,3,2,1,3,0.504613187697632,0.52899077033947
"531",34,19,2,2,51,3,2,1,2,0.682136199172324,0.631929798322674
"532",34,30,2,1,52,1,1,1,4,0.219144210438124,0.253846050093776
"533",34,37,2,2,53,3,1,0,2,1.60889681383135,1.57679692198178
"534",34,29,2,2,54,2,1,0,3,0.572014032128772,0.640592649713111
"535",34,26,2,1,55,3,2,0,1,1.10599126573985,1.14141453816376
"536",34,21,2,1,56,3,2,0,2,0.693907857541567,0.794600862528894
"537",34,20,2,1,57,2,1,1,3,0.377150874878265,0.363532397166446
"538",34,35,2,2,58,1,2,1,4,0.459427717572293,0.408557654497061
"539",34,24,2,2,59,3,1,0,2,1.0838354362245,1.02014514463793
"540",34,32,2,1,60,3,2,0,2,1.03255962746937,1.04054133481289
"541",34,19,2,2,61,3,1,0,1,1.38651122382945,1.41186453179479
"542",34,30,2,2,62,2,2,1,3,0.667180400068465,0.654035680025284
"543",34,37,2,2,63,3,1,0,1,1.27900752203533,1.19140603180876
"544",34,29,2,1,64,1,1,1,5,0.439997304431621,0.34316111932168
"545",34,26,2,1,65,3,2,0,1,0.464395662846437,0.414212551113594
"546",34,21,2,1,66,3,1,1,2,0.868942287175137,0.906985066324187
"547",34,20,2,2,67,2,1,0,3,0.853766789007134,0.876171982038043
"548",34,35,2,1,68,1,1,1,4,0.352591743352959,0.493000482539402
"549",34,24,2,1,69,3,2,0,2,0.963907520439821,0.861733998926077
"550",34,32,2,1,70,2,1,1,3,0.516617067321602,0.562703690215557
"551",34,19,2,1,71,1,2,0,3,0.529075891659273,0.549022593926311
"552",34,30,2,1,72,1,1,1,4,0.353157454194036,0.360627230643058
"553",34,37,2,1,73,2,2,0,2,0.693913853504575,0.682977987028098
"554",34,29,2,2,74,3,2,1,3,1.02656127956748,1.07328570671195
"555",34,26,2,1,75,3,2,0,1,1.48438915263909,1.33784797628666
"556",34,21,2,2,76,1,1,0,3,0.639793651742215,0.619682097777327
"557",34,20,2,1,77,1,2,0,4,0.556369388293135,0.617074479576742
"558",34,35,2,1,78,1,1,1,5,0.489464090766255,0.460484601254446
"559",34,24,2,2,79,1,2,1,5,0.529350819631574,0.487453295593312
"560",34,32,2,2,80,1,1,0,3,0.579534154807506,0.603676594297993
"561",34,19,2,1,81,1,1,1,4,0.549839375866312,0.489099135430835
"562",34,30,2,1,82,3,2,0,1,0.839786836570975,0.839494734256455
"563",34,37,2,1,83,2,1,1,4,0.643756758821411,0.666041965156507
"564",34,29,2,1,84,2,2,0,3,0.577009403439776,0.500603233967323
"565",34,26,2,1,85,2,2,0,3,0.583256815574733,0.614437978699129
"566",34,21,2,2,86,3,2,1,3,0.622649356094157,0.656909239177792
"567",34,20,2,2,87,3,2,1,2,0.665489589205926,0.626586682404905
"568",34,35,2,2,88,1,2,1,5,0.344107946539425,0.286485932542164
"569",34,24,2,1,89,3,2,0,2,1.25075502765146,1.23269894119931
"570",34,32,2,1,90,2,1,1,4,0.580083519228806,0.593815289693183
"571",34,19,2,1,91,1,2,0,4,0.506174139158274,0.520387869370452
"572",34,30,2,2,92,3,1,0,2,1.57332292916347,1.52301612383107
"573",34,37,2,1,93,3,1,1,2,1.01943839324674,0.986295753067673
"574",34,29,2,1,94,2,2,0,3,0.543997067722763,0.629472863194037
"575",34,26,2,1,95,2,2,0,3,0.617699373752191,0.604747686818889
"576",34,21,2,2,96,2,1,0,3,0.722230314838,0.830264984459459
"577",34,20,2,2,97,1,2,1,4,0.403280996041852,0.351866619122567
"578",34,35,2,1,98,2,1,1,3,0.521268470222979,0.525914824853801
"579",34,24,2,2,99,1,2,1,5,0.19758441812219,0.195671900573913
"580",34,32,2,1,100,2,1,1,3,0.689618059693388,0.697470595425107
"581",34,19,2,2,101,3,1,0,2,1.38256543359455,1.37886633862439
"582",34,30,2,1,102,1,1,1,5,0.369394593929311,0.338663787147675
"583",34,37,2,2,103,3,2,1,2,0.633560906296036,0.585679873218667
"584",34,29,2,1,104,3,2,0,2,1.49966732096111,1.53079529420689
"585",34,26,2,1,105,1,2,0,3,0.695444438666612,0.757965938251164
"586",34,21,2,2,106,3,1,0,2,1.19193867858299,1.17838369519711
"587",34,20,2,2,107,3,2,1,3,0.717610794819272,0.741821982069115
"588",34,35,2,2,108,3,2,1,3,0.766391983473768,0.804932358111122
"589",34,24,2,2,109,1,2,1,4,0.432090810926178,0.429303999071601
"590",34,32,2,1,110,1,2,0,4,0.514610107841054,0.632194683957235
"591",34,19,2,2,111,1,2,1,4,0.447448715915862,0.444538146704389
"592",34,30,2,2,112,2,1,0,3,0.746602361823154,0.782868896424863
"593",34,37,2,2,113,1,1,0,4,0.766248080541978,0.806380531794453
"594",34,29,2,1,114,1,1,1,4,0.424134152269189,0.417761995089984
"595",34,26,2,2,115,2,2,1,3,0.556594980281113,0.546403571857783
"596",34,21,2,2,116,2,1,0,3,0.7066242429954,0.738302861432684
"597",34,20,2,2,117,3,1,0,1,1.42423941298856,1.37121719478499
"598",34,35,2,1,118,2,2,0,3,0.637587536540611,0.609054181408022
"599",34,24,2,2,119,1,1,0,4,0.696864835551205,0.684703073804222
"600",34,32,2,1,120,3,2,0,1,1.40422569786917,1.42938548546846
"601",34,19,2,2,121,3,2,1,2,1.0280264980735,1.06536826478117
"602",34,30,2,1,122,2,1,1,3,0.349073487701838,0.3631121872002
"603",34,37,2,1,123,1,1,1,4,0.339509112303229,0.344802463178127
"604",34,29,2,1,124,2,1,1,3,0.558959146875393,0.621172230741876
"605",34,26,2,1,125,3,2,0,1,0.311878364711389,0.379624408905069
"606",34,21,2,2,126,2,1,0,3,0.732147468345544,0.763768397404382
"607",34,20,2,1,127,2,2,0,2,0.729496112071637,0.693030012136704
"608",34,35,2,2,128,1,2,1,5,0.411391893443732,0.436057018416305
"609",34,24,2,2,129,2,2,1,3,0.706721008132861,0.707441061604277
"610",34,32,2,2,130,3,2,1,3,0.967708027615723,0.981708486988868
"611",34,19,2,2,131,2,1,0,3,0.666653020921411,0.627804228976783
"612",34,30,2,1,132,2,1,1,4,0.66241117208959,0.700129792021604
"613",34,37,2,1,133,3,2,0,1,0.961344646902885,0.959436395320991
"614",34,29,2,2,134,1,2,1,4,0.424302270593412,0.473312498667439
"615",34,26,2,2,135,3,2,1,2,0.750776710023974,0.756695898452528
"616",34,21,2,2,136,2,2,1,4,0.646352539693996,0.672771163896925
"617",34,20,2,2,137,2,1,0,3,0.705846411310446,0.646695433210524
"618",34,35,2,1,138,1,1,1,4,0.267480220342737,0.305288733405466
"619",34,24,2,2,139,3,1,0,2,1.62647815100987,1.54640921196055
"620",34,32,2,1,140,2,1,1,3,0.384752093368538,0.364818749917677
"621",34,19,2,2,141,2,2,1,3,0.704047176589927,0.641229607981068
"622",34,30,2,2,142,2,2,1,3,0.572467172202551,0.617196971455059
"623",34,37,2,2,143,1,2,1,4,0.379386460076618,0.364798671007491
"624",34,29,2,2,144,1,2,1,4,0.416845501073087,0.433618248600007
"625",34,26,2,1,145,1,1,1,4,0.390187873459638,0.413040570620366
"626",34,21,2,2,146,3,2,1,3,0.847213533700829,0.84168984739506
"627",34,20,2,2,147,2,2,1,3,0.687744635882134,0.723180381866971
"628",34,35,2,1,148,1,2,0,4,0.546176471348428,0.560678141217135
"629",34,24,2,2,149,2,2,1,4,0.770269073193735,0.715177415151114
"630",34,32,2,2,150,1,2,1,5,0.408182906426601,0.421465301052632
"631",34,19,2,2,151,3,2,1,2,0.991050699854485,1.04821599652851
"632",34,30,2,1,152,2,1,1,3,0.517680036438836,0.550272503818032
"633",34,37,2,2,153,3,2,1,2,0.949170268883787,1.02601922320034
"634",34,29,2,2,154,1,2,1,5,0.454180212482288,0.384852360957978
"635",34,26,2,1,155,1,1,1,5,0.292516235622812,0.248601015462761
"636",34,21,2,2,156,3,2,1,3,0.664109561333358,0.673381517754128
"637",34,20,2,2,157,2,2,1,4,0.551959910777212,0.58187201842419
"638",34,35,2,1,158,2,2,0,2,0.283258921539029,0.269334457334734
"639",34,24,2,2,159,2,2,1,3,0.613439995050471,0.655426691991008
"640",34,32,2,2,160,2,1,0,2,0.549659200634151,0.586862727603438
"641",34,19,2,2,161,1,2,1,4,0.389606218476397,0.366037447671009
"642",34,30,2,1,162,1,2,0,4,0.628553634864223,0.624319020962913
"643",34,37,2,1,163,2,2,0,2,0.858922151067255,0.822944312073529
"644",34,29,2,1,164,1,1,1,4,0.23050496898681,0.243106810979359
"645",34,26,2,1,165,2,1,1,3,0.447567919960448,0.401907238353906
"646",34,21,2,1,166,2,2,0,3,0.536771374507837,0.515450926951831
"647",34,20,2,2,167,2,1,0,2,0.479371814515973,0.496165486350206
"648",34,35,2,2,168,1,2,1,5,0.411944679629934,0.446493579208426
"649",34,24,2,1,169,1,1,1,5,0.33371224765349,0.277935487705113
"650",34,32,2,1,170,3,1,1,2,1.01573023100716,1.0191161330647
"651",34,19,2,1,171,1,2,0,3,0.505089570138616,0.520314930457276
"652",34,30,2,1,172,2,1,1,3,0.526160741767251,0.48761508433423
"653",34,37,2,2,173,2,2,1,3,0.628957645628248,0.626876779983988
"654",34,29,2,1,174,2,2,0,2,0.529664231024843,0.487747376310193
"655",34,26,2,2,175,2,1,0,3,0.677470356764474,0.759118813652467
"656",34,21,2,1,176,3,2,0,2,1.14205669700319,1.19440939001863
"657",34,20,2,2,177,2,1,0,3,0.729039458343815,0.677832192754376
"658",34,35,2,1,178,2,1,1,3,0.828158028077301,0.847779008170144
"659",34,24,2,1,179,2,2,0,3,0.213561007451721,0.15591858592728
"660",34,32,2,1,180,1,1,1,5,0.579080264105021,0.630348145851886
"661",34,19,2,1,181,1,1,1,4,0.346841504864607,0.35657807596038
"662",34,30,2,1,182,1,1,1,4,0.310846806626862,0.290151582202931
"663",34,37,2,1,183,2,1,1,4,0.500296078225555,0.471406494537179
"664",34,29,2,1,184,2,1,1,4,0.585495348704184,0.620523889199986
"665",34,26,2,2,185,3,1,0,2,0.884540713922852,0.817398582459141
"666",34,21,2,1,186,1,1,1,5,0.421213947121693,0.396575458100453
"667",34,20,2,1,187,3,1,1,2,0.775936254347997,0.71841196249883
"668",34,35,2,1,188,1,1,1,5,0.436052393865494,0.378656301769213
"669",34,24,2,2,189,2,2,1,4,0.689856601737055,0.739710996846521
"670",34,32,2,1,190,1,1,1,4,0.492218238962083,0.45677819720291
"671",34,19,2,2,191,1,1,0,4,0.49787147122153,0.563691413858223
"672",34,30,2,1,192,3,2,0,2,1.40700757020204,1.38406763049676
"673",34,37,2,1,193,3,1,1,2,1.07390944439464,1.11185402288916
"674",34,29,2,1,194,1,1,1,5,0.283059371282204,0.278324871138108
"675",34,26,2,2,195,2,2,1,4,0.716978963649018,0.598588230898703
"676",34,21,2,1,196,1,2,0,3,0.453971748045138,0.526241856224952
"677",34,20,2,1,197,1,1,1,4,0.380868512303115,0.338488795555264
"678",34,35,2,2,198,1,2,1,4,0.47589693080899,0.525187491076933
"679",34,24,2,1,199,2,2,0,3,0.572171217184552,0.655318000822462
"680",34,32,2,2,200,3,1,0,2,0.810356029529405,0.699236378579841
"681",34,19,2,1,201,1,1,1,5,0.326712060673792,0.281829045219818
"682",34,30,2,1,202,1,2,0,3,0.641705146282654,0.679052909767687
"683",34,37,2,2,203,2,2,1,4,0.593814511737253,0.695661469451618
"684",34,29,2,1,204,2,1,1,4,0.688445426910073,0.571214056896015
"685",34,26,2,2,205,1,2,1,5,0.494521884814405,0.450985859562219
"686",34,21,2,1,206,3,2,0,2,1.06006944803414,1.12991390537421
"687",34,20,2,1,207,3,2,0,1,0.882091725403763,0.863781022160542
"688",34,35,2,2,208,2,1,0,2,0.74381288049773,0.75416107445734
"689",34,24,2,1,209,2,2,0,3,0.74899344293872,0.743741568250198
"690",34,32,2,1,210,3,2,0,2,1.23985939170446,1.25706163684154
"691",34,19,2,2,211,3,2,1,2,0.603418594853061,0.600548616806706
"692",34,30,2,2,212,3,2,1,2,1.08192196079568,1.09709222666312
"693",34,37,2,2,213,2,1,0,3,0.506233031960275,0.452786929278747
"694",34,29,2,2,214,3,1,0,1,1.12931695260973,1.06665256881013
"695",34,26,2,2,215,3,2,1,3,0.801621648332555,0.773644962136821
"696",34,21,2,1,216,3,2,0,1,0.900388400117167,0.869243693837674
"697",34,20,2,1,217,3,1,1,3,0.927717628645557,0.925639065432403
"698",34,35,2,2,218,1,1,0,3,0.45814649521535,0.556626544284031
"699",34,24,2,1,219,2,1,1,3,0.546367812966918,0.509540698655856
"700",34,32,2,2,220,1,2,1,5,0.260964758162183,0.162673907681705
"701",34,19,2,1,221,2,1,1,4,0.61368956416215,0.66039297559213
"702",34,30,2,2,222,3,2,1,3,0.756744321511267,0.764855941243137
"703",34,37,2,2,223,3,2,1,3,0.76831041858485,0.776183324910766
"704",34,29,2,2,224,3,1,0,1,0.517264180299208,0.435732800044117
"705",34,26,2,2,225,2,1,0,3,0.676352671151858,0.732959073625061
"706",34,21,2,2,226,2,2,1,3,0.634838117239348,0.685051784896728
"707",34,20,2,2,227,1,2,1,5,0.40651894404379,0.462945958630362
"708",34,35,2,1,228,3,1,1,2,0.526156598531302,0.514853626105471
"709",34,24,2,2,229,3,2,1,2,0.978919376599781,1.08030483900396
"710",34,32,2,2,230,3,2,1,3,0.696488789478448,0.704164076090553
"711",34,19,2,1,231,3,2,0,2,1.24245996207404,1.23628661779526
"712",34,30,2,1,232,3,2,0,1,0.788531104390565,0.821499565282781
"713",34,37,2,1,233,1,1,1,5,0.408906439229989,0.580868254463755
"714",34,29,2,2,234,1,2,1,4,0.350296113618044,0.333129525989683
"715",34,26,2,1,235,1,1,1,4,0.386722201216784,0.418630263857269
"716",34,21,2,2,236,1,2,1,5,0.399471346113954,0.353138639625089
"717",34,20,2,1,237,3,2,0,1,0.555512416102424,0.596887084191731
"718",34,35,2,2,238,1,2,1,4,0.487410400697667,0.569017628388839
"719",34,24,2,2,239,1,2,1,4,0.3910483901827,0.363670549520075
"720",34,32,2,1,240,3,2,0,2,0.300813794583504,0.316865089839506
"721",33,30,1,2,1,1,1,0,3,0.499203479299172,0.45496595397586
"722",33,39,1,2,2,3,1,0,1,0.718465216133718,0.754909969771603
"723",33,27,1,2,3,3,1,0,2,0.712877576358449,0.68753726378674
"724",33,26,1,1,4,2,1,1,3,0.638059045214233,0.568655417371757
"725",33,28,1,1,5,2,1,1,4,0.388788685970838,0.318750109926897
"726",33,28,1,1,6,3,2,0,2,1.28143106316824,1.36271854388214
"727",33,23,1,1,7,1,1,1,5,0.364590822424005,0.355009401839583
"728",33,20,1,2,8,1,2,1,5,0.531267123081828,0.530133708728847
"729",33,39,1,1,9,1,1,1,5,0.413005143839451,0.35323731535483
"730",33,24,1,1,10,1,1,1,5,0.397411291826959,0.372845294049824
"731",33,30,1,2,11,1,2,1,4,0.408349324675142,0.427422798409913
"732",33,39,1,2,12,2,2,1,3,0.603131049963991,0.617888956275961
"733",33,27,1,2,13,2,1,0,3,0.929040541162604,1.06862544065998
"734",33,26,1,2,14,2,2,1,3,0.49225815792384,0.541652309230528
"735",33,28,1,1,15,2,2,0,2,0.62371412213334,0.562753097665618
"736",33,28,1,1,16,3,2,0,2,1.59919308986112,1.70741364142515
"737",33,23,1,2,17,3,2,1,2,0.956992262074069,0.97164273597305
"738",33,20,1,1,18,3,1,1,3,0.629024818976091,0.573114548796289
"739",33,39,1,1,19,2,1,1,3,0.425631084935034,0.424045201508454
"740",33,24,1,1,20,2,2,0,2,0.614479878409873,0.592024782291467
"741",33,30,1,2,21,2,2,1,4,0.639657183187489,0.628054022710678
"742",33,39,1,2,22,3,1,0,2,0.294674591350386,0.333250185209583
"743",33,27,1,1,23,1,1,1,4,0.254902577951548,0.299796348480143
"744",33,26,1,2,24,3,1,0,1,0.684675748151994,0.716970448076428
"745",33,28,1,1,25,1,1,1,4,0.457142297252093,0.481094748909932
"746",33,28,1,2,26,3,1,0,1,1.10036002375514,1.163628235123
"747",33,23,1,2,27,2,1,0,2,0.766901199016665,0.7880921518293
"748",33,20,1,1,28,3,1,1,3,1.01194809551028,1.03773928702381
"749",33,39,1,1,29,2,1,1,4,0.647886517381621,0.656170890775976
"750",33,24,1,1,30,1,1,1,5,0.367043546058779,0.366560297432075
"751",33,30,1,2,31,3,2,1,3,0.523837148560999,0.472621418521134
"752",33,39,1,2,32,3,2,1,2,0.999651442814619,0.956095965994236
"753",33,27,1,1,33,2,2,0,3,0.567194620864472,0.65708778199769
"754",33,26,1,2,34,1,2,1,5,0.278649884788089,0.270068931259902
"755",33,28,1,1,35,2,1,1,4,0.674562480671737,0.630357559247527
"756",33,28,1,1,36,2,2,0,3,0.510121235008656,0.484925063756577
"757",33,23,1,2,37,1,2,1,5,0.495835449720162,0.530693748487802
"758",33,20,1,1,38,2,2,0,3,0.674277336577287,0.697761744497267
"759",33,39,1,1,39,2,1,1,3,0.704584263933371,0.699537944575969
"760",33,24,1,2,40,3,1,0,2,0.967032401362217,0.940438898685029
"761",33,30,1,1,41,1,2,0,3,0.597980958004714,0.527666658660683
"762",33,39,1,1,42,1,1,1,4,0.49097446771777,0.47918939738245
"763",33,27,1,1,43,1,1,1,5,0.460971640902722,0.490560510463163
"764",33,26,1,2,44,1,2,1,5,0.468242001363164,0.461119673521148
"765",33,28,1,1,45,3,2,0,1,1.54143485992828,1.5840190036199
"766",33,28,1,2,46,1,2,1,4,0.398777299028842,0.31884334534436
"767",33,23,1,2,47,2,1,0,2,0.49156955273965,0.480624620604857
"768",33,20,1,2,48,1,2,1,5,0.361378869767874,0.455985443020514
"769",33,39,1,1,49,1,1,1,5,0.39292092719705,0.425444679665552
"770",33,24,1,2,50,1,1,0,3,0.672081456565006,0.740040799175996
"771",33,30,1,1,51,2,2,0,2,0.898517889976085,0.878027544862303
"772",33,39,1,1,52,3,2,0,1,1.01785723503963,1.01427681354275
"773",33,27,1,1,53,1,1,1,5,0.399102085065749,0.370586243419942
"774",33,26,1,2,54,3,1,0,2,1.1654317368235,1.1940766526745
"775",33,28,1,2,55,2,2,1,3,0.675087902379142,0.767788669316915
"776",33,28,1,1,56,2,1,1,3,0.55827261146542,0.558702025570443
"777",33,23,1,2,57,2,1,0,3,0.786836799338706,0.837112053633368
"778",33,20,1,1,58,2,2,0,3,0.546441991128313,0.58193190946667
"779",33,39,1,1,59,3,2,0,1,0.710387107154669,0.679247026137613
"780",33,24,1,2,60,2,1,0,3,0.73215217810054,0.630641733846513
"781",33,30,1,1,61,2,1,1,3,0.339922585360122,0.299914717681981
"782",33,39,1,2,62,3,2,1,2,0.8131665942524,0.74944180570383
"783",33,27,1,1,63,3,2,0,1,1.12101913570461,1.14720639299923
"784",33,26,1,2,64,2,2,1,3,0.645591937260502,0.562217788293446
"785",33,28,1,2,65,1,2,1,4,0.529566809119113,0.522432426595819
"786",33,28,1,2,66,2,2,1,3,0.59746616861012,0.602519986040093
"787",33,23,1,1,67,2,1,1,3,0.68525923963126,0.62265590516743
"788",33,20,1,1,68,1,1,1,4,0.380876641246709,0.364359425503715
"789",33,39,1,2,69,3,2,1,2,1.13166627304495,1.08954041162196
"790",33,24,1,2,70,1,2,1,5,0.44883961638462,0.504119950412321
"791",33,30,1,1,71,2,1,1,4,0.662412943445667,0.61448462000925
"792",33,39,1,2,72,1,2,1,4,0.319179731907513,0.239599216627158
"793",33,27,1,1,73,2,1,1,3,0.783263426881186,0.808813422775784
"794",33,26,1,1,74,1,2,0,4,0.73584952979103,0.756200444585236
"795",33,28,1,1,75,1,1,1,4,0.463926725543503,0.555385082951463
"796",33,28,1,1,76,1,1,1,5,0.376752749366141,0.391300959522742
"797",33,23,1,2,77,1,2,1,5,0.475545425099945,0.455385047510632
"798",33,20,1,2,78,3,1,0,1,0.851099786985925,0.903620888118048
"799",33,39,1,1,79,3,1,1,3,0.586357018848674,0.593580132664142
"800",33,24,1,2,80,1,2,1,5,0.27700277716985,0.25087931411558
"801",33,30,1,2,81,2,2,1,3,0.683410760811313,0.601693503886613
"802",33,39,1,2,82,2,2,1,4,0.67980994534713,0.644828949672337
"803",33,27,1,2,83,3,1,0,1,0.825609318780461,0.76608957299677
"804",33,26,1,1,84,1,1,1,4,0.431249851383877,0.438920685871207
"805",33,28,1,2,85,1,2,1,5,0.246425094803644,0.245650769656062
"806",33,28,1,1,86,3,1,1,3,1.17525162508077,1.1201431727415
"807",33,23,1,2,87,1,2,1,5,0.346724700092606,0.36562036835758
"808",33,20,1,1,88,1,2,0,3,0.850906471153634,0.944790591388683
"809",33,39,1,2,89,2,1,0,3,0.437948637414969,0.423147801641171
"810",33,24,1,2,90,2,1,0,2,0.502472628313437,0.495705427312147
"811",33,30,1,2,91,2,2,1,4,0.463348246351142,0.486256333869396
"812",33,39,1,1,92,3,2,0,2,1.17980005602699,1.2140765889189
"813",33,27,1,2,93,3,1,0,1,0.528882955279424,0.545209086609324
"814",33,26,1,1,94,3,1,1,2,0.65397506812979,0.688829278015422
"815",33,28,1,2,95,3,1,0,1,1.30940224844696,1.34004041068298
"816",33,28,1,2,96,1,1,0,4,0.61966111779767,0.580262193179765
"817",33,23,1,1,97,1,2,0,4,0.510466994984941,0.492516582164689
"818",33,20,1,2,98,3,2,1,2,1.00112055659177,0.993266617148257
"819",33,39,1,2,99,3,1,0,1,0.536137391695862,0.536257724785452
"820",33,24,1,2,100,1,2,1,4,0.398353664449987,0.461593699946323
"821",33,30,1,2,101,2,2,1,3,0.668470748306152,0.612486291272564
"822",33,39,1,1,102,3,1,1,3,1.11640569804571,1.1300810538541
"823",33,27,1,1,103,3,2,0,1,1.20874140504095,1.2562729682395
"824",33,26,1,1,104,1,1,1,5,0.386094184309653,0.388601720316812
"825",33,28,1,2,105,2,1,0,2,0.666521862989615,0.727262799814871
"826",33,28,1,1,106,1,1,1,4,0.414421130284952,0.422311836147886
"827",33,23,1,2,107,3,2,1,2,0.840495240670868,0.833469365302527
"828",33,20,1,1,108,2,2,0,2,0.598741879800504,0.549916413585199
"829",33,39,1,2,109,3,1,0,2,1.04285934303782,0.944920625552571
"830",33,24,1,1,110,2,2,0,2,0.930987425954782,0.921285754578318
"831",33,30,1,1,111,3,1,1,2,0.754556434059745,0.800341800378009
"832",33,39,1,2,112,1,2,1,5,0.342290162854275,0.311624101937498
"833",33,27,1,1,113,2,1,1,4,0.520263573395818,0.576682192164484
"834",33,26,1,2,114,2,1,0,2,0.687246427954514,0.747278440567336
"835",33,28,1,1,115,3,1,1,3,0.868123735361235,0.838870797664629
"836",33,28,1,2,116,3,1,0,2,1.19187896833893,1.29074596735998
"837",33,23,1,2,117,3,1,0,1,0.766000419739293,0.787473004604773
"838",33,20,1,1,118,1,2,0,4,0.449704301134905,0.491614750279105
"839",33,39,1,1,119,2,1,1,3,0.618634128490603,0.591368958074899
"840",33,24,1,1,120,1,1,1,5,0.48171828642484,0.596086163136162
"841",33,30,1,1,121,1,1,1,4,0.40011135941095,0.50046744244508
"842",33,39,1,2,122,1,1,0,4,0.707337918941106,0.692553963443498
"843",33,27,1,2,123,2,1,0,2,0.703024218226723,0.740050948948475
"844",33,26,1,1,124,3,1,1,3,0.844939957731007,0.744497973593594
"845",33,28,1,1,125,1,2,0,3,0.700425901020485,0.707584476800873
"846",33,28,1,2,126,3,1,0,1,0.522405793988654,0.529767506339813
"847",33,23,1,2,127,3,1,0,1,0.818420117631852,0.827881166893166
"848",33,20,1,1,128,2,1,1,3,0.56690051399224,0.609137650995144
"849",33,39,1,1,129,2,2,0,2,0.702472775060766,0.727477772619763
"850",33,24,1,2,130,1,2,1,5,0.291377297580335,0.347611479092481
"851",33,30,1,1,131,2,1,1,4,0.593856568712124,0.585097865424289
"852",33,39,1,2,132,1,2,1,4,0.325091565872607,0.354182917851758
"853",33,27,1,2,133,1,2,1,5,0.41731833531595,0.413158589051665
"854",33,26,1,2,134,2,2,1,4,0.505193309381631,0.471883460016865
"855",33,28,1,1,135,2,1,1,4,0.561100485163768,0.574390477830728
"856",33,28,1,2,136,2,1,0,3,0.494268141188243,0.524076245133105
"857",33,23,1,2,137,1,1,0,3,0.48887143374786,0.473650019170901
"858",33,20,1,2,138,3,2,1,2,0.604874026452239,0.575939728563117
"859",33,39,1,2,139,1,2,1,4,0.211991226798833,0.270900427848987
"860",33,24,1,1,140,3,2,0,2,0.323748224581073,0.268338852134469
"861",33,30,1,1,141,2,2,0,3,0.507144764281904,0.459901351649144
"862",33,39,1,1,142,3,2,0,1,0.424033002444885,0.449809911097048
"863",33,27,1,2,143,2,1,0,2,0.646251917270768,0.689494769391643
"864",33,26,1,2,144,2,2,1,3,0.77394034175449,0.845951173614761
"865",33,28,1,2,145,2,2,1,3,0.542058638326531,0.529149983880448
"866",33,28,1,2,146,3,2,1,3,0.857070834995624,0.860979264792347
"867",33,23,1,2,147,3,1,0,1,1.15083945368296,1.10249832539905
"868",33,20,1,1,148,1,1,1,5,0.392441602340649,0.430803786184066
"869",33,39,1,2,149,2,1,0,3,0.871083840277364,0.87325309540903
"870",33,24,1,2,150,1,2,1,5,0.308667252718462,0.342789946528775
"871",33,30,1,1,151,2,2,0,3,1.05217139480132,1.09404407147625
"872",33,39,1,2,152,2,2,1,3,0.522299539583125,0.494901964581681
"873",33,27,1,1,153,3,2,0,2,1.44388306197342,1.37602932325887
"874",33,26,1,2,154,2,2,1,4,0.770370399444785,0.756702981016145
"875",33,28,1,1,155,2,2,0,2,0.628782342343415,0.661458066235984
"876",33,28,1,1,156,3,2,0,2,0.503990727340926,0.528561910100705
"877",33,23,1,1,157,1,2,0,4,0.492337776217404,0.467963886612151
"878",33,20,1,2,158,1,1,0,4,0.349208701167796,0.377503281346314
"879",33,39,1,2,159,2,2,1,3,0.641869873098836,0.594555450719585
"880",33,24,1,1,160,1,2,0,4,0.52835191191119,0.521399647754404
"881",33,30,1,1,161,3,1,1,2,0.880856287733741,0.881463250782882
"882",33,39,1,1,162,3,2,0,2,0.750475071940243,0.733154469020137
"883",33,27,1,2,163,3,2,1,3,0.637087581615264,0.64218916903134
"884",33,26,1,2,164,2,1,0,2,0.484752632791115,0.425316723257493
"885",33,28,1,2,165,2,1,0,3,0.778524697670945,0.748022515826384
"886",33,28,1,1,166,1,1,1,4,0.341883870133843,0.388619634409512
"887",33,23,1,1,167,2,1,1,3,0.446447565308899,0.538339369734941
"888",33,20,1,1,168,1,1,1,5,0.382311108039088,0.344032430169807
"889",33,39,1,2,169,3,1,0,2,0.873546521278509,0.882173947339374
"890",33,24,1,1,170,1,1,1,4,0.499812267159389,0.527654711138271
"891",33,30,1,1,171,1,1,1,5,0.397249289182746,0.452764200352194
"892",33,39,1,2,172,2,2,1,3,0.553033380331078,0.562798038200539
"893",33,27,1,2,173,2,2,1,3,0.703519410725512,0.699106933825305
"894",33,26,1,2,174,1,2,1,4,0.443410718958835,0.469587430603536
"895",33,28,1,1,175,1,1,1,4,0.446822917625758,0.415978037181296
"896",33,28,1,1,176,1,1,1,5,0.438421012963641,0.466782865920259
"897",33,23,1,1,177,2,1,1,3,0.560491834422306,0.50440837943557
"898",33,20,1,1,178,1,1,1,4,0.416322948841163,0.502160245684322
"899",33,39,1,1,179,2,1,1,3,0.538529427026589,0.493633616666467
"900",33,24,1,2,180,2,1,0,3,0.827952844705564,0.768369905710729
"901",33,30,1,1,181,3,1,1,2,0.73054975559389,0.766881634345701
"902",33,39,1,1,182,2,1,1,3,0.524475476590914,0.507359778565733
"903",33,27,1,2,183,3,2,1,2,0.593930663017531,0.593882296227702
"904",33,26,1,2,184,2,2,1,3,0.646939153767584,0.673812531459853
"905",33,28,1,1,185,1,1,1,5,0.4078709522727,0.368956417298262
"906",33,28,1,2,186,2,2,1,4,0.625285275175494,0.717065610088322
"907",33,23,1,2,187,3,2,1,3,0.701864200453283,0.65795404349277
"908",33,20,1,2,188,2,1,0,3,0.851147110235469,0.863469334627499
"909",33,39,1,1,189,3,1,1,3,0.461211605550907,0.469954042561971
"910",33,24,1,2,190,3,1,0,1,1.29645881960563,1.28821589068192
"911",33,30,1,1,191,3,2,0,1,1.69696549239949,1.76749397239948
"912",33,39,1,1,192,2,1,1,3,0.539964408361715,0.481191771801277
"913",33,27,1,1,193,1,1,1,5,0.445390645007942,0.396126653923673
"914",33,26,1,1,194,1,1,1,5,0.432588549880784,0.364523569967695
"915",33,28,1,1,195,1,2,0,3,0.467318836835562,0.479454386569935
"916",33,28,1,2,196,3,2,1,2,0.805016605248516,0.81223186187357
"917",33,23,1,1,197,3,1,1,3,1.04315181247888,0.998994305376361
"918",33,20,1,1,198,3,1,1,3,0.436175798426128,0.291280532686644
"919",33,39,1,2,199,1,2,1,4,0.47544054782972,0.521185236718365
"920",33,24,1,1,200,2,2,0,2,0.575493437862023,0.634907701685941
"921",33,30,1,2,201,1,2,1,4,0.380527825972698,0.334545116199335
"922",33,39,1,2,202,2,1,0,3,0.570459587986407,0.528201680657103
"923",33,27,1,2,203,2,1,0,3,0.559406249030752,0.555503477056814
"924",33,26,1,2,204,3,2,1,2,0.795751047705518,0.712647746595152
"925",33,28,1,2,205,3,1,0,2,1.13068522105833,1.1061577334503
"926",33,28,1,2,206,1,1,0,4,0.565075948781136,0.489483226864423
"927",33,23,1,1,207,2,1,1,3,0.684665921028052,0.598621539680225
"928",33,20,1,2,208,3,2,1,3,0.503349729997344,0.610176575129957
"929",33,39,1,1,209,1,1,1,4,0.422547274889436,0.407261517528014
"930",33,24,1,2,210,2,1,0,3,0.631522306765621,0.609080549138075
"931",33,30,1,1,211,3,2,0,1,1.10262531090463,1.03799414978916
"932",33,39,1,1,212,3,1,1,3,0.872333036901519,0.989763805079152
"933",33,27,1,2,213,3,1,0,2,1.42331540532892,1.45073939605654
"934",33,26,1,1,214,2,1,1,4,0.65564242631386,0.652076410496972
"935",33,28,1,2,215,2,2,1,3,0.440235804843131,0.319879932341635
"936",33,28,1,2,216,3,2,1,2,0.846737791667472,0.775692748685064
"937",33,23,1,1,217,3,2,0,2,0.525265493380573,0.524107307657761
"938",33,20,1,1,218,1,1,1,5,0.452427643183957,0.456976167028059
"939",33,39,1,1,219,3,1,1,3,0.796243338738657,0.819457682584957
"940",33,24,1,1,220,3,1,1,2,0.647625598746846,0.701073759338076
"941",33,30,1,2,221,3,2,1,3,0.932314521979763,0.895791112234011
"942",33,39,1,2,222,3,2,1,3,0.826222329706148,0.745193796252435
"943",33,27,1,2,223,3,1,0,2,1.50041405317018,1.48467644265818
"944",33,26,1,1,224,3,2,0,1,0.893109666635535,1.04556531346256
"945",33,28,1,2,225,1,2,1,4,0.496711990621619,0.409997945032099
"946",33,28,1,1,226,3,2,0,1,1.39465460889423,1.37933894758559
"947",33,23,1,2,227,3,2,1,2,0.994266412297564,0.986607841696352
"948",33,20,1,2,228,1,2,1,5,0.404226953081684,0.355268816632513
"949",33,39,1,2,229,1,1,0,4,0.550149623532308,0.477127123421705
"950",33,24,1,1,230,1,1,1,4,0.398603488837811,0.393216446629911
"951",33,30,1,1,231,1,1,1,4,0.338619016807892,0.371395268685126
"952",33,39,1,1,232,3,1,1,3,0.332211090966876,0.377490925804456
"953",33,27,1,1,233,1,1,1,4,0.392201372061315,0.434977380346814
"954",33,26,1,2,234,1,1,0,4,0.500421252926998,0.562119606072938
"955",33,28,1,2,235,1,2,1,4,0.424534089934572,0.403492370575995
"956",33,28,1,1,236,2,1,1,4,0.722141995152055,0.710715041166099
"957",33,23,1,1,237,2,2,0,2,0.650905561572903,0.706509625549424
"958",33,20,1,2,238,3,1,0,1,0.862635117827833,0.904630086492463
"959",33,39,1,1,239,3,1,1,2,0.742380325030151,0.750049593193788
"960",33,24,1,1,240,1,1,1,4,0.367343316149777,0.311005225316578
"961",32,19,2,1,1,1,1,1,4,0.49211196592877,0.434685788692559
"962",32,38,2,2,2,1,1,0,4,0.487524588155821,0.448959381825679
"963",32,36,2,2,3,2,1,0,3,0.596380615498146,0.478712730247321
"964",32,29,2,1,4,2,1,1,3,0.464652646530901,0.423050654227958
"965",32,25,2,2,5,2,2,1,4,0.629388757229841,0.614514569670497
"966",32,40,2,1,6,1,1,1,4,0.324584157697032,0.416014559471266
"967",32,21,2,2,7,2,1,0,3,0.832472891230381,0.840487738903315
"968",32,39,2,1,8,3,2,0,2,1.21321700125276,1.24501391140876
"969",32,39,2,1,9,3,2,0,2,1.18291021832085,1.20562169934068
"970",32,18,2,1,10,1,1,1,4,0.408498643571215,0.416200561027249
"971",32,19,2,2,11,1,2,1,4,0.485151575114491,0.537670511586675
"972",32,38,2,2,12,3,2,1,3,1.14447127257834,1.11432247573461
"973",32,36,2,1,13,1,1,1,5,0.345985180347945,0.375719303153078
"974",32,29,2,1,14,3,1,1,2,0.622795509252622,0.623812379865749
"975",32,25,2,1,15,3,2,0,2,0.782944294158759,0.690138999661379
"976",32,40,2,1,16,2,2,0,3,0.745151564731257,0.685343524295398
"977",32,21,2,2,17,2,1,0,3,0.409097117345826,0.35847437484095
"978",32,39,2,1,18,2,2,0,3,0.648852764507545,0.64218403736048
"979",32,39,2,1,19,2,2,0,3,0.80744236157462,0.805890783971957
"980",32,18,2,2,20,2,2,1,4,0.654798546761276,0.73784154842617
"981",32,19,2,1,21,2,2,0,3,0.884342192771345,0.918675844990974
"982",32,38,2,2,22,1,2,1,5,0.421952191969796,0.474494598357128
"983",32,36,2,1,23,2,1,1,3,0.63541289975444,0.541410075803731
"984",32,29,2,1,24,2,1,1,4,0.924558682533897,0.909490164049322
"985",32,25,2,2,25,2,1,0,3,0.484013188117247,0.509556157184741
"986",32,40,2,1,26,3,2,0,2,0.72590229379553,0.672059717452541
"987",32,21,2,2,27,1,2,1,5,0.385178078348745,0.458802038646143
"988",32,39,2,2,28,3,1,0,1,0.97347459258685,1.00808859929645
"989",32,39,2,1,29,3,1,1,3,0.855385529584948,0.871098156526048
"990",32,18,2,2,30,3,1,0,2,0.800079534245245,0.725109603178995
"991",32,19,2,2,31,1,2,1,4,0.408415187635004,0.471000628029147
"992",32,38,2,2,32,1,2,1,5,0.424533427262516,0.401365754557191
"993",32,36,2,2,33,3,2,1,2,0.918892168339094,0.908802165096038
"994",32,29,2,2,34,3,1,0,1,1.5182063002981,1.5380113885003
"995",32,25,2,1,35,3,2,0,1,1.7288698478846,1.75904817092958
"996",32,40,2,2,36,1,1,0,4,0.438336122243132,0.490945224785013
"997",32,21,2,1,37,2,1,1,4,0.745315900481243,0.745154168040314
"998",32,39,2,1,38,3,2,0,2,0.872425156835112,0.832235305056676
"999",32,39,2,2,39,3,2,1,3,0.571038090178029,0.579136041393354
"1000",32,18,2,1,40,1,1,1,5,0.43938914200412,0.456203024386373
"1001",32,19,2,2,41,1,2,1,5,0.415664550274912,0.438301034095547
"1002",32,38,2,2,42,1,2,1,4,0.299359407574732,0.216864651202347
"1003",32,36,2,2,43,2,1,0,2,0.754741664364313,0.706202746982385
"1004",32,29,2,1,44,3,1,1,2,0.481865125260725,0.466602181659163
"1005",32,25,2,1,45,2,1,1,4,0.757547206621879,0.799901175226393
"1006",32,40,2,2,46,1,1,0,3,0.630747462033534,0.574721499731156
"1007",32,21,2,2,47,3,1,0,2,0.905173518313178,0.996664372499707
"1008",32,39,2,1,48,1,1,1,4,0.424537272752669,0.438479090868215
"1009",32,39,2,2,49,2,2,1,4,0.597233801973253,0.496731557617961
"1010",32,18,2,1,50,3,1,1,3,0.823745147445505,0.888398619616233
"1011",32,19,2,1,51,2,1,1,4,0.602257876151254,0.605584986074163
"1012",32,38,2,1,52,1,1,1,5,0.38657116796708,0.33622023139716
"1013",32,36,2,1,53,1,1,1,4,0.297674414381796,0.235259472963798
"1014",32,29,2,2,54,2,1,0,3,0.734626702383375,0.730871967865083
"1015",32,25,2,1,55,2,1,1,3,0.698865797422859,0.767113907918236
"1016",32,40,2,1,56,3,1,1,3,0.664943791531782,0.694406799095998
"1017",32,21,2,2,57,3,1,0,1,1.38534268333615,1.33632851753053
"1018",32,39,2,1,58,2,2,0,3,0.864094805639991,0.970714727382271
"1019",32,39,2,2,59,1,2,1,4,0.484711327407388,0.452463337708762
"1020",32,18,2,2,60,2,2,1,4,0.418051429101828,0.450575108706478
"1021",32,19,2,1,61,1,1,1,4,0.405643319748384,0.419579141448019
"1022",32,38,2,1,62,1,1,1,4,0.422675057137365,0.491841725347857
"1023",32,36,2,1,63,1,1,1,4,0.446567003482187,0.35305638411374
"1024",32,29,2,2,64,1,1,0,3,0.489005292178669,0.519766637197555
"1025",32,25,2,1,65,2,1,1,4,0.756500889489768,0.801732601554723
"1026",32,40,2,2,66,1,2,1,4,0.486894949040257,0.530346993291701
"1027",32,21,2,1,67,3,2,0,1,0.422128317270966,0.40887959283574
"1028",32,39,2,1,68,3,2,0,1,1.17638048730759,1.20337469065152
"1029",32,39,2,1,69,2,1,1,3,0.591643971300094,0.589364335205075
"1030",32,18,2,2,70,1,2,1,4,0.364328729795011,0.336071067857006
"1031",32,19,2,2,71,1,2,1,5,0.394072439028947,0.409729124809299
"1032",32,38,2,2,72,1,2,1,5,0.374282085579852,0.453175135127442
"1033",32,36,2,1,73,2,1,1,3,0.432054976902697,0.457851263629868
"1034",32,29,2,2,74,3,2,1,3,0.960850308060891,1.04587649524529
"1035",32,25,2,1,75,3,2,0,2,0.684601826228545,0.653403962542388
"1036",32,40,2,2,76,3,2,1,2,0.827001901428084,0.816567341148124
"1037",32,21,2,1,77,3,2,0,1,1.33811152707547,1.30265554653008
"1038",32,39,2,1,78,1,1,1,5,0.308828313534298,0.334425006362002
"1039",32,39,2,1,79,3,2,0,2,0.934830652759042,0.947268463391496
"1040",32,18,2,2,80,1,1,0,4,0.582030522826694,0.56540246933305
"1041",32,19,2,1,81,1,1,1,4,0.372103986114586,0.277735872547882
"1042",32,38,2,2,82,1,2,1,5,0.354613646398865,0.369322570275354
"1043",32,36,2,2,83,3,1,0,2,1.14183684117544,1.1259408265906
"1044",32,29,2,1,84,2,2,0,3,0.618097500707221,0.586141387935056
"1045",32,25,2,1,85,1,1,1,4,0.424321413860114,0.501315488717411
"1046",32,40,2,1,86,2,1,1,3,0.587965147129918,0.591960083361935
"1047",32,21,2,2,87,1,1,0,3,0.444618970293951,0.556898012687989
"1048",32,39,2,2,88,2,2,1,3,0.449086374325616,0.39296478393527
"1049",32,39,2,1,89,3,1,1,3,0.890930301111909,1.01384024126157
"1050",32,18,2,1,90,1,1,1,4,0.310618287157155,0.282437705336053
"1051",32,19,2,2,91,1,2,1,5,0.486996731899838,0.433249704519404
"1052",32,38,2,2,92,1,1,0,3,0.537018106653947,0.524932451333591
"1053",32,36,2,1,93,1,2,0,3,0.46976709933371,0.489454806372234
"1054",32,29,2,2,94,3,1,0,1,0.6837261679313,0.708431763584117
"1055",32,25,2,2,95,3,2,1,3,0.680317765623458,0.667238406032351
"1056",32,40,2,2,96,3,1,0,1,0.951412229986025,1.00731672455296
"1057",32,21,2,1,97,2,1,1,3,0.688472536472239,0.572830097784445
"1058",32,39,2,1,98,3,1,1,3,0.944659573933995,0.938223663818142
"1059",32,39,2,1,99,2,2,0,3,0.389377648601543,0.422409163334418
"1060",32,18,2,2,100,1,2,1,5,0.311383658088479,0.395915052292342
"1061",32,19,2,2,101,1,2,1,4,0.441379890433592,0.515583753008514
"1062",32,38,2,1,102,2,2,0,3,0.353757389308774,0.320076405255166
"1063",32,36,2,2,103,3,2,1,2,0.567740007117538,0.522254906978227
"1064",32,29,2,1,104,1,1,1,4,0.535129605929957,0.564656020524263
"1065",32,25,2,2,105,1,2,1,4,0.376875912937389,0.421216952398953
"1066",32,40,2,1,106,3,2,0,1,0.944756829831547,0.947925117301866
"1067",32,21,2,1,107,2,1,1,3,0.697305350375099,0.714522395470819
"1068",32,39,2,2,108,3,2,1,2,0.384439702446966,0.351745336675223
"1069",32,39,2,2,109,1,2,1,4,0.505040440131888,0.508949879329519
"1070",32,18,2,1,110,3,2,0,1,0.745055426245805,0.76822573295414
"1071",32,19,2,2,111,3,2,1,2,0.683219109381724,0.715416213945654
"1072",32,38,2,2,112,3,2,1,2,0.73325923132454,0.704759187868795
"1073",32,36,2,2,113,2,2,1,3,0.846706472472195,0.77324738746301
"1074",32,29,2,2,114,3,2,1,3,0.458659105192032,0.470482560687034
"1075",32,25,2,2,115,1,2,1,4,0.401174535126927,0.430223224055679
"1076",32,40,2,2,116,1,2,1,4,0.27556649410674,0.236751444287908
"1077",32,21,2,2,117,1,2,1,5,0.302668705364163,0.345899659418074
"1078",32,39,2,1,118,1,1,1,5,0.451701937570799,0.519181139109962
"1079",32,39,2,1,119,1,2,0,4,0.356063989596673,0.381348958488612
"1080",32,18,2,1,120,3,1,1,3,0.737470261224279,0.800041691291047
"1081",32,19,2,2,121,3,2,1,2,0.947005121033172,1.05912577946744
"1082",32,38,2,2,122,2,1,0,3,0.88225270408095,0.935496334668194
"1083",32,36,2,2,123,2,2,1,4,0.552161855329465,0.532902756554209
"1084",32,29,2,1,124,3,2,0,2,0.39375639197688,0.387226333135362
"1085",32,25,2,2,125,2,1,0,3,0.612428352538559,0.600163165501334
"1086",32,40,2,2,126,3,1,0,1,0.860129367341656,0.835073892784332
"1087",32,21,2,1,127,3,2,0,2,0.966080579257314,1.01249250358293
"1088",32,39,2,2,128,1,2,1,5,0.478390743375926,0.401513512957611
"1089",32,39,2,2,129,1,2,1,5,0.267452741227165,0.281537521186184
"1090",32,18,2,2,130,3,1,0,1,0.6584086678609,0.674475728772582
"1091",32,19,2,2,131,3,1,0,1,1.20453197548113,1.27419965345801
"1092",32,38,2,1,132,2,1,1,3,0.480054333397712,0.536579823166472
"1093",32,36,2,1,133,2,1,1,3,0.438255609481593,0.411698742904486
"1094",32,29,2,2,134,3,1,0,2,0.704100912946798,0.726807469050598
"1095",32,25,2,2,135,2,1,0,2,0.782844530523493,0.899665893999257
"1096",32,40,2,1,136,3,2,0,2,0.745393887251566,0.713427183668367
"1097",32,21,2,1,137,3,2,0,2,1.04260323674261,0.9958018878088
"1098",32,39,2,1,138,3,2,0,2,1.04443772406146,1.00541892890156
"1099",32,39,2,1,139,3,1,1,3,1.17789066247717,1.17598102142775
"1100",32,18,2,2,140,1,1,0,3,0.670429524412091,0.638446102393192
"1101",32,19,2,2,141,2,2,1,4,0.608090262487008,0.523939011378284
"1102",32,38,2,1,142,3,1,1,3,0.607493169586742,0.583416266938156
"1103",32,36,2,1,143,2,2,0,3,0.643078468270168,0.630585892582634
"1104",32,29,2,2,144,3,1,0,1,0.517061763300213,0.600260346553937
"1105",32,25,2,1,145,1,1,1,4,0.497742703619732,0.529929695446202
"1106",32,40,2,1,146,2,1,1,3,0.45311595894093,0.462978617566874
"1107",32,21,2,2,147,2,1,0,2,0.808992227182812,0.767566972797055
"1108",32,39,2,2,148,1,2,1,5,0.251085218424453,0.236815312797112
"1109",32,39,2,2,149,1,2,1,5,0.489293166364615,0.494063621937133
"1110",32,18,2,2,150,3,2,1,3,1.15930383367913,1.11620046437919
"1111",32,19,2,2,151,1,1,0,4,0.519751250757829,0.617659877032621
"1112",32,38,2,2,152,1,2,1,4,0.361378253024878,0.455236074477482
"1113",32,36,2,1,153,3,1,1,3,0.581572613003847,0.541128170414043
"1114",32,29,2,2,154,2,2,1,4,0.581378748167762,0.57940025579322
"1115",32,25,2,2,155,1,2,1,4,0.529858772448123,0.527111353974967
"1116",32,40,2,1,156,2,2,0,2,0.662501208802748,0.563089074652966
"1117",32,21,2,1,157,3,1,1,2,0.731675722735237,0.748208887449141
"1118",32,39,2,2,158,2,2,1,3,0.525482786055891,0.557660634996162
"1119",32,39,2,2,159,3,1,0,2,0.569422803518964,0.587268144397818
"1120",32,18,2,1,160,2,1,1,3,0.54292994285595,0.594766492045139
"1121",32,19,2,2,161,2,2,1,3,0.468289112041272,0.446214852394529
"1122",32,38,2,1,162,1,1,1,5,0.296535552864023,0.256067102425286
"1123",32,36,2,1,163,3,1,1,2,0.723969521179991,0.751975498941122
"1124",32,29,2,2,164,3,1,0,1,0.605262864553975,0.705094599091882
"1125",32,25,2,1,165,2,2,0,2,0.594784819532406,0.559770789973054
"1126",32,40,2,2,166,3,1,0,1,0.758989615209777,0.778323699781982
"1127",32,21,2,2,167,3,2,1,3,0.865503897050887,0.849436891494338
"1128",32,39,2,2,168,2,2,1,3,0.649693135007859,0.689725008468501
"1129",32,39,2,1,169,2,1,1,4,0.567509810522399,0.51334139873573
"1130",32,18,2,1,170,2,2,0,2,0.463465452193948,0.43666427779118
"1131",32,19,2,2,171,3,1,0,1,0.948673517108101,0.981452370557076
"1132",32,38,2,2,172,2,2,1,3,0.566710274111264,0.529775654903075
"1133",32,36,2,2,173,2,1,0,2,0.765313229643262,0.744179145705524
"1134",32,29,2,2,174,2,2,1,3,0.624834427657077,0.52405510304288
"1135",32,25,2,1,175,2,1,1,3,0.651019801203999,0.685669974255043
"1136",32,40,2,2,176,2,2,1,4,0.495959035205763,0.401930707797538
"1137",32,21,2,1,177,2,1,1,4,0.810569829483273,0.862276192425362
"1138",32,39,2,1,178,2,1,1,4,0.557541197494129,0.56017090072551
"1139",32,39,2,1,179,1,1,1,5,0.316797576316077,0.252832924635119
"1140",32,18,2,1,180,1,2,0,3,0.661683383072873,0.595959690874925
"1141",32,19,2,1,181,1,1,1,4,0.374650443115365,0.40115109024498
"1142",32,38,2,2,182,2,2,1,3,0.321233612282381,0.237191435837571
"1143",32,36,2,1,183,1,1,1,5,0.360554240272292,0.30906938098562
"1144",32,29,2,1,184,2,2,0,3,0.577827639671628,0.636921240309453
"1145",32,25,2,2,185,2,2,1,4,0.613596103046609,0.567886128806531
"1146",32,40,2,1,186,2,1,1,3,0.674850991154779,0.590492882175666
"1147",32,21,2,1,187,2,2,0,2,0.679820540643751,0.633247300686234
"1148",32,39,2,2,188,1,2,1,4,0.277069940554752,0.252417752697441
"1149",32,39,2,2,189,3,2,1,2,1.21487317271695,1.1468346695188
"1150",32,18,2,1,190,3,2,0,2,1.32995554627724,1.35543597368707
"1151",32,19,2,1,191,1,1,1,4,0.502269887880498,0.5861640857891
"1152",32,38,2,1,192,2,2,0,2,0.704556678852019,0.633471570539364
"1153",32,36,2,2,193,2,1,0,3,0.73636192626532,0.717982924819494
"1154",32,29,2,2,194,3,1,0,1,1.50746080888183,1.45520691772197
"1155",32,25,2,2,195,3,1,0,1,1.11132503741353,1.18064331379767
"1156",32,40,2,1,196,1,2,0,4,0.653543240285328,0.654016374289114
"1157",32,21,2,2,197,3,2,1,2,0.636783907105745,0.737352117083473
"1158",32,39,2,1,198,3,1,1,2,0.768577422834523,0.80220081141089
"1159",32,39,2,1,199,2,1,1,4,0.748542971823243,0.714694985619454
"1160",32,18,2,1,200,3,2,0,1,1.09819307822088,1.23431850109476
"1161",32,19,2,2,201,3,2,1,3,0.686905588214975,0.722410338233195
"1162",32,38,2,2,202,2,1,0,2,1.0433815143056,1.02494047960673
"1163",32,36,2,1,203,2,1,1,3,0.617464251108369,0.56180457038102
"1164",32,29,2,2,204,1,2,1,5,0.480372641849361,0.439429276058574
"1165",32,25,2,2,205,1,1,0,3,0.594264113321173,0.543363480348123
"1166",32,40,2,2,206,2,2,1,4,0.84994379945099,0.845638989845444
"1167",32,21,2,1,207,1,1,1,5,0.371820764244976,0.370336830197976
"1168",32,39,2,1,208,3,1,1,2,0.464023799422146,0.42246898878944
"1169",32,39,2,1,209,1,2,0,3,0.434450849373222,0.450515362098293
"1170",32,18,2,1,210,1,1,1,4,0.403214346805659,0.368490158458248
"1171",32,19,2,1,211,2,1,1,3,0.599785892280914,0.579315192436352
"1172",32,38,2,1,212,3,1,1,3,0.901211850692264,0.82784367932815
"1173",32,36,2,1,213,1,1,1,4,0.389571116384652,0.279487180027845
"1174",32,29,2,2,214,1,2,1,4,0.324920491893031,0.274611757321701
"1175",32,25,2,2,215,1,2,1,5,0.499090119937028,0.534285080608008
"1176",32,40,2,2,216,1,2,1,5,0.391463730299246,0.44121653086793
"1177",32,21,2,1,217,1,1,1,5,0.461404201957288,0.483776299253114
"1178",32,39,2,2,218,1,2,1,4,0.444668499854088,0.421872563205856
"1179",32,39,2,2,219,3,2,1,2,0.616788669559751,0.673376294984131
"1180",32,18,2,1,220,3,1,1,3,0.693640871147493,0.706742777024842
"1181",32,19,2,1,221,1,1,1,4,0.423803383248938,0.32657156207852
"1182",32,38,2,1,222,2,1,1,4,0.449419911050589,0.421185086031243
"1183",32,36,2,1,223,3,1,1,3,0.877266653917892,0.919349311323539
"1184",32,29,2,2,224,2,2,1,3,0.614576120549142,0.646695889063513
"1185",32,25,2,1,225,3,2,0,1,0.719805749832728,0.703720423020028
"1186",32,40,2,2,226,1,2,1,4,0.510636855792245,0.448588371847064
"1187",32,21,2,1,227,2,2,0,2,0.771006192696112,0.645789465985087
"1188",32,39,2,2,228,2,2,1,3,0.580109196635244,0.635024852021368
"1189",32,39,2,1,229,2,2,0,3,0.494505281068106,0.424111333825152
"1190",32,18,2,2,230,1,2,1,5,0.386424487539089,0.285992252921947
"1191",32,19,2,2,231,3,2,1,2,1.14867801392988,1.0947083068409
"1192",32,38,2,1,232,1,1,1,4,0.490641543991789,0.461030052109772
"1193",32,36,2,2,233,3,2,1,3,0.528149927026379,0.397535782402567
"1194",32,29,2,1,234,3,2,0,1,0.2120165377731,0.183074659220869
"1195",32,25,2,1,235,2,1,1,3,0.616294454286088,0.5728168075124
"1196",32,40,2,2,236,3,2,1,3,0.566990341591849,0.495532696265344
"1197",32,21,2,1,237,2,1,1,3,0.577461531889853,0.630861556028112
"1198",32,39,2,2,238,2,2,1,4,0.733232505281268,0.694151392244488
"1199",32,39,2,2,239,1,2,1,4,0.433665079692029,0.405059824297508
"1200",32,18,2,1,240,2,2,0,2,0.788838884675686,0.781835596515826
"1201",31,39,1,2,1,3,2,1,3,0.734032078295408,0.78859732504759
"1202",31,26,1,2,2,2,2,1,3,0.64518094585079,0.683939697791429
"1203",31,23,1,1,3,3,2,0,2,0.414336397395788,0.455272228264392
"1204",31,36,1,2,4,2,1,0,3,0.776136708001013,0.802809491713808
"1205",31,21,1,2,5,1,2,1,4,0.325761671070819,0.286145812773504
"1206",31,32,1,1,6,3,1,1,2,0.718463051493144,0.742301337925235
"1207",31,23,1,2,7,2,1,0,3,0.607800185125614,0.551861818181212
"1208",31,33,1,2,8,3,1,0,2,0.95272446081145,1.00000528470994
"1209",31,40,1,1,9,3,2,0,1,0.597461668879963,0.596102577071105
"1210",31,39,1,1,10,2,2,0,2,0.747918366265061,0.764835694524399
"1211",31,39,1,1,11,2,1,1,3,0.632654778962496,0.645525829115783
"1212",31,26,1,1,12,1,2,0,3,0.667123306150326,0.603923453740858
"1213",31,23,1,1,13,1,1,1,5,0.477844393202148,0.554976306686074
"1214",31,36,1,1,14,3,1,1,3,0.499012569898777,0.541562684165141
"1215",31,21,1,1,15,2,1,1,4,0.521336487821888,0.492585337986524
"1216",31,32,1,2,16,2,1,0,3,0.826706246777782,0.835920684418853
"1217",31,23,1,2,17,1,2,1,4,0.282838168706281,0.253553433498488
"1218",31,33,1,1,18,2,1,1,4,0.499745463382283,0.38572279659366
"1219",31,40,1,2,19,2,1,0,2,0.412909230035054,0.373458214756741
"1220",31,39,1,1,20,2,2,0,2,0.692184449382722,0.629974326434326
"1221",31,39,1,2,21,2,2,1,3,0.715272940315468,0.745744496197196
"1222",31,26,1,2,22,3,2,1,3,0.829745668198691,0.84785769583877
"1223",31,23,1,1,23,2,1,1,4,0.562422652487518,0.551013806131423
"1224",31,36,1,2,24,1,2,1,5,0.287474813672928,0.301612037784526
"1225",31,21,1,2,25,2,2,1,3,0.574481103404767,0.607609429682204
"1226",31,32,1,1,26,2,1,1,3,0.678531076524962,0.681171405859677
"1227",31,23,1,2,27,3,2,1,3,0.983972921340366,0.912385990923526
"1228",31,33,1,2,28,2,2,1,4,0.603081503254746,0.698421899193047
"1229",31,40,1,2,29,2,2,1,4,0.723833415206417,0.707503542223957
"1230",31,39,1,2,30,1,1,0,3,0.422171297180964,0.455978221614154
"1231",31,39,1,2,31,2,1,0,3,0.895569676219101,0.792139177953022
"1232",31,26,1,2,32,1,1,0,3,0.416488466746172,0.484069568600514
"1233",31,23,1,2,33,1,2,1,4,0.428908562963644,0.315369218969458
"1234",31,36,1,2,34,3,2,1,2,0.714044692273725,0.767314898634189
"1235",31,21,1,2,35,1,2,1,5,0.254877798270855,0.195419128742556
"1236",31,32,1,2,36,1,2,1,5,0.360105112235961,0.358014243930946
"1237",31,23,1,1,37,1,1,1,4,0.347560992676892,0.426449230847055
"1238",31,33,1,2,38,2,1,0,3,0.651538388798656,0.668392125313254
"1239",31,40,1,1,39,3,1,1,3,0.959514765432949,0.943881970967719
"1240",31,39,1,2,40,3,1,0,1,1.19359045070066,1.16470129113249
"1241",31,39,1,2,41,3,2,1,3,0.923838250257583,0.913826954492158
"1242",31,26,1,1,42,3,2,0,2,1.05506202500154,1.04064065740472
"1243",31,23,1,1,43,3,1,1,2,0.651689766109253,0.616254258006735
"1244",31,36,1,1,44,3,2,0,1,0.770865063470316,0.660461494337635
"1245",31,21,1,2,45,2,2,1,3,0.736866928975754,0.744155676840942
"1246",31,32,1,2,46,2,1,0,2,0.835923580016314,0.834944217506877
"1247",31,23,1,1,47,2,2,0,2,0.858450792437932,0.913248783708919
"1248",31,33,1,2,48,2,2,1,3,0.802995052992301,0.862662654589459
"1249",31,40,1,2,49,3,1,0,1,1.45722166712193,1.35105638248261
"1250",31,39,1,1,50,2,2,0,2,0.333928467734978,0.325673637421456
"1251",31,39,1,2,51,2,1,0,3,0.710642353987301,0.742534490769931
"1252",31,26,1,1,52,2,2,0,3,0.629822850124485,0.592922664154665
"1253",31,23,1,1,53,3,1,1,3,0.675212110163516,0.69085399183319
"1254",31,36,1,2,54,3,2,1,2,1.00659917166499,1.06414509663386
"1255",31,21,1,1,55,1,1,1,4,0.486091301541862,0.494102708698742
"1256",31,32,1,2,56,1,2,1,4,0.404056459080727,0.505524722775134
"1257",31,23,1,1,57,2,2,0,3,0.906316598908667,0.839909999127363
"1258",31,33,1,1,58,1,1,1,4,0.417999308942044,0.424704091183423
"1259",31,40,1,2,59,2,1,0,3,0.6333562354179,0.656805544273498
"1260",31,39,1,2,60,2,1,0,3,0.689968380271365,0.653637616345907
"1261",31,39,1,1,61,1,1,1,4,0.50489758485904,0.586073315128622
"1262",31,26,1,1,62,3,2,0,1,1.93507120044802,1.99333475932593
"1263",31,23,1,2,63,3,2,1,3,1.1308624667291,1.21464464582409
"1264",31,36,1,1,64,3,2,0,1,0.31854065295852,0.375862002972804
"1265",31,21,1,2,65,3,2,1,2,1.25403519460788,1.25227921341269
"1266",31,32,1,2,66,1,2,1,5,0.216708769920172,0.174798766694713
"1267",31,23,1,2,67,1,2,1,4,0.413296024625814,0.392156736945639
"1268",31,33,1,2,68,3,1,0,1,0.909575539068679,0.914095238233458
"1269",31,40,1,2,69,1,2,1,5,0.436275725361167,0.424301875821824
"1270",31,39,1,1,70,3,1,1,2,0.951517575233841,1.06371708726836
"1271",31,39,1,1,71,3,1,1,3,1.14404992857948,1.17517795413759
"1272",31,26,1,1,72,3,2,0,1,1.31870129366503,1.24733697667293
"1273",31,23,1,2,73,1,2,1,5,0.224050356715911,0.217309274994487
"1274",31,36,1,2,74,1,2,1,4,0.418140681188888,0.479021409544918
"1275",31,21,1,2,75,2,2,1,4,0.558305754257795,0.614279214474822
"1276",31,32,1,2,76,1,1,0,3,0.459590223245826,0.472330153086472
"1277",31,23,1,1,77,3,2,0,1,1.32024664175444,1.33376426216017
"1278",31,33,1,1,78,2,2,0,3,0.782666155653875,0.752350964676468
"1279",31,40,1,1,79,1,1,1,5,0.302418917647681,0.344080202290001
"1280",31,39,1,1,80,3,1,1,3,0.690083937140958,0.701831682066106
"1281",31,39,1,2,81,3,1,0,2,0.629438562259986,0.658906841173834
"1282",31,26,1,2,82,3,2,1,3,1.08682211741476,1.11536086610756
"1283",31,23,1,2,83,2,1,0,2,0.867446231192671,0.833212337413258
"1284",31,36,1,1,84,3,1,1,2,0.87449985243888,0.861264614942168
"1285",31,21,1,1,85,2,2,0,2,0.674621537346175,0.787113685136636
"1286",31,32,1,1,86,3,1,1,2,0.462035800421989,0.420815884127032
"1287",31,23,1,2,87,2,1,0,2,0.589886359645608,0.505706651270283
"1288",31,33,1,1,88,1,1,1,4,0.378741383518719,0.390770605305252
"1289",31,40,1,1,89,1,1,1,4,0.381220684259627,0.401142078568087
"1290",31,39,1,1,90,3,2,0,2,0.709038893494445,0.684586775931388
"1291",31,39,1,2,91,2,1,0,2,0.652237986895949,0.652969831548823
"1292",31,26,1,2,92,1,2,1,5,0.558380044242869,0.496516637860833
"1293",31,23,1,1,93,2,2,0,2,0.8656041213634,0.857393336172836
"1294",31,36,1,2,94,1,2,1,4,0.41868173541113,0.46202938115509
"1295",31,21,1,1,95,2,1,1,4,0.430274049555388,0.416113706203369
"1296",31,32,1,1,96,2,2,0,3,0.748102528503339,0.675791400296732
"1297",31,23,1,1,97,3,2,0,2,1.08620152301392,1.11169076398366
"1298",31,33,1,2,98,2,1,0,3,0.859389146085797,0.865442519417146
"1299",31,40,1,1,99,2,2,0,2,0.901327566169302,0.959050399648931
"1300",31,39,1,2,100,1,1,0,4,0.616595455531917,0.580313278924118
"1301",31,39,1,1,101,1,1,1,5,0.327915906268688,0.378040213361449
"1302",31,26,1,2,102,2,1,0,2,0.664228428875963,0.666615023098953
"1303",31,23,1,2,103,1,2,1,5,0.41081679026118,0.457537392603913
"1304",31,36,1,2,104,1,2,1,4,0.368278342263116,0.40969099135131
"1305",31,21,1,2,105,1,2,1,5,0.519574825579279,0.507390514476487
"1306",31,32,1,1,106,3,1,1,3,0.937614768875032,1.01831174789127
"1307",31,23,1,2,107,2,1,0,3,0.720745225089143,0.742458887437524
"1308",31,33,1,1,108,3,1,1,2,0.619219343289485,0.524717155252545
"1309",31,40,1,2,109,1,2,1,4,0.439201643927862,0.576220348842104
"1310",31,39,1,1,110,3,2,0,2,0.402988595946646,0.389420212276414
"1311",31,39,1,1,111,1,1,1,5,0.494569553375992,0.533627754205556
"1312",31,26,1,1,112,1,2,0,4,0.429557336165697,0.29704672356844
"1313",31,23,1,2,113,1,2,1,5,0.388330157800848,0.270734121764291
"1314",31,36,1,1,114,2,2,0,2,0.794933647740859,0.773066989340158
"1315",31,21,1,1,115,3,1,1,2,0.900775986185655,0.912143362145909
"1316",31,32,1,1,116,1,2,0,4,0.562299837158296,0.546719357299457
"1317",31,23,1,1,117,2,2,0,2,0.777206167778483,0.753687312531015
"1318",31,33,1,1,118,1,1,1,4,0.153505244361831,0.25403036041857
"1319",31,40,1,1,119,1,1,1,5,0.604999801941298,0.609934491904394
"1320",31,39,1,1,120,1,1,1,4,0.447699802437164,0.417913367968694
"1321",31,39,1,2,121,3,1,0,1,0.821336749415729,0.817316615658334
"1322",31,26,1,2,122,3,1,0,1,1.11965037098826,1.14193893375679
"1323",31,23,1,2,123,1,2,1,4,0.335812950746587,0.275194928891112
"1324",31,36,1,1,124,1,1,1,5,0.356341175819181,0.276654831879889
"1325",31,21,1,1,125,3,2,0,1,1.32381094561765,1.40349048579295
"1326",31,32,1,2,126,2,1,0,2,0.561482835403112,0.532902199396563
"1327",31,23,1,1,127,1,1,1,5,0.451781188438161,0.431951695323178
"1328",31,33,1,2,128,3,2,1,2,0.817772367959838,0.870788704301624
"1329",31,40,1,1,129,1,1,1,5,0.227981095487413,0.228400534399354
"1330",31,39,1,1,130,3,2,0,2,1.32112646312815,1.37389883138207
"1331",31,39,1,1,131,3,1,1,3,0.761306328462385,0.765964695841488
"1332",31,26,1,2,132,3,1,0,2,1.0632809761058,1.09214570654614
"1333",31,23,1,2,133,1,2,1,5,0.23869431689917,0.265869212696509
"1334",31,36,1,2,134,2,1,0,3,0.874773116704434,0.916285251313067
"1335",31,21,1,2,135,2,2,1,4,0.550899426399354,0.603271365926952
"1336",31,32,1,1,136,1,1,1,4,0.404235838517357,0.394669051812455
"1337",31,23,1,1,137,1,1,1,4,0.239031726099919,0.259857457573975
"1338",31,33,1,2,138,1,1,0,4,0.499909140156346,0.436692186389093
"1339",31,40,1,1,139,3,2,0,2,0.917537044009661,0.93624305380183
"1340",31,39,1,1,140,2,1,1,4,0.598086301786254,0.582099221384336
"1341",31,39,1,1,141,2,2,0,3,0.642299899429402,0.661360475705509
"1342",31,26,1,1,142,2,2,0,3,0.8180418841086,0.854996247483519
"1343",31,23,1,2,143,2,2,1,3,0.539436411025041,0.584039042067254
"1344",31,36,1,2,144,2,1,0,2,0.8769175324086,0.786348846852043
"1345",31,21,1,2,145,2,1,0,3,0.843081861094626,0.750863743231429
"1346",31,32,1,2,146,1,2,1,4,0.35805701820845,0.369973989746283
"1347",31,23,1,1,147,3,1,1,2,0.724153349693243,0.802672842393035
"1348",31,33,1,2,148,3,2,1,2,0.965803082535713,0.967475933173147
"1349",31,40,1,2,149,3,1,0,1,0.963343026397482,0.923190716022473
"1350",31,39,1,1,150,3,2,0,1,0.893692659302299,0.948216616356068
"1351",31,39,1,2,151,2,1,0,2,0.610546442269559,0.616209506751444
"1352",31,26,1,2,152,2,1,0,2,0.490684363931611,0.481002882141509
"1353",31,23,1,2,153,2,2,1,3,0.653432694582093,0.684604100204126
"1354",31,36,1,1,154,2,1,1,4,0.559057475558448,0.485662721060448
"1355",31,21,1,1,155,3,1,1,2,0.774281452307584,0.73803211499207
"1356",31,32,1,2,156,1,2,1,5,0.433748383199507,0.407678368771361
"1357",31,23,1,2,157,1,2,1,5,0.444918554434946,0.463207853438725
"1358",31,33,1,1,158,2,2,0,2,0.701252977280841,0.711076851506183
"1359",31,40,1,2,159,3,2,1,2,0.573921217177237,0.628600971641108
"1360",31,39,1,1,160,2,1,1,4,0.666030077911418,0.636229946327911
"1361",31,39,1,1,161,3,1,1,3,0.977738606974924,0.982275506864893
"1362",31,26,1,1,162,1,1,1,4,0.428157984628052,0.450441784827498
"1363",31,23,1,1,163,1,1,1,5,0.423456259578962,0.534997094473603
"1364",31,36,1,1,164,1,1,1,5,0.416667540885447,0.39419744588754
"1365",31,21,1,2,165,2,2,1,4,0.614579556171519,0.681288470347953
"1366",31,32,1,1,166,1,1,1,4,0.337291350952985,0.356249211744786
"1367",31,23,1,1,167,1,1,1,5,0.376990609894456,0.42445590740656
"1368",31,33,1,1,168,3,1,1,2,0.543954535501463,0.550605703598984
"1369",31,40,1,1,169,3,1,1,3,0.995444641336949,1.0224390225652
"1370",31,39,1,2,170,3,1,0,2,1.16998107690175,1.12453641755638
"1371",31,39,1,2,171,1,1,0,4,0.648969532402478,0.523402822748776
"1372",31,26,1,1,172,3,1,1,3,0.462539132988461,0.386921573804915
"1373",31,23,1,1,173,1,1,1,4,0.331302861488874,0.340412674936204
"1374",31,36,1,2,174,2,2,1,4,0.562405138565129,0.548485070320453
"1375",31,21,1,2,175,1,2,1,4,0.333264201346561,0.380030034364562
"1376",31,32,1,1,176,3,2,0,2,0.718132250237826,0.733657852976457
"1377",31,23,1,2,177,2,1,0,3,0.804257695591346,0.769666335712724
"1378",31,33,1,1,178,2,2,0,3,0.655086625500217,0.684364131452522
"1379",31,40,1,1,179,1,2,0,3,0.370126213670316,0.412019455903802
"1380",31,39,1,2,180,2,1,0,2,0.820221735324043,0.81252330722192
"1381",31,39,1,1,181,1,1,1,4,0.262735407294395,0.308883930729435
"1382",31,26,1,2,182,1,2,1,4,0.284642065077952,0.188046399527471
"1383",31,23,1,2,183,3,1,0,1,1.23974630056173,1.2492176993633
"1384",31,36,1,1,184,2,1,1,3,0.486939629062881,0.561578777749348
"1385",31,21,1,1,185,1,1,1,5,0.455591002540754,0.492723435682763
"1386",31,32,1,2,186,1,2,1,4,0.348985192841774,0.329791407180961
"1387",31,23,1,2,187,3,1,0,1,0.686199598644415,0.731441449713343
"1388",31,33,1,1,188,2,1,1,4,0.48032566889748,0.525110880305156
"1389",31,40,1,1,189,3,2,0,2,0.626578145091143,0.639890885277117
"1390",31,39,1,1,190,1,2,0,3,0.446281600858442,0.417044304149257
"1391",31,39,1,1,191,3,2,0,2,0.955459036530006,1.01333382925917
"1392",31,26,1,2,192,1,2,1,4,0.394647145656911,0.417781339377396
"1393",31,23,1,2,193,3,1,0,2,0.776444562804023,0.751795787215389
"1394",31,36,1,1,194,3,2,0,2,1.26002952545691,1.22571980445585
"1395",31,21,1,2,195,1,2,1,5,0.479071123866664,0.437815733533677
"1396",31,32,1,1,196,1,2,0,4,0.45221149301371,0.439133201918358
"1397",31,23,1,1,197,1,1,1,5,0.333963739591146,0.369371452448125
"1398",31,33,1,2,198,1,2,1,4,0.47606907920322,0.464296362308123
"1399",31,40,1,2,199,1,2,1,5,0.291112912404434,0.314981319729849
"1400",31,39,1,1,200,1,2,0,4,0.498273031280803,0.563660391841247
"1401",31,39,1,2,201,3,1,0,1,0.516155640569589,0.514529624683656
"1402",31,26,1,1,202,1,1,1,4,0.472447916381614,0.493144684538711
"1403",31,23,1,1,203,2,2,0,3,0.744747705242744,0.755613361131147
"1404",31,36,1,2,204,2,2,1,4,0.705182340625006,0.747106154801967
"1405",31,21,1,2,205,2,2,1,4,0.746241592585556,0.71544609993289
"1406",31,32,1,1,206,2,2,0,3,0.951592907028505,0.942081138148577
"1407",31,23,1,1,207,3,2,0,1,1.08246456729327,1.06472119495492
"1408",31,33,1,2,208,3,2,1,2,0.111280259848902,0.149804018461648
"1409",31,40,1,1,209,2,1,1,4,0.575626863255834,0.540078267201136
"1410",31,39,1,2,210,3,2,1,3,0.698826787593481,0.72055619069181
"1411",31,39,1,1,211,3,2,0,2,0.576826797207359,0.623250099687565
"1412",31,26,1,2,212,1,1,0,4,0.495986586907067,0.552633157781378
"1413",31,23,1,2,213,3,2,1,3,1.00726858639389,0.95974208094211
"1414",31,36,1,2,214,3,1,0,1,1.24247367912291,1.29145210244299
"1415",31,21,1,2,215,2,1,0,3,0.711019884261413,0.646802736910976
"1416",31,32,1,2,216,2,2,1,3,0.542900391136242,0.55197703003798
"1417",31,23,1,1,217,1,1,1,4,0.211306620872656,0.292738532152649
"1418",31,33,1,1,218,3,1,1,2,1.13395721787659,1.12368651097536
"1419",31,40,1,2,219,3,1,0,2,0.718435210256801,0.686464018446402
"1420",31,39,1,1,220,3,1,1,3,0.728284909389658,0.737245952036429
"1421",31,39,1,1,221,2,2,0,3,0.401696623517265,0.435109184238597
"1422",31,26,1,2,222,2,1,0,3,0.684482261207969,0.577829231187302
"1423",31,23,1,1,223,3,2,0,1,1.0779709016561,1.0843167439805
"1424",31,36,1,1,224,1,1,1,4,0.306571528507474,0.364075302312358
"1425",31,21,1,2,225,1,2,1,4,0.442969702751011,0.424146611855051
"1426",31,32,1,2,226,3,1,0,2,0.741968701079607,0.717420419121508
"1427",31,23,1,1,227,1,1,1,5,0.532887062370023,0.44071144764374
"1428",31,33,1,2,228,2,1,0,2,0.898332630734967,0.906234398073821
"1429",31,40,1,2,229,1,2,1,5,0.562274177177982,0.564274603068788
"1430",31,39,1,2,230,3,1,0,1,1.03188365741958,1.03154923403827
"1431",31,39,1,1,231,3,1,1,3,0.957567142817633,0.959731038008573
"1432",31,26,1,1,232,2,1,1,3,0.678173693607231,0.738659439198852
"1433",31,23,1,2,233,2,2,1,3,0.732467075239394,0.723618130753811
"1434",31,36,1,2,234,2,2,1,4,0.645904180933872,0.571364950581892
"1435",31,21,1,2,235,2,1,0,3,0.821195167769943,0.823567896955196
"1436",31,32,1,1,236,2,1,1,3,0.607001537646458,0.577199850053765
"1437",31,23,1,1,237,3,2,0,2,0.767508205338557,0.687229319533066
"1438",31,33,1,2,238,1,1,0,3,0.348424254767741,0.285153659037033
"1439",31,40,1,1,239,3,1,1,2,0.70404829863511,0.719235521611013
"1440",31,39,1,1,240,1,1,1,4,0.298061376091442,0.307365595259592
"1441",30,33,2,1,1,2,2,0,2,0.727858766188425,0.761275605921261
"1442",30,34,2,1,2,3,2,0,2,1.48397929116957,1.50585086637306
"1443",30,27,2,2,3,1,2,1,5,0.523575857031506,0.477948649077708
"1444",30,20,2,2,4,3,1,0,1,1.26504795580157,1.27914098660242
"1445",30,18,2,2,5,3,1,0,1,1.70212307089747,1.6355243753274
"1446",30,18,2,2,6,2,2,1,3,0.630659920614686,0.729145270781512
"1447",30,37,2,1,7,1,1,1,4,0.268960215624396,0.1387770314374
"1448",30,28,2,2,8,1,2,1,5,0.478085675113666,0.413926137522448
"1449",30,26,2,2,9,1,2,1,5,0.326910135781256,0.366737657767244
"1450",30,21,2,1,10,3,1,1,2,0.759800329153404,0.718775580630754
"1451",30,33,2,1,11,1,1,1,4,0.360050442094358,0.191054138105676
"1452",30,34,2,1,12,1,1,1,4,0.347035900607325,0.425631747327213
"1453",30,27,2,2,13,1,2,1,4,0.32410887814543,0.291858701342158
"1454",30,20,2,2,14,1,2,1,5,0.252007812257521,0.199197407473179
"1455",30,18,2,2,15,1,2,1,4,0.470894486853069,0.519560318997932
"1456",30,18,2,2,16,2,1,0,3,0.707336624464473,0.665355560051531
"1457",30,37,2,1,17,3,1,1,2,1.00042274324816,1.02369281313092
"1458",30,28,2,1,18,2,1,1,4,0.612341167954418,0.608522989208855
"1459",30,26,2,2,19,1,2,1,5,0.405362245189961,0.458937245624103
"1460",30,21,2,2,20,2,2,1,4,0.781084449309112,0.794340166351435
"1461",30,33,2,1,21,3,1,1,2,0.888221012518438,0.877860277921932
"1462",30,34,2,1,22,2,2,0,2,0.855282696081123,0.862284580881085
"1463",30,27,2,1,23,1,1,1,5,0.361332230269072,0.335373823053151
"1464",30,20,2,1,24,3,2,0,2,1.04591287541593,1.06947942362252
"1465",30,18,2,1,25,2,1,1,3,0.83499328056424,0.832716328673495
"1466",30,18,2,2,26,3,1,0,2,1.08984137599612,0.992700685404726
"1467",30,37,2,2,27,2,1,0,3,0.603145512583453,0.556437076504927
"1468",30,28,2,2,28,1,2,1,5,0.300422705792418,0.292009151409761
"1469",30,26,2,2,29,2,1,0,2,0.650002997284921,0.680153463461004
"1470",30,21,2,2,30,1,2,1,4,0.314757975338155,0.378194942126842
"1471",30,33,2,2,31,1,2,1,4,0.465330858763247,0.462942165904599
"1472",30,34,2,2,32,3,2,1,3,0.874807317768356,0.789465906803686
"1473",30,27,2,1,33,3,2,0,2,1.24127693132033,1.26138419519787
"1474",30,20,2,1,34,2,2,0,3,0.528149303746894,0.516486737894061
"1475",30,18,2,2,35,2,2,1,4,0.73316523742862,0.748024939071181
"1476",30,18,2,2,36,1,2,1,5,0.451379464459355,0.431371553563354
"1477",30,37,2,1,37,3,1,1,3,0.80844654174609,0.778227471495374
"1478",30,28,2,1,38,1,1,1,4,0.410315249361329,0.362525327982417
"1479",30,26,2,2,39,2,1,0,2,0.615845509172086,0.594187783877099
"1480",30,21,2,2,40,2,1,0,2,0.96634446628685,1.00375013275243
"1481",30,33,2,1,41,2,1,1,3,0.839361732686242,0.910860305282014
"1482",30,34,2,1,42,3,1,1,3,0.980147786325011,0.998448898684731
"1483",30,27,2,1,43,1,1,1,4,0.478871481839813,0.483522690804471
"1484",30,20,2,1,44,3,2,0,1,0.994049786487619,0.934514002362543
"1485",30,18,2,1,45,3,2,0,2,0.992836335213123,1.00961724167239
"1486",30,18,2,1,46,2,1,1,3,0.701548349486478,0.630917245601956
"1487",30,37,2,2,47,3,1,0,2,1.14994961127324,1.12780830980663
"1488",30,28,2,1,48,2,2,0,2,0.621025776901127,0.512991884459901
"1489",30,26,2,1,49,2,1,1,4,0.511604137724059,0.480364428039718
"1490",30,21,2,2,50,2,1,0,3,0.668298685518681,0.674140953490527
"1491",30,33,2,1,51,1,1,1,5,0.372196941644749,0.432914348193998
"1492",30,34,2,2,52,2,2,1,4,0.525383390429834,0.622925109938461
"1493",30,27,2,1,53,2,1,1,3,0.836061086830987,0.896517759339667
"1494",30,20,2,1,54,1,1,1,4,0.353656848813853,0.215013246085907
"1495",30,18,2,1,55,2,1,1,4,0.653368453371115,0.729282423820214
"1496",30,18,2,1,56,2,1,1,4,0.710821589627131,0.658984867989401
"1497",30,37,2,2,57,3,1,0,2,1.05158715032718,1.12600521038384
"1498",30,28,2,1,58,1,1,1,5,0.38281672987436,0.425923288620574
"1499",30,26,2,2,59,3,2,1,2,0.860565740049099,0.790648783095118
"1500",30,21,2,2,60,2,1,0,3,0.634319592198023,0.683151190729854
"1501",30,33,2,1,61,1,1,1,5,0.410771979183895,0.435852969517334
"1502",30,34,2,2,62,3,2,1,2,1.17734071784382,1.22303038887716
"1503",30,27,2,1,63,3,1,1,2,0.956378030206296,0.955182591272224
"1504",30,20,2,2,64,3,1,0,1,1.00263087498447,1.01670082299444
"1505",30,18,2,2,65,1,2,1,5,0.383113263176902,0.370616775831822
"1506",30,18,2,1,66,3,1,1,3,0.792157054093256,0.887288950485115
"1507",30,37,2,1,67,1,1,1,5,0.397054931840874,0.38114954921611
"1508",30,28,2,2,68,3,2,1,3,0.680131860475445,0.644717293664027
"1509",30,26,2,2,69,1,2,1,5,0.394021207129453,0.350570564657684
"1510",30,21,2,2,70,2,1,0,2,0.676378275084862,0.739086906200181
"1511",30,33,2,2,71,2,2,1,4,0.51910864851843,0.547490177245973
"1512",30,34,2,2,72,3,1,0,1,0.951153737087458,0.888227902621516
"1513",30,27,2,2,73,2,2,1,4,0.621475588454695,0.621383816723972
"1514",30,20,2,2,74,2,1,0,2,0.673586570754657,0.630849981241007
"1515",30,18,2,2,75,2,1,0,2,0.704430933790293,0.651897138265324
"1516",30,18,2,1,76,1,1,1,5,0.19172291051711,0.141511653828338
"1517",30,37,2,2,77,3,2,1,2,0.742681009426022,0.740292409608593
"1518",30,28,2,1,78,2,1,1,3,0.540489389667198,0.504564386844374
"1519",30,26,2,2,79,3,1,0,1,0.979355277326524,1.00030754043619
"1520",30,21,2,2,80,3,1,0,2,0.921881600101019,0.879102617270598
"1521",30,33,2,2,81,2,2,1,3,0.69218890830271,0.832325483531822
"1522",30,34,2,1,82,1,1,1,5,0.347279310873754,0.355241741568474
"1523",30,27,2,2,83,1,1,0,3,0.800001036036942,0.797288147054703
"1524",30,20,2,2,84,3,2,1,2,0.736389124294314,0.714835183025645
"1525",30,18,2,1,85,2,2,0,2,0.7378097057445,0.790611187098621
"1526",30,18,2,1,86,2,1,1,4,0.678054653045776,0.706179558909851
"1527",30,37,2,2,87,3,2,1,2,1.00378922854669,0.980197973082524
"1528",30,28,2,2,88,1,2,1,5,0.632229635164744,0.749515834190398
"1529",30,26,2,2,89,3,2,1,2,1.09860792562632,1.04122053650308
"1530",30,21,2,2,90,2,2,1,4,0.544118508785659,0.582348752448197
"1531",30,33,2,1,91,1,1,1,4,0.384739943691529,0.390479897804231
"1532",30,34,2,1,92,1,1,1,5,0.473906230548919,0.439928789166652
"1533",30,27,2,2,93,2,1,0,3,0.75247442661175,0.717996837249805
"1534",30,20,2,1,94,1,1,1,5,0.408143389316739,0.322066002890776
"1535",30,18,2,1,95,2,1,1,3,0.67030834227171,0.619057562261817
"1536",30,18,2,1,96,3,2,0,2,0.432603773488633,0.404036568993687
"1537",30,37,2,1,97,2,2,0,2,0.679438533840509,0.60323774671245
"1538",30,28,2,1,98,3,2,0,2,0.575897580348443,0.648190582732307
"1539",30,26,2,1,99,2,1,1,3,0.524845205269873,0.463233666653144
"1540",30,21,2,1,100,2,1,1,4,0.622969503890827,0.679654621927518
"1541",30,33,2,1,101,2,1,1,4,0.485400807537028,0.502909198500655
"1542",30,34,2,1,102,2,1,1,3,0.855571676780641,0.81538510818653
"1543",30,27,2,1,103,3,1,1,3,0.957305972363378,1.06129834519771
"1544",30,20,2,2,104,2,2,1,3,0.813565305142781,0.796763488325363
"1545",30,18,2,2,105,2,2,1,3,0.518194755419521,0.508894108605005
"1546",30,18,2,1,106,1,1,1,5,0.35690406055887,0.321395415443645
"1547",30,37,2,1,107,3,2,0,2,1.13993559710891,1.23468628406374
"1548",30,28,2,2,108,1,2,1,4,0.411434908278965,0.360433457791005
"1549",30,26,2,1,109,1,1,1,4,0.439312812322247,0.469721093284184
"1550",30,21,2,2,110,2,1,0,2,0.629862918088198,0.656649250078678
"1551",30,33,2,1,111,1,1,1,4,0.259569268931678,0.274165378013937
"1552",30,34,2,2,112,3,2,1,2,0.862538042336041,0.898492643680293
"1553",30,27,2,2,113,1,2,1,4,0.300958344467846,0.328057795475659
"1554",30,20,2,1,114,3,1,1,3,0.826974732458428,0.83334874088482
"1555",30,18,2,1,115,2,1,1,4,0.455009847303328,0.419170230826833
"1556",30,18,2,1,116,2,2,0,2,0.723309554762283,0.713017859273903
"1557",30,37,2,2,117,1,1,0,4,0.45212475439985,0.469894752845352
"1558",30,28,2,1,118,3,2,0,2,0.060583248551265,0.0885745027399142
"1559",30,26,2,2,119,1,2,1,4,0.369769357521156,0.389802150138696
"1560",30,21,2,1,120,2,2,0,3,0.875008289886322,0.846293605703833
"1561",30,33,2,1,121,1,2,0,3,0.636916583834775,0.67900142466708
"1562",30,34,2,1,122,1,1,1,5,0.358819821658244,0.373328615294419
"1563",30,27,2,1,123,2,2,0,2,0.906201183511469,0.86983722453358
"1564",30,20,2,2,124,2,2,1,3,0.949647682993134,0.891811147763215
"1565",30,18,2,2,125,2,1,0,2,0.809663557351965,0.83056935220733
"1566",30,18,2,2,126,2,2,1,3,0.744525835895752,0.775545441306739
"1567",30,37,2,2,127,2,1,0,2,0.758096266950657,0.668252743123768
"1568",30,28,2,1,128,2,1,1,3,0.589429492339733,0.64745581030822
"1569",30,26,2,1,129,1,2,0,3,0.607580242974765,0.604337501481799
"1570",30,21,2,1,130,1,1,1,5,0.413271302077946,0.395316067845205
"1571",30,33,2,2,131,2,2,1,3,0.309722519127304,0.261521835854097
"1572",30,34,2,1,132,2,1,1,3,0.352596391936357,0.346518347943642
"1573",30,27,2,2,133,3,2,1,3,0.874261627357226,0.855533915075288
"1574",30,20,2,2,134,1,1,0,3,0.524090214338543,0.464762424311257
"1575",30,18,2,2,135,3,2,1,2,0.949921710452155,0.999516920734706
"1576",30,18,2,1,136,3,2,0,2,1.45585677684205,1.3818523923018
