"","subj_no","age","group","stim","trial","difficulty","resp","corr","conf","RT_day1","RT_day2"
"1",37,37,1,1,1,1,2,0,4,0.535689363047999,0.587531809689706
"2",37,30,1,1,2,3,1,1,2,0.866974064852549,0.968221016217616
"3",37,22,1,2,3,2,2,1,3,0.630141976036159,0.669629805442774
"4",37,34,1,2,4,2,1,0,3,0.734317163301792,0.771647907059175
"5",37,25,1,1,5,3,2,0,1,1.09471655207592,1.09420923184316
"6",37,31,1,2,6,3,1,0,1,1.26339427376859,1.28542704386576
"7",37,32,1,1,7,2,2,0,2,0.548845835206557,0.576709220346146
"8",37,27,1,2,8,1,2,1,5,0.345619657026066,0.357676548634417
"9",37,24,1,2,9,2,2,1,4,0.515530533582872,0.537217135687749
"10",37,32,1,1,10,1,2,0,3,0.454102937103909,0.536648904242083
"11",37,37,1,2,11,3,1,0,2,0.735271805085009,0.682106068124555
"12",37,30,1,2,12,3,2,1,2,0.80372625677469,0.879217628783562
"13",37,22,1,2,13,1,1,0,3,0.430436331322993,0.470125117325301
"14",37,34,1,1,14,1,1,1,5,0.197035815321929,0.296267578204391
"15",37,25,1,1,15,3,1,1,2,0.691538439170556,0.709555402174851
"16",37,31,1,2,16,2,1,0,3,0.854776273693643,0.838825334242443
"17",37,32,1,2,17,3,1,0,2,0.996240954731658,1.10350753801817
"18",37,27,1,1,18,2,1,1,3,0.466810505674536,0.435829213586041
"19",37,24,1,1,19,2,1,1,3,0.596888669686041,0.625723279524308
"20",37,32,1,2,20,1,1,0,4,0.449703052380777,0.348515362395163
"21",37,37,1,2,21,2,2,1,3,0.603377132363835,0.575214924993185
"22",37,30,1,2,22,3,2,1,2,0.578355046177074,0.568679908189904
"23",37,22,1,1,23,3,2,0,2,0.581163638104702,0.599224243510925
"24",37,34,1,2,24,2,1,0,2,0.584355682828795,0.660397946322924
"25",37,25,1,1,25,1,1,1,5,0.318588752575343,0.393810503843244
"26",37,31,1,1,26,3,2,0,1,0.862360427882105,0.96917559620381
"27",37,32,1,2,27,2,2,1,4,0.641328942703006,0.686883807722571
"28",37,27,1,1,28,2,2,0,2,0.786338812992039,0.833896735563877
"29",37,24,1,1,29,1,2,0,4,0.482227700988103,0.449634293379352
"30",37,32,1,2,30,3,1,0,1,1.67363935079056,1.63230070391116
"31",37,37,1,1,31,1,1,1,5,0.453422782608249,0.424702215650884
"32",37,30,1,2,32,1,2,1,4,0.434277754763535,0.451653815742923
"33",37,22,1,2,33,2,1,0,3,0.566618412652843,0.495812919187365
"34",37,34,1,1,34,1,2,0,3,0.667949405405269,0.784890589907882
"35",37,25,1,1,35,2,1,1,3,0.820683398263492,0.824869803244049
"36",37,31,1,1,36,2,1,1,4,0.62241142671747,0.704617322066876
"37",37,32,1,1,37,3,1,1,2,1.16319153064409,1.187038663978
"38",37,27,1,2,38,1,2,1,5,0.486936105678701,0.534308399401346
"39",37,24,1,1,39,1,2,0,3,0.52399576874716,0.513146180903236
"40",37,32,1,2,40,2,2,1,3,0.71025330756343,0.772098327161953
"41",37,37,1,1,41,1,1,1,4,0.371967847166467,0.416110567255705
"42",37,30,1,2,42,2,2,1,3,0.69282032410012,0.734400017846357
"43",37,22,1,1,43,1,1,1,5,0.478862115185337,0.392681973303958
"44",37,34,1,2,44,3,2,1,2,0.750173478788268,0.740916628634354
"45",37,25,1,2,45,1,2,1,5,0.36897580101013,0.363313200507391
"46",37,31,1,1,46,3,2,0,2,0.697583364344715,0.624358508617237
"47",37,32,1,2,47,1,2,1,4,0.335233175743462,0.338352095382719
"48",37,27,1,1,48,3,1,1,2,0.608653959305385,0.605665855541599
"49",37,24,1,2,49,3,2,1,2,1.06004176042569,1.08558087670701
"50",37,32,1,2,50,1,2,1,5,0.60130731224041,0.5945376458706
"51",37,37,1,2,51,3,2,1,3,1.13034841157696,1.11185775012843
"52",37,30,1,2,52,2,2,1,4,0.702531772807055,0.714560592021279
"53",37,22,1,1,53,1,1,1,5,0.519009300971163,0.46636016669287
"54",37,34,1,2,54,2,2,1,4,0.637249405223738,0.62239042813151
"55",37,25,1,2,55,3,1,0,1,0.798774324026769,0.819872162248711
"56",37,31,1,2,56,2,2,1,4,0.647508377156716,0.468661964836123
"57",37,32,1,2,57,3,2,1,2,0.809240182962995,0.725353256570278
"58",37,27,1,1,58,3,1,1,2,0.628268904805837,0.574148423065754
"59",37,24,1,2,59,1,2,1,5,0.297419354112018,0.336077213563575
"60",37,32,1,1,60,3,1,1,2,1.01840377405811,1.05900093974443
"61",37,37,1,1,61,2,1,1,3,0.644888321148661,0.63165477229848
"62",37,30,1,2,62,1,1,0,3,0.397936880070274,0.386395173495468
"63",37,22,1,2,63,3,2,1,3,1.03969521338697,1.06116723638023
"64",37,34,1,1,64,1,1,1,4,0.473824886535866,0.508079638964181
"65",37,25,1,2,65,1,2,1,4,0.373451728613897,0.281618955333682
"66",37,31,1,2,66,3,2,1,2,0.586847955952889,0.551756308109633
"67",37,32,1,2,67,2,1,0,2,0.574922801661923,0.516231459017944
"68",37,27,1,2,68,3,1,0,2,1.24607478274113,1.25115091244004
"69",37,24,1,1,69,3,2,0,2,0.812382471869141,0.799109044111622
"70",37,32,1,2,70,1,1,0,3,0.61668058086035,0.588949749255723
"71",37,37,1,1,71,1,1,1,4,0.312059894364149,0.23045520632917
"72",37,30,1,2,72,3,1,0,2,0.501316016958032,0.578756541655392
"73",37,22,1,2,73,2,1,0,3,0.762887190122156,0.713504987451684
"74",37,34,1,1,74,2,1,1,3,0.535383098091451,0.500180981718365
"75",37,25,1,2,75,1,2,1,4,0.370573418433255,0.344751230906847
"76",37,31,1,2,76,1,2,1,4,0.244689418314046,0.28313236441783
"77",37,32,1,1,77,3,2,0,2,1.13085328806805,1.08709908538023
"78",37,27,1,2,78,2,2,1,4,0.496688726860291,0.542933149011321
"79",37,24,1,1,79,3,2,0,2,0.60220440205498,0.616277926943163
"80",37,32,1,2,80,2,1,0,2,0.661587525106209,0.684136022033536
"81",37,37,1,1,81,3,1,1,3,0.429318361207479,0.416381872023814
"82",37,30,1,1,82,1,1,1,5,0.358264118873595,0.27728345068803
"83",37,22,1,1,83,3,2,0,1,0.846081669601324,0.826079858672761
"84",37,34,1,1,84,2,1,1,3,0.764754811865881,0.679664936348736
"85",37,25,1,1,85,2,2,0,3,0.73883670220326,0.74628115351015
"86",37,31,1,1,86,3,1,1,2,1.06059903578303,1.02621809570252
"87",37,32,1,2,87,2,2,1,4,0.604632363222522,0.553202297619787
"88",37,27,1,2,88,1,2,1,5,0.399047177791435,0.403979912688913
"89",37,24,1,2,89,2,2,1,4,0.461637130120512,0.387965934620267
"90",37,32,1,2,90,3,1,0,1,0.866058949610162,0.889395668468662
"91",37,37,1,1,91,3,1,1,3,1.00089710797708,0.95177504725868
"92",37,30,1,1,92,3,2,0,2,0.467094227466963,0.448600526509716
"93",37,22,1,2,93,2,2,1,3,0.750030718363302,0.776284924589739
"94",37,34,1,1,94,2,1,1,3,0.463995785386539,0.438408602910632
"95",37,25,1,2,95,1,2,1,5,0.342961836631616,0.294373967630774
"96",37,31,1,1,96,2,1,1,4,0.800588544786563,0.857709843044559
"97",37,32,1,2,97,3,1,0,1,0.649422028798224,0.633865630295116
"98",37,27,1,1,98,1,1,1,5,0.427069659472232,0.406922033698803
"99",37,24,1,2,99,3,1,0,1,0.621075592457833,0.68920631916436
"100",37,32,1,1,100,1,1,1,5,0.534724822438445,0.523157768587852
"101",37,37,1,1,101,2,2,0,2,0.671127559167707,0.641273446745151
"102",37,30,1,1,102,3,1,1,2,0.679777737609367,0.771549603852888
"103",37,22,1,1,103,3,2,0,2,0.825698886488711,0.785883192089233
"104",37,34,1,2,104,2,2,1,3,0.721063432030628,0.748141086405737
"105",37,25,1,1,105,1,1,1,5,0.347730893048544,0.312818667249126
"106",37,31,1,1,106,1,1,1,5,0.283592673110861,0.285382987152036
"107",37,32,1,1,107,1,1,1,5,0.544635631276349,0.622953224369995
"108",37,27,1,1,108,1,1,1,5,0.276512890317581,0.299699811272972
"109",37,24,1,2,109,1,2,1,5,0.375193453565202,0.356728246027508
"110",37,32,1,2,110,2,2,1,3,0.478531657775246,0.634338112708053
"111",37,37,1,2,111,3,2,1,2,0.814428764506078,0.771822478259719
"112",37,30,1,2,112,3,1,0,1,0.984595328020009,0.95506242277383
"113",37,22,1,2,113,2,2,1,3,0.556125084012508,0.494313751464182
"114",37,34,1,1,114,3,2,0,1,1.30747051098183,1.24690354116422
"115",37,25,1,2,115,1,2,1,5,0.428139787700153,0.413876552072366
"116",37,31,1,1,116,2,2,0,3,0.891696977502469,0.939609263834783
"117",37,32,1,2,117,1,1,0,4,0.556141624617925,0.699810655808753
"118",37,27,1,1,118,1,1,1,5,0.354498317675463,0.362039885588586
"119",37,24,1,2,119,1,1,0,4,0.399761780072803,0.445500769233476
"120",37,32,1,2,120,2,2,1,4,0.375813889279209,0.358982437719998
"121",37,37,1,2,121,1,1,0,3,0.584349866189951,0.544457128328082
"122",37,30,1,2,122,1,2,1,5,0.480307020920408,0.40575872951462
"123",37,22,1,1,123,1,1,1,5,0.322375079265364,0.316984944969074
"124",37,34,1,1,124,3,2,0,2,1.22900114292843,1.13513382097186
"125",37,25,1,2,125,2,2,1,3,0.650522183284781,0.640569264978831
"126",37,31,1,1,126,2,1,1,4,0.59692950190877,0.645529445489416
"127",37,32,1,2,127,2,2,1,4,0.664752766906823,0.668903091882078
"128",37,27,1,1,128,1,1,1,5,0.280303177377431,0.226832063713715
"129",37,24,1,2,129,1,1,0,3,0.398967567473609,0.35463308164801
"130",37,32,1,2,130,2,1,0,3,0.584800056389712,0.545833519223107
"131",37,37,1,2,131,2,2,1,3,0.608969257587454,0.565814916482051
"132",37,30,1,1,132,2,2,0,2,0.914241223894714,0.92940739739557
"133",37,22,1,1,133,1,2,0,4,0.325793106271552,0.448848587654295
"134",37,34,1,1,134,2,1,1,4,0.429153256562347,0.477697780018028
"135",37,25,1,2,135,1,1,0,4,0.553255540379412,0.564200915765313
"136",37,31,1,2,136,2,1,0,3,1.08569438565299,1.10757911647647
"137",37,32,1,2,137,2,1,0,3,0.850338740438168,0.824448732070885
"138",37,27,1,1,138,1,1,1,4,0.397459504597513,0.314600965481125
"139",37,24,1,2,139,1,2,1,5,0.446609113244986,0.459571658019758
"140",37,32,1,1,140,1,1,1,5,0.459916316201322,0.48758292098764
"141",37,37,1,2,141,3,2,1,3,0.834172069102087,0.757305350331326
"142",37,30,1,1,142,2,1,1,3,0.839128809391488,0.746572996128039
"143",37,22,1,2,143,2,2,1,3,0.559244374255638,0.576932794700191
"144",37,34,1,1,144,3,1,1,3,0.762137189634887,0.770683428903739
"145",37,25,1,1,145,2,2,0,3,1.05617273654784,1.10460829569033
"146",37,31,1,1,146,2,2,0,3,0.654209981070138,0.639999277999097
"147",37,32,1,1,147,2,1,1,4,0.691929552550057,0.737370147250633
"148",37,27,1,1,148,3,1,1,3,0.625259223337055,0.696464856101828
"149",37,24,1,1,149,3,2,0,1,0.82683940730954,0.793797427468339
"150",37,32,1,2,150,2,2,1,4,0.598397675328359,0.647447203462416
"151",37,37,1,1,151,3,1,1,2,0.818558950224187,0.801083040914166
"152",37,30,1,2,152,3,1,0,2,0.948654754435837,0.92154982236739
"153",37,22,1,2,153,3,1,0,1,1.32168883434551,1.38256438998686
"154",37,34,1,1,154,2,2,0,2,0.927851296152378,0.985286756453917
"155",37,25,1,1,155,3,1,1,3,0.791587718264644,0.756618192558904
"156",37,31,1,1,156,2,1,1,3,0.471077149927986,0.438877309339894
"157",37,32,1,2,157,2,2,1,3,0.606725230038449,0.571585620117898
"158",37,27,1,1,158,2,1,1,4,0.498211689653805,0.452157664762322
"159",37,24,1,2,159,1,1,0,3,0.61952722018329,0.629932675679692
"160",37,32,1,1,160,1,2,0,4,0.494130267804333,0.551892887295168
"161",37,37,1,2,161,3,1,0,2,0.447632055341797,0.512854147416958
"162",37,30,1,2,162,1,1,0,3,0.528534900916007,0.607832128600379
"163",37,22,1,2,163,1,2,1,4,0.45613724194928,0.505290567669427
"164",37,34,1,1,164,3,1,1,3,0.648523117433106,0.625583994161089
"165",37,25,1,2,165,1,1,0,3,0.439638634980526,0.511909590104021
"166",37,31,1,2,166,2,1,0,3,0.665911232939487,0.672031209615978
"167",37,32,1,1,167,1,1,1,5,0.394654064501868,0.33072001656807
"168",37,27,1,1,168,3,1,1,2,0.854639121782266,0.861367579484957
"169",37,24,1,1,169,1,1,1,5,0.400349692093666,0.415490389248908
"170",37,32,1,2,170,3,2,1,3,1.18912900472639,1.20786680660691
"171",37,37,1,2,171,1,2,1,4,0.370829522685924,0.313872927846419
"172",37,30,1,1,172,2,1,1,3,0.780803243298943,0.757618847158374
"173",37,22,1,1,173,2,1,1,4,0.810544878882852,0.888210649911842
"174",37,34,1,2,174,3,2,1,2,0.613991301720701,0.589147088003612
"175",37,25,1,1,175,2,1,1,4,0.713837024272648,0.703631296467806
"176",37,31,1,2,176,2,1,0,3,0.484026986148987,0.356910869917946
"177",37,32,1,1,177,2,2,0,3,0.629938680713501,0.677418437745052
"178",37,27,1,2,178,3,2,1,3,0.951471857958849,0.965458552617363
"179",37,24,1,1,179,1,1,1,4,0.40820340363223,0.47102507504515
"180",37,32,1,1,180,2,1,1,4,0.613458389092424,0.563472478381921
"181",37,37,1,2,181,3,2,1,2,0.75079990461457,0.805768220174514
"182",37,30,1,1,182,3,2,0,1,0.421380866552695,0.380504209916804
"183",37,22,1,2,183,3,2,1,2,0.744677017388219,0.73632125683284
"184",37,34,1,2,184,1,1,0,3,0.737796838188141,0.701383969540291
"185",37,25,1,2,185,2,1,0,3,0.441521770201325,0.461177609943148
"186",37,31,1,1,186,2,2,0,2,0.483613061308716,0.530589026787904
"187",37,32,1,1,187,1,1,1,4,0.541671209739176,0.63086044218034
"188",37,27,1,1,188,1,1,1,5,0.353062593415975,0.433185808338247
"189",37,24,1,2,189,1,1,0,3,0.525203759187547,0.509043206780032
"190",37,32,1,1,190,2,1,1,4,0.537298119538587,0.487097627955043
"191",37,37,1,1,191,1,1,1,5,0.260975948867698,0.235913456007193
"192",37,30,1,1,192,3,2,0,1,0.88545981278954,0.753384823086229
"193",37,22,1,1,193,1,1,1,4,0.349818372935538,0.363397462997229
"194",37,34,1,1,194,3,1,1,2,1.08495764903128,1.0811919611974
"195",37,25,1,2,195,3,2,1,2,0.928959713121908,0.98860915338744
"196",37,31,1,2,196,1,2,1,4,0.417642545795436,0.468479712446771
"197",37,32,1,2,197,3,2,1,2,0.567154107203999,0.586816462287122
"198",37,27,1,1,198,1,1,1,4,0.414377791183781,0.411981280853254
"199",37,24,1,1,199,1,1,1,5,0.237382984219054,0.306263496628636
"200",37,32,1,2,200,3,2,1,2,0.847325021505828,0.822609376081548
"201",37,37,1,2,201,3,1,0,2,0.920611406467795,0.985012110968883
"202",37,30,1,1,202,1,1,1,5,0.437526013032899,0.454856540559346
"203",37,22,1,1,203,3,1,1,3,0.79785243294567,0.793423993709336
"204",37,34,1,2,204,1,2,1,4,0.544105568759805,0.561981048601009
"205",37,25,1,2,205,3,1,0,1,0.855064861219109,0.794813353418596
"206",37,31,1,2,206,2,2,1,3,0.436720370715539,0.448744266005939
"207",37,32,1,2,207,3,1,0,1,0.58640767880392,0.629948483638662
"208",37,27,1,2,208,1,2,1,4,0.26145492183896,0.266377083469147
"209",37,24,1,1,209,1,1,1,4,0.475363729482271,0.511688195589851
"210",37,32,1,1,210,2,2,0,2,0.605682586177209,0.540769687814969
"211",37,37,1,2,211,1,2,1,4,0.314163132238985,0.352230940354134
"212",37,30,1,1,212,1,2,0,4,0.526953345194653,0.429622904495188
"213",37,22,1,2,213,3,1,0,2,0.707405309596392,0.673215917182171
"214",37,34,1,1,214,2,2,0,2,0.629173747024974,0.610633626752176
"215",37,25,1,1,215,3,2,0,2,1.13528532044792,1.15894092842244
"216",37,31,1,1,216,3,2,0,2,1.33298783579734,1.30631306160938
"217",37,32,1,1,217,2,2,0,2,0.498595881844928,0.444813369807068
"218",37,27,1,1,218,2,2,0,3,0.613327637521786,0.554036164686261
"219",37,24,1,1,219,3,2,0,2,0.57382759412022,0.627698756865722
"220",37,32,1,1,220,3,2,0,2,1.07184730008484,1.09570321091011
"221",37,37,1,2,221,2,1,0,3,0.454391021808057,0.370891242912042
"222",37,30,1,1,222,2,1,1,3,0.571503115405369,0.61014180697279
"223",37,22,1,1,223,1,1,1,5,0.273340987468704,0.279261115902263
"224",37,34,1,2,224,2,1,0,3,0.739255658763061,0.6739265077685
"225",37,25,1,1,225,1,1,1,4,0.517250161575583,0.466465694052746
"226",37,31,1,2,226,1,2,1,5,0.315598403177183,0.328604635029407
"227",37,32,1,2,227,3,1,0,2,1.25406046016979,1.1603968027718
"228",37,27,1,2,228,1,2,1,5,0.399732092193071,0.494924750614141
"229",37,24,1,2,229,3,2,1,2,0.800728922121372,0.825542805729389
"230",37,32,1,2,230,3,1,0,2,0.895482405397017,1.01383213351815
"231",37,37,1,2,231,2,2,1,4,0.566866363055318,0.584015958226787
"232",37,30,1,1,232,3,1,1,3,0.523001313253294,0.422373930178766
"233",37,22,1,1,233,1,2,0,4,0.7353315825044,0.758966651764338
"234",37,34,1,2,234,2,1,0,3,0.612027203783374,0.612316318953067
"235",37,25,1,1,235,3,2,0,1,0.586943817917839,0.536943312927101
"236",37,31,1,2,236,2,1,0,2,0.83344226322247,0.791164337500959
"237",37,32,1,1,237,2,1,1,3,0.476882144882218,0.471291872668349
"238",37,27,1,2,238,3,1,0,1,0.670405106057534,0.689539921754669
"239",37,24,1,1,239,2,1,1,3,0.706481538425465,0.772767869681631
"240",37,32,1,1,240,3,1,1,3,0.39586676669232,0.334735046770089
"241",36,26,2,2,1,3,1,0,2,1.44438219437467,1.45627016779736
"242",36,33,2,2,2,3,1,0,1,0.777333124763364,0.798847844666414
"243",36,36,2,1,3,1,1,1,5,0.417243950238109,0.43056000455663
"244",36,38,2,1,4,2,2,0,2,0.567783620258538,0.452490401001056
"245",36,20,2,1,5,3,1,1,2,0.880494515797074,0.843450425025079
"246",36,25,2,1,6,1,1,1,4,0.480484837805842,0.557545509207577
"247",36,30,2,1,7,2,1,1,4,0.458862633538872,0.483170624525699
"248",36,34,2,1,8,1,1,1,5,0.385329337826242,0.40405539848215
"249",36,25,2,1,9,1,1,1,4,0.459510219052626,0.528670540145022
"250",36,25,2,2,10,2,2,1,3,0.719898735411692,0.814259146446661
"251",36,26,2,1,11,1,1,1,4,0.441128196417968,0.372477616990056
"252",36,33,2,1,12,1,1,1,4,0.252670942400529,0.226785180374372
"253",36,36,2,2,13,3,1,0,2,1.0613762995301,1.04404554387967
"254",36,38,2,2,14,3,2,1,2,0.776993631339825,0.706993849314212
"255",36,20,2,2,15,1,2,1,4,0.373541743037525,0.412825913377479
"256",36,25,2,2,16,3,1,0,2,1.20172773654992,1.30281591378207
"257",36,30,2,1,17,2,2,0,2,0.54885833410904,0.555034325408523
"258",36,34,2,2,18,2,1,0,2,0.482383670320327,0.454619822937789
"259",36,25,2,2,19,1,2,1,5,0.435067986566422,0.481535524752707
"260",36,25,2,2,20,2,2,1,4,0.575591934494035,0.598034624579209
"261",36,26,2,1,21,1,1,1,5,0.544017690798884,0.511884262891749
"262",36,33,2,2,22,2,2,1,3,0.475395170104552,0.413931283336999
"263",36,36,2,1,23,1,1,1,4,0.420261350976578,0.359807626756099
"264",36,38,2,1,24,1,1,1,4,0.348421104025054,0.353891228155157
"265",36,20,2,1,25,3,1,1,3,0.906711942328336,0.913798105732556
"266",36,25,2,1,26,2,1,1,4,0.51978168207008,0.572063786626482
"267",36,30,2,2,27,3,1,0,2,1.07181730714709,1.08085646354044
"268",36,34,2,1,28,2,1,1,3,0.715156506390561,0.758542234651143
"269",36,25,2,2,29,1,2,1,4,0.595335845515656,0.593182691265215
"270",36,25,2,1,30,2,1,1,4,0.643636163029019,0.650938144835621
"271",36,26,2,1,31,3,2,0,1,0.821944521165,0.783348877974619
"272",36,33,2,1,32,3,1,1,3,0.828141095723054,0.853159747844978
"273",36,36,2,1,33,2,1,1,4,0.797102511332196,0.809129682079173
"274",36,38,2,2,34,2,2,1,3,0.709024911429861,0.786699537279401
"275",36,20,2,1,35,2,1,1,4,0.630579508923672,0.619683601137067
"276",36,25,2,2,36,1,2,1,4,0.378671838048699,0.267365056053582
"277",36,30,2,1,37,3,1,1,2,0.918526055919952,0.965886171277609
"278",36,34,2,2,38,1,2,1,4,0.386571753199309,0.438053551226207
"279",36,25,2,1,39,1,1,1,4,0.353021661939557,0.338153424418419
"280",36,25,2,1,40,3,1,1,2,0.96452190768864,0.964497400161362
"281",36,26,2,2,41,3,1,0,1,1.79667010242327,1.69751761772166
"282",36,33,2,1,42,1,1,1,5,0.469846142933704,0.495930459922831
"283",36,36,2,1,43,2,2,0,3,0.694675588618393,0.758879780210395
"284",36,38,2,1,44,3,2,0,2,0.523497285093137,0.454334495683032
"285",36,20,2,2,45,3,1,0,2,1.54678517631125,1.48600988411207
"286",36,25,2,2,46,1,2,1,4,0.305631176210326,0.276052352809312
"287",36,30,2,2,47,1,2,1,5,0.319127965043206,0.27487556166164
"288",36,34,2,1,48,1,2,0,4,0.679835501803549,0.649032998142658
"289",36,25,2,2,49,1,2,1,4,0.382381403964077,0.32511369224266
"290",36,25,2,2,50,3,2,1,3,0.648213647601458,0.697940984835191
"291",36,26,2,2,51,3,2,1,3,0.939840197741165,0.970847378385628
"292",36,33,2,1,52,2,1,1,4,0.560244230729796,0.575857789680724
"293",36,36,2,1,53,2,2,0,2,0.656165139518389,0.572310284479742
"294",36,38,2,1,54,2,2,0,2,0.789020692389765,0.730355400165924
"295",36,20,2,1,55,2,1,1,3,0.597038561417596,0.610529592821319
"296",36,25,2,2,56,1,2,1,4,0.362721398133562,0.218833509899469
"297",36,30,2,1,57,2,2,0,2,0.736139227523386,0.698496193095411
"298",36,34,2,2,58,2,1,0,3,0.730948662237973,0.725086225125689
"299",36,25,2,1,59,2,2,0,2,0.685072024248797,0.578917539639216
"300",36,25,2,1,60,2,1,1,4,0.383079049092827,0.429760931059213
"301",36,26,2,2,61,3,1,0,1,1.1248412767833,1.05979520300976
"302",36,33,2,2,62,2,1,0,2,0.854776957829709,0.895386995331475
"303",36,36,2,1,63,2,2,0,3,0.663118013100724,0.682362776751906
"304",36,38,2,1,64,2,2,0,3,0.648134670089033,0.638607037103295
"305",36,20,2,2,65,3,1,0,1,0.903368994304056,0.871519777557903
"306",36,25,2,2,66,2,1,0,2,0.861080631377576,0.853641329264505
"307",36,30,2,2,67,2,2,1,4,0.573141733907164,0.64144528729935
"308",36,34,2,2,68,3,2,1,3,0.948284494281626,0.93907967946515
"309",36,25,2,2,69,1,2,1,5,0.297495164856116,0.326249524569839
"310",36,25,2,1,70,3,2,0,2,0.694030386832948,0.617293717585273
"311",36,26,2,2,71,2,2,1,3,0.496500456145984,0.560735099056658
"312",36,33,2,2,72,1,1,0,3,0.430513817046191,0.376899320816322
"313",36,36,2,2,73,1,2,1,4,0.425241528823928,0.422884783784676
"314",36,38,2,2,74,3,1,0,1,1.43053318372868,1.49668741239012
"315",36,20,2,2,75,2,2,1,4,0.601296105037658,0.585404768960324
"316",36,25,2,1,76,2,1,1,4,0.58347328559465,0.525262698857065
"317",36,30,2,1,77,3,1,1,3,1.06698966463813,1.07668564885824
"318",36,34,2,2,78,2,2,1,3,0.531617814600574,0.563381334540871
"319",36,25,2,1,79,3,1,1,3,0.816336220067053,0.881245294165749
"320",36,25,2,2,80,2,2,1,3,0.555160411173569,0.492439092282049
"321",36,26,2,2,81,3,2,1,2,1.12469013298701,1.08478830404348
"322",36,33,2,1,82,3,2,0,2,0.813825071578967,0.746682607788029
"323",36,36,2,2,83,1,2,1,5,0.371671379888892,0.340024892026054
"324",36,38,2,2,84,3,2,1,2,0.491264929967653,0.428112934517699
"325",36,20,2,2,85,3,1,0,1,0.998872028078948,1.03320602653294
"326",36,25,2,2,86,1,2,1,5,0.361314490930342,0.40345105405517
"327",36,30,2,1,87,3,1,1,3,0.950871016451564,0.904367560143785
"328",36,34,2,2,88,1,2,1,4,0.365051991048666,0.269316721019671
"329",36,25,2,2,89,2,2,1,3,0.387602771704518,0.337240931212342
"330",36,25,2,2,90,1,2,1,4,0.439638492308576,0.417275877152356
"331",36,26,2,2,91,1,2,1,4,0.42632210033754,0.469759596629589
"332",36,33,2,1,92,3,1,1,3,0.606752508743525,0.579465198352524
"333",36,36,2,1,93,2,1,1,3,0.732914774774581,0.689201872356088
"334",36,38,2,2,94,3,2,1,2,0.605178691746936,0.588606205486019
"335",36,20,2,2,95,3,1,0,1,1.40981926689056,1.40206390179649
"336",36,25,2,1,96,3,2,0,2,1.18635116317813,1.2492854890813
"337",36,30,2,1,97,2,1,1,4,0.477874210905608,0.465540109497811
"338",36,34,2,1,98,3,2,0,2,0.901228145154839,0.859225365815224
"339",36,25,2,1,99,2,1,1,4,0.373084415196582,0.435611896845618
"340",36,25,2,2,100,2,1,0,3,0.719810864775701,0.636726507202261
"341",36,26,2,2,101,1,2,1,5,0.408836224301973,0.365940302188527
"342",36,33,2,2,102,2,2,1,3,0.681316967385798,0.607460207393794
"343",36,36,2,1,103,2,2,0,3,0.643183059792401,0.70878200239693
"344",36,38,2,2,104,3,1,0,2,1.49403837354226,1.54598121649648
"345",36,20,2,2,105,1,2,1,4,0.400114918729627,0.414873377660194
"346",36,25,2,2,106,2,1,0,2,0.561851175801438,0.475189395231613
"347",36,30,2,2,107,2,2,1,3,0.797279625982176,0.742032776423613
"348",36,34,2,2,108,3,1,0,2,1.11883203000331,1.14833873146963
"349",36,25,2,2,109,2,2,1,3,0.542726385630864,0.494514228589522
"350",36,25,2,1,110,2,1,1,3,0.791515016826866,0.75717069059318
"351",36,26,2,2,111,2,2,1,4,0.506738636433584,0.516744660687398
"352",36,33,2,2,112,1,2,1,4,0.589374919227204,0.601869089611111
"353",36,36,2,2,113,1,2,1,4,0.633105257892417,0.73121850796261
"354",36,38,2,1,114,3,1,1,2,0.72092919176752,0.811433739574811
"355",36,20,2,1,115,2,1,1,4,0.521730504225408,0.496404704377566
"356",36,25,2,2,116,2,2,1,3,0.702489932309847,0.724973769565256
"357",36,30,2,1,117,1,2,0,3,0.379044390384271,0.439757760396179
"358",36,34,2,1,118,3,1,1,2,0.708114193929769,0.768246166339814
"359",36,25,2,2,119,3,1,0,2,0.806070486187005,0.771281980687382
"360",36,25,2,2,120,2,2,1,4,0.708903022514335,0.77462674056617
"361",36,26,2,1,121,3,1,1,3,1.0417564239244,0.97402957219383
"362",36,33,2,2,122,2,2,1,4,0.680032796313848,0.762697730036341
"363",36,36,2,2,123,3,2,1,3,0.840354999535985,0.914842472309509
"364",36,38,2,1,124,1,1,1,4,0.435063041568246,0.465950413836197
"365",36,20,2,2,125,2,2,1,3,0.572608418062288,0.499766803540785
"366",36,25,2,2,126,2,1,0,2,0.72037890317778,0.628105355331554
"367",36,30,2,1,127,1,1,1,5,0.441163289990179,0.393058659949371
"368",36,34,2,1,128,3,2,0,1,0.565491253937888,0.623163437629611
"369",36,25,2,1,129,3,2,0,2,1.20886085386694,1.2736215087945
"370",36,25,2,1,130,2,2,0,2,0.929256031765244,0.960856053701667
"371",36,26,2,2,131,3,2,1,2,0.76775835144892,0.827779095440948
"372",36,33,2,2,132,1,2,1,5,0.263158832163554,0.296269004444347
"373",36,36,2,1,133,2,1,1,3,0.600409887387073,0.583530773534886
"374",36,38,2,1,134,1,1,1,5,0.429235667009976,0.478276243509761
"375",36,20,2,2,135,1,2,1,5,0.353491604092301,0.261366407158296
"376",36,25,2,2,136,2,2,1,3,0.507867564610759,0.568205163080487
"377",36,30,2,1,137,3,1,1,2,1.00236712902885,0.859327293115668
"378",36,34,2,2,138,2,1,0,2,0.625984169293256,0.721405265401734
"379",36,25,2,1,139,3,2,0,1,0.718214900685672,0.702937432886207
"380",36,25,2,2,140,2,1,0,3,0.61881561071324,0.610061755988173
"381",36,26,2,1,141,1,1,1,5,0.318647965480188,0.374069251684487
"382",36,33,2,2,142,1,2,1,4,0.358605953710711,0.330694559240325
"383",36,36,2,1,143,3,1,1,3,1.10191132235999,1.09395340411676
"384",36,38,2,2,144,1,2,1,4,0.447417454653032,0.400179816669332
"385",36,20,2,1,145,3,1,1,3,0.552218536135873,0.577725044419701
"386",36,25,2,1,146,2,1,1,3,0.657313173113384,0.646573559647744
"387",36,30,2,2,147,1,2,1,4,0.450718096858755,0.389117516962457
"388",36,34,2,1,148,3,2,0,2,0.917162942889837,0.952517684228832
"389",36,25,2,2,149,2,2,1,3,0.711228740513915,0.766627896529796
"390",36,25,2,2,150,2,2,1,3,0.492529597612614,0.411263729650639
"391",36,26,2,1,151,3,2,0,1,1.20065808346192,1.26159769300623
"392",36,33,2,2,152,1,1,0,3,0.408585001757756,0.411090352016961
"393",36,36,2,1,153,1,1,1,5,0.403613551969942,0.396290336349957
"394",36,38,2,1,154,2,1,1,3,0.407774745757082,0.380563733185413
"395",36,20,2,1,155,3,2,0,2,0.979984383856747,1.00282931614862
"396",36,25,2,1,156,1,1,1,5,0.533272046296592,0.557752942778443
"397",36,30,2,1,157,2,1,1,3,0.787955944654596,0.770417255885365
"398",36,34,2,2,158,1,2,1,4,0.408401916708039,0.461846668426925
"399",36,25,2,1,159,1,2,0,4,0.537829190495416,0.51030997212751
"400",36,25,2,2,160,3,2,1,2,0.787223168066571,0.794814694729102
"401",36,26,2,1,161,3,2,0,1,0.754320171657879,0.686913916368601
"402",36,33,2,1,162,1,1,1,4,0.338192375949098,0.398096930193476
"403",36,36,2,2,163,1,2,1,4,0.578120640083285,0.591777848575326
"404",36,38,2,1,164,2,1,1,3,0.522801417300243,0.518015282078304
"405",36,20,2,1,165,2,1,1,4,0.537222156470174,0.577129375635676
"406",36,25,2,1,166,3,1,1,2,0.989107935777019,0.997607159720692
"407",36,30,2,1,167,1,2,0,4,0.326958094719858,0.338639109668556
"408",36,34,2,2,168,3,1,0,1,1.37562999701248,1.44275166041768
"409",36,25,2,2,169,1,2,1,5,0.312938467634928,0.216945349046745
"410",36,25,2,1,170,3,2,0,2,0.98433136137784,1.00176656063221
"411",36,26,2,1,171,3,2,0,2,1.27937554735551,1.27261053711514
"412",36,33,2,2,172,1,2,1,5,0.498004824063483,0.492238233113122
"413",36,36,2,1,173,3,1,1,2,1.06172113494666,1.03781557925012
"414",36,38,2,1,174,2,1,1,4,0.441317605940013,0.443660131222379
"415",36,20,2,2,175,2,1,0,2,0.875299191569569,0.949941516931075
"416",36,25,2,2,176,1,2,1,4,0.266233219809936,0.223288029309355
"417",36,30,2,2,177,1,2,1,5,0.318685243172185,0.378561069944032
"418",36,34,2,1,178,2,1,1,4,0.585916283464324,0.647228315892972
"419",36,25,2,1,179,1,2,0,4,0.363352475276231,0.344899875171287
"420",36,25,2,2,180,3,1,0,1,1.00317709560753,1.05562186789445
"421",36,26,2,1,181,3,2,0,1,0.509340631069836,0.531645354813349
"422",36,33,2,1,182,2,1,1,4,0.665873412160373,0.656260431110417
"423",36,36,2,1,183,3,2,0,1,0.843840726707459,0.902915416262277
"424",36,38,2,1,184,3,1,1,2,0.786595305446762,0.82185135175386
"425",36,20,2,2,185,1,1,0,3,0.598101501829155,0.639356326944895
"426",36,25,2,1,186,1,1,1,5,0.364051980542178,0.300441073156929
"427",36,30,2,2,187,1,2,1,4,0.562235966326335,0.604485751404575
"428",36,34,2,2,188,3,1,0,1,1.14657512045671,1.14287590306187
"429",36,25,2,2,189,3,2,1,3,0.745614681763837,0.705499251708538
"430",36,25,2,2,190,1,2,1,5,0.366265691680681,0.396780118996565
"431",36,26,2,2,191,2,1,0,2,0.696223283567444,0.697326166362636
"432",36,33,2,1,192,3,1,1,2,0.918483063625128,0.971673867714023
"433",36,36,2,2,193,2,2,1,4,0.618318779293685,0.583619472537222
"434",36,38,2,1,194,1,1,1,4,0.440191560830309,0.410042082061485
"435",36,20,2,2,195,3,1,0,1,1.21230734128571,1.22522883950432
"436",36,25,2,1,196,2,1,1,3,0.487989680447466,0.477985226406916
"437",36,30,2,2,197,3,1,0,2,0.252279114091158,0.240802761668147
"438",36,34,2,2,198,3,2,1,3,1.04897413897877,0.946038372066697
"439",36,25,2,2,199,1,2,1,4,0.370987959181691,0.398617038845648
"440",36,25,2,2,200,3,1,0,1,0.481488851666814,0.504045545779618
"441",36,26,2,1,201,1,1,1,4,0.35976840066476,0.37502244740947
"442",36,33,2,2,202,3,2,1,2,1.00601054416315,1.02548599998702
"443",36,36,2,2,203,1,2,1,5,0.498519915965656,0.590535304604109
"444",36,38,2,1,204,3,1,1,3,0.739820811430696,0.725190644559021
"445",36,20,2,1,205,2,1,1,4,0.739360155827369,0.77380878373047
"446",36,25,2,1,206,3,1,1,2,0.817569041887754,0.808170282568882
"447",36,30,2,1,207,2,2,0,2,0.62295162088892,0.751859335516369
"448",36,34,2,2,208,2,2,1,3,0.223167111372211,0.157347924751544
"449",36,25,2,1,209,1,1,1,5,0.370468161451606,0.442675296804366
"450",36,25,2,1,210,3,2,0,2,1.34725513517565,1.42438843993956
"451",36,26,2,1,211,2,2,0,3,0.732684685244507,0.695483609547493
"452",36,33,2,1,212,1,2,0,3,0.467303588661881,0.476284632319552
"453",36,36,2,1,213,1,1,1,4,0.178095836985664,0.216072017160403
"454",36,38,2,1,214,1,2,0,4,0.550888977956984,0.576909769050549
"455",36,20,2,1,215,2,1,1,3,0.339512914904851,0.316144879967846
"456",36,25,2,2,216,1,2,1,4,0.381916148466058,0.34894588449987
"457",36,30,2,2,217,1,2,1,4,0.388429602206146,0.389354662500437
"458",36,34,2,1,218,3,2,0,1,1.20174735985187,1.24587743357853
"459",36,25,2,2,219,2,2,1,3,0.566382069365121,0.645553863838856
"460",36,25,2,2,220,1,1,0,4,0.533314086205229,0.496908006567863
"461",36,26,2,1,221,2,1,1,3,0.564542749958929,0.569155823635209
"462",36,33,2,1,222,2,1,1,3,0.386660673505462,0.429917137341515
"463",36,36,2,1,223,1,2,0,3,0.572491606900743,0.640582322414635
"464",36,38,2,1,224,3,1,1,2,0.855581303327229,0.844768645683358
"465",36,20,2,2,225,2,1,0,2,0.518163920011862,0.434907918609489
"466",36,25,2,2,226,1,1,0,3,0.479825819552925,0.543494745461345
"467",36,30,2,1,227,1,1,1,5,0.452076440135513,0.46125431560426
"468",36,34,2,2,228,1,2,1,4,0.358213783788231,0.401749562576505
"469",36,25,2,2,229,3,2,1,2,0.817433261363325,0.845292946211769
"470",36,25,2,2,230,3,2,1,2,0.905758237604476,0.940108381249748
"471",36,26,2,1,231,3,1,1,2,1.06686175048121,0.985199398731107
"472",36,33,2,2,232,1,2,1,4,0.32803937284682,0.329174388012965
"473",36,36,2,1,233,1,1,1,4,0.459122923754416,0.380206839975742
"474",36,38,2,2,234,2,2,1,3,0.710848936883884,0.755947955817887
"475",36,20,2,1,235,1,2,0,3,0.569546809747284,0.536940463840178
"476",36,25,2,2,236,1,2,1,4,0.347261277384259,0.374257970907758
"477",36,30,2,1,237,3,1,1,3,0.762011525827978,0.814509635531906
"478",36,34,2,1,238,1,1,1,4,0.444125203765341,0.423946247363529
"479",36,25,2,2,239,2,2,1,4,0.591703990304294,0.622634472418272
"480",36,25,2,2,240,3,2,1,3,0.589289756437223,0.569548013441783
"481",35,37,1,2,1,3,1,0,2,1.30691968744846,1.36316833661832
"482",35,20,1,2,2,2,2,1,3,0.807279771038463,0.793770061258197
"483",35,21,1,1,3,2,1,1,4,0.420450578354669,0.444378226838473
"484",35,29,1,2,4,3,1,0,2,0.579376374823765,0.601913922138944
"485",35,32,1,2,5,2,2,1,4,0.386813603807034,0.420546041072689
"486",35,29,1,2,6,1,2,1,5,0.470733235146772,0.471607689469395
"487",35,27,1,1,7,2,1,1,3,0.569223439341118,0.512677250569906
"488",35,38,1,2,8,2,2,1,3,0.574641987614115,0.657953494622781
"489",35,19,1,2,9,1,1,0,4,0.566708286551707,0.465766344910079
"490",35,20,1,1,10,1,1,1,4,0.456052151559176,0.509347580731209
"491",35,37,1,1,11,1,1,1,4,0.399187875603037,0.471592097441115
"492",35,20,1,2,12,1,2,1,4,0.416419605612039,0.498526286562011
"493",35,21,1,1,13,3,1,1,3,1.18596608461551,1.17528490495698
"494",35,29,1,2,14,2,2,1,4,0.516354654056665,0.48376602917984
"495",35,32,1,1,15,3,1,1,3,0.984156721296883,0.926018473908962
"496",35,29,1,1,16,2,1,1,3,0.598716099063493,0.566497178703806
"497",35,27,1,1,17,1,1,1,4,0.40910341483555,0.441794805147049
"498",35,38,1,1,18,3,2,0,2,1.2054865691098,1.22356319754534
"499",35,19,1,1,19,1,1,1,5,0.349863936187949,0.329084664928051
"500",35,20,1,1,20,2,1,1,3,0.60075335114478,0.544889636196588
"501",35,37,1,2,21,2,2,1,4,0.585485517669292,0.585591425733099
"502",35,20,1,2,22,1,2,1,4,0.483574038986678,0.451731821454846
"503",35,21,1,2,23,2,1,0,3,0.657733996822693,0.671077565406167
"504",35,29,1,2,24,2,2,1,3,0.772057556597235,0.729938869651769
"505",35,32,1,1,25,2,1,1,4,0.672470234158475,0.600310948611825
"506",35,29,1,1,26,3,2,0,2,0.990662995693119,0.976528396937483
"507",35,27,1,2,27,3,2,1,3,0.719429854950764,0.672857320887935
"508",35,38,1,1,28,3,2,0,2,0.489549188773767,0.442576926248394
"509",35,19,1,2,29,2,2,1,3,0.710611710489344,0.606007729843344
"510",35,20,1,1,30,2,1,1,3,0.574806932759125,0.50385456560974
"511",35,37,1,1,31,1,2,0,3,0.661095253795125,0.701164971545202
"512",35,20,1,1,32,1,2,0,4,0.469629696544448,0.423733677775557
"513",35,21,1,2,33,2,2,1,4,0.7462545493047,0.720273683326301
"514",35,29,1,1,34,2,1,1,4,0.741129411774196,0.730896068569261
"515",35,32,1,1,35,1,1,1,4,0.414262439688354,0.363076327565632
"516",35,29,1,1,36,3,2,0,1,0.944484762749787,0.909671719494473
"517",35,27,1,2,37,1,2,1,5,0.335669157772771,0.310541188969296
"518",35,38,1,2,38,1,2,1,5,0.287564914246673,0.320764529218523
"519",35,19,1,2,39,2,1,0,3,0.644760213610548,0.607388450657004
"520",35,20,1,1,40,1,1,1,4,0.328658692488244,0.279779771236244
"521",35,37,1,2,41,2,1,0,2,0.678891840439049,0.675521443207575
"522",35,20,1,1,42,3,1,1,3,0.683957265002333,0.7220278920392
"523",35,21,1,1,43,1,2,0,3,0.49440062703277,0.468073511225466
"524",35,29,1,1,44,2,2,0,2,0.768063588569113,0.751004536919726
"525",35,32,1,1,45,3,2,0,2,1.07996058085842,1.05509631536156
"526",35,29,1,2,46,2,2,1,3,0.305605468869365,0.23942553067669
"527",35,27,1,1,47,3,1,1,3,0.664598965399309,0.633769516553846
"528",35,38,1,2,48,1,2,1,5,0.449895567242183,0.523561710089671
"529",35,19,1,1,49,1,1,1,4,0.44798436978464,0.535466689879355
"530",35,20,1,1,50,2,1,1,3,0.486677407938011,0.455579220690765
"531",35,37,1,1,51,3,1,1,3,1.15156949003739,1.17976036584904
"532",35,20,1,2,52,1,2,1,5,0.218080273996944,0.237869682868815
"533",35,21,1,1,53,3,2,0,1,0.38919631853727,0.318070770959682
"534",35,29,1,1,54,3,2,0,1,0.967139581468924,1.02102460975467
"535",35,32,1,1,55,3,2,0,2,0.66908690578674,0.676737373570158
"536",35,29,1,1,56,1,1,1,5,0.571167826112896,0.562781073104337
"537",35,27,1,1,57,2,2,0,3,0.669945555826694,0.644237375462673
"538",35,38,1,2,58,1,1,0,3,0.483927478558668,0.513566565851751
"539",35,19,1,1,59,3,2,0,2,0.532611474699969,0.43265879297108
"540",35,20,1,2,60,2,2,1,4,0.680956517075562,0.710422066874413
"541",35,37,1,2,61,2,1,0,2,0.620925960682547,0.577837295343011
"542",35,20,1,1,62,2,1,1,4,0.436788774401315,0.500107724548851
"543",35,21,1,2,63,1,2,1,5,0.438936173232182,0.40756014086959
"544",35,29,1,2,64,1,2,1,5,0.528670297124348,0.488648445088137
"545",35,32,1,2,65,1,2,1,4,0.29131591467776,0.286358495065523
"546",35,29,1,1,66,3,2,0,1,0.72324493928395,0.757472515294574
"547",35,27,1,1,67,1,1,1,4,0.400949650932521,0.393357517407756
"548",35,38,1,1,68,3,2,0,2,0.255419180827432,0.286403746337242
"549",35,19,1,1,69,3,2,0,2,1.07144621957891,0.965877852965188
"550",35,20,1,2,70,3,2,1,2,0.951583833796697,0.984839144194551
"551",35,37,1,1,71,2,2,0,3,0.78454938606898,0.823994411557188
"552",35,20,1,2,72,1,2,1,5,0.285740092141651,0.316239996275132
"553",35,21,1,2,73,2,2,1,3,0.499504237121901,0.563311898333203
"554",35,29,1,1,74,3,2,0,1,1.19060941354693,1.17369291368332
"555",35,32,1,2,75,1,2,1,4,0.410707324777061,0.40182280840315
"556",35,29,1,2,76,1,2,1,5,0.361367938651277,0.390881599223299
"557",35,27,1,2,77,1,1,0,4,0.54783606928703,0.551361818172025
"558",35,38,1,2,78,3,2,1,3,0.955978028810966,0.991567058836773
"559",35,19,1,1,79,1,1,1,5,0.415813541516587,0.401484048764641
"560",35,20,1,1,80,2,2,0,2,0.716409941493036,0.75405877890386
"561",35,37,1,1,81,2,2,0,2,0.678822799263116,0.687053870849807
"562",35,20,1,2,82,2,1,0,2,0.748953793360687,0.874337800490838
"563",35,21,1,1,83,1,2,0,3,0.654238439759297,0.702243529934955
"564",35,29,1,2,84,2,1,0,3,0.760334663654637,0.8113504455403
"565",35,32,1,1,85,2,1,1,4,0.671307973324457,0.625731616424635
"566",35,29,1,2,86,3,1,0,1,1.90453081498776,1.91558268213451
"567",35,27,1,2,87,3,2,1,2,0.625014665719615,0.620090801790672
"568",35,38,1,2,88,3,1,0,1,0.934301773387172,0.932374598258752
"569",35,19,1,1,89,2,1,1,3,0.51481814953533,0.435999526175215
"570",35,20,1,1,90,2,1,1,4,0.651407724868503,0.781297682827426
"571",35,37,1,1,91,2,2,0,3,0.691597246593023,0.570056421426216
"572",35,20,1,2,92,3,2,1,2,0.554892637490321,0.605258823258654
"573",35,21,1,2,93,3,2,1,3,0.812392960573359,0.812302793436782
"574",35,29,1,2,94,2,1,0,3,0.234563946835665,0.287045119095029
"575",35,32,1,1,95,3,2,0,1,0.56586199607769,0.562467555470236
"576",35,29,1,2,96,1,2,1,4,0.421346926967242,0.366181833237513
"577",35,27,1,2,97,1,2,1,4,0.39341015177314,0.451670153710849
"578",35,38,1,2,98,3,1,0,2,1.32294656803026,1.3478282625025
"579",35,19,1,1,99,3,1,1,3,0.595157926542399,0.600580983733351
"580",35,20,1,1,100,3,2,0,1,1.32963532055132,1.32964839919943
"581",35,37,1,1,101,1,2,0,3,0.614413467486733,0.673303143158139
"582",35,20,1,2,102,1,2,1,5,0.523647526335436,0.510177664054991
"583",35,21,1,1,103,1,1,1,5,0.59420095888688,0.634043326426013
"584",35,29,1,2,104,1,2,1,4,0.469282312419029,0.444291494419407
"585",35,32,1,2,105,2,2,1,3,0.590480912342589,0.650524045270905
"586",35,29,1,1,106,3,2,0,1,0.925255858127849,0.934979860790258
"587",35,27,1,2,107,1,2,1,4,0.382976822891451,0.427061225046363
"588",35,38,1,2,108,1,2,1,5,0.403108302680248,0.418020382054081
"589",35,19,1,2,109,2,2,1,4,0.620066204701291,0.625423322371166
"590",35,20,1,1,110,3,1,1,2,0.561911893298119,0.59377504505259
"591",35,37,1,2,111,2,1,0,3,0.473854815872558,0.488825136518238
"592",35,20,1,1,112,1,1,1,4,0.332835089651746,0.290708675853599
"593",35,21,1,2,113,2,2,1,4,0.664953773156632,0.693986854389758
"594",35,29,1,1,114,2,1,1,3,0.527214327631442,0.477641680991145
"595",35,32,1,2,115,2,2,1,4,0.490848572848061,0.509244731113154
"596",35,29,1,1,116,3,2,0,1,0.961138099978711,0.908397467392378
"597",35,27,1,1,117,1,2,0,4,0.638409353663599,0.678690999927683
"598",35,38,1,2,118,3,1,0,2,0.862954100943784,0.817694452324712
"599",35,19,1,1,119,1,2,0,3,0.412520821380917,0.361503191832771
"600",35,20,1,2,120,1,2,1,5,0.444409838740405,0.496843776251045
"601",35,37,1,2,121,2,1,0,2,0.531767682142207,0.585310191099718
"602",35,20,1,1,122,2,1,1,4,0.542018771773794,0.520004816217718
"603",35,21,1,2,123,1,1,0,3,0.395690753666691,0.441020923193861
"604",35,29,1,2,124,3,2,1,2,0.66043407773386,0.706651154724235
"605",35,32,1,1,125,1,1,1,4,0.276013391808819,0.296046643393673
"606",35,29,1,1,126,2,1,1,4,0.619151666003396,0.532626532308917
"607",35,27,1,2,127,1,1,0,4,0.567149646250762,0.461873815668849
"608",35,38,1,1,128,3,1,1,2,0.685805766526395,0.641952892252408
"609",35,19,1,1,129,2,1,1,3,0.661348003515163,0.601198100893024
"610",35,20,1,2,130,2,2,1,4,0.58749265138521,0.507649880397488
"611",35,37,1,2,131,2,2,1,3,0.677094986449478,0.675819632651442
"612",35,20,1,2,132,1,2,1,5,0.297835767057444,0.277608094525927
"613",35,21,1,2,133,3,2,1,2,0.863014811374057,0.84147689014147
"614",35,29,1,2,134,1,2,1,5,0.540614683150432,0.5998319772837
"615",35,32,1,2,135,3,1,0,2,0.122288912489827,0.240504941642595
"616",35,29,1,2,136,2,2,1,4,0.464877471467615,0.538257285599463
"617",35,27,1,1,137,3,1,1,3,0.662073089574597,0.617655975496005
"618",35,38,1,1,138,1,1,1,5,0.431449209709721,0.402740934754092
"619",35,19,1,1,139,3,1,1,3,0.826009619806694,0.862442641822628
"620",35,20,1,1,140,1,1,1,5,0.47485003982994,0.484699750915057
"621",35,37,1,1,141,3,1,1,2,0.856120731694572,0.858492713814816
"622",35,20,1,1,142,1,1,1,5,0.446085092776593,0.461673235812873
"623",35,21,1,2,143,1,1,0,3,0.531915217382211,0.539907245819594
"624",35,29,1,1,144,3,2,0,1,0.939669670951374,0.935258807597341
"625",35,32,1,1,145,2,1,1,4,0.833656890039411,0.802228890783569
"626",35,29,1,2,146,3,1,0,1,0.799257730424807,0.836922277937979
"627",35,27,1,2,147,3,2,1,3,0.557252459893453,0.542131444963634
"628",35,38,1,2,148,2,2,1,3,0.626416173413518,0.534201875170044
"629",35,19,1,1,149,2,1,1,3,0.436165774734981,0.45728533070507
"630",35,20,1,2,150,3,2,1,2,0.769198531021325,0.704842981313161
"631",35,37,1,2,151,1,2,1,5,0.34096216796804,0.325587431372276
"632",35,20,1,2,152,3,1,0,2,1.0181623375401,1.02409009823946
"633",35,21,1,2,153,3,1,0,2,0.747381259436444,0.753047010762777
"634",35,29,1,1,154,3,2,0,2,1.24405840462306,1.28319666838641
"635",35,32,1,1,155,2,1,1,4,0.506799791584699,0.538047505390729
"636",35,29,1,1,156,1,2,0,4,0.577234851315281,0.606045636294952
"637",35,27,1,1,157,3,2,0,2,0.913753015759215,0.951976170289047
"638",35,38,1,1,158,2,2,0,3,0.442220847519458,0.442749793204567
"639",35,19,1,2,159,1,1,0,3,0.337249674353728,0.365470943630097
"640",35,20,1,1,160,2,1,1,4,0.561086823034941,0.652034873067954
"641",35,37,1,1,161,2,1,1,4,0.741489729144653,0.67135275584418
"642",35,20,1,2,162,2,2,1,4,0.529827371955904,0.547331854745405
"643",35,21,1,2,163,2,2,1,3,0.578718218353139,0.611764373427947
"644",35,29,1,2,164,2,2,1,4,0.606049348498558,0.618717221760681
"645",35,32,1,1,165,1,2,0,4,0.636488868586773,0.619775092813696
"646",35,29,1,1,166,1,1,1,4,0.294797256030041,0.332657174776709
"647",35,27,1,1,167,1,1,1,5,0.404889102380581,0.44077103584547
"648",35,38,1,1,168,1,1,1,4,0.276880960924923,0.200930808814374
"649",35,19,1,1,169,1,1,1,4,0.396103233947918,0.482306005118799
"650",35,20,1,2,170,3,1,0,1,0.336793797110622,0.211043621209732
"651",35,37,1,2,171,2,2,1,4,0.641179542667325,0.530540377037059
"652",35,20,1,2,172,1,2,1,4,0.41972907429698,0.403346152182611
"653",35,21,1,1,173,3,1,1,2,0.980945251833991,1.02589455685691
"654",35,29,1,2,174,3,2,1,3,0.992157913263128,0.94238980109326
"655",35,32,1,1,175,3,2,0,2,1.48446807597847,1.50828735209363
"656",35,29,1,2,176,3,2,1,3,0.787081638850795,0.703295778895366
"657",35,27,1,2,177,1,2,1,4,0.420644966666492,0.474691237151927
"658",35,38,1,2,178,2,1,0,3,0.662888676391009,0.622455754456947
"659",35,19,1,2,179,1,2,1,5,0.37390524364708,0.427811253596028
"660",35,20,1,1,180,1,2,0,3,0.487319217208423,0.50887416711512
"661",35,37,1,2,181,1,2,1,4,0.539839996308094,0.608339554553801
"662",35,20,1,1,182,2,2,0,2,0.646684906243153,0.743719621347133
"663",35,21,1,2,183,1,2,1,4,0.344757418740546,0.349841858295926
"664",35,29,1,1,184,3,2,0,2,1.0410822867016,1.13763331789894
"665",35,32,1,2,185,1,2,1,5,0.402040523047065,0.461021045541408
"666",35,29,1,2,186,2,2,1,3,0.551532258254478,0.469685424980481
"667",35,27,1,1,187,1,1,1,4,0.398446051837276,0.372337679262777
"668",35,38,1,2,188,1,2,1,4,0.346552092357144,0.278282536509735
"669",35,19,1,1,189,3,2,0,2,1.20778979069932,1.11603470182548
"670",35,20,1,2,190,2,2,1,3,0.523018952130206,0.420669334484434
"671",35,37,1,1,191,3,2,0,1,0.774424357975567,0.926295487283639
"672",35,20,1,1,192,3,2,0,2,0.92883712400636,0.892008188566134
"673",35,21,1,2,193,3,2,1,2,0.909171614842617,0.8174024460796
"674",35,29,1,2,194,2,2,1,4,0.445334440181712,0.42254125276132
"675",35,32,1,2,195,1,2,1,4,0.318661606230191,0.344616321631527
"676",35,29,1,2,196,2,1,0,3,0.603933978868566,0.673442712495287
"677",35,27,1,1,197,3,2,0,2,1.14687435355583,1.08629986200591
"678",35,38,1,2,198,3,1,0,1,1.10826503024122,1.14612113845483
"679",35,19,1,1,199,3,1,1,3,0.634590545969409,0.598764073522928
"680",35,20,1,1,200,3,1,1,3,0.803317988034669,0.720842222653089
"681",35,37,1,1,201,1,1,1,4,0.367669259688287,0.35899802063064
"682",35,20,1,2,202,1,2,1,5,0.43807557472654,0.513601885461119
"683",35,21,1,1,203,1,1,1,5,0.468693961117769,0.412578417353912
"684",35,29,1,1,204,1,1,1,5,0.471109152451492,0.506118014714044
"685",35,32,1,2,205,3,2,1,2,0.389497910659502,0.402139698680358
"686",35,29,1,1,206,3,1,1,2,0.565510613988519,0.677944385216168
"687",35,27,1,2,207,3,2,1,3,0.687306688164631,0.70959408600267
"688",35,38,1,1,208,1,1,1,5,0.413146540587672,0.394942848565917
"689",35,19,1,1,209,3,1,1,3,1.1007267167655,1.00026170729926
"690",35,20,1,1,210,2,1,1,4,0.520028704917291,0.492412013102701
"691",35,37,1,2,211,3,1,0,2,0.806954800421767,0.834565669427231
"692",35,20,1,2,212,2,2,1,4,0.63304264938047,0.678265984023674
"693",35,21,1,2,213,3,1,0,1,1.62841838085335,1.65044293123761
"694",35,29,1,2,214,1,2,1,4,0.420383203445603,0.370893213373835
"695",35,32,1,1,215,1,2,0,3,0.401564819994578,0.436764861111213
"696",35,29,1,2,216,3,2,1,2,0.809712619708667,0.815358349018289
"697",35,27,1,1,217,1,1,1,4,0.399069954861358,0.401920725965737
"698",35,38,1,2,218,3,1,0,2,1.0825661047178,1.05570347961557
"699",35,19,1,1,219,2,1,1,4,0.41402498712418,0.409529254569668
"700",35,20,1,2,220,1,2,1,4,0.325835416869908,0.328195862353085
"701",35,37,1,2,221,2,1,0,2,0.833475506383638,0.87497548825883
"702",35,20,1,1,222,2,1,1,3,0.470495358026067,0.386230386790342
"703",35,21,1,2,223,3,1,0,1,1.49153121242036,1.53112263720465
"704",35,29,1,2,224,2,2,1,4,0.628341800270119,0.683270885382763
"705",35,32,1,1,225,2,1,1,4,0.414600888685497,0.339918176666153
"706",35,29,1,1,226,2,2,0,3,0.851711905746604,0.883820601284659
"707",35,27,1,2,227,3,2,1,2,0.692919487101225,0.659844241088648
"708",35,38,1,2,228,2,2,1,4,0.698334172239934,0.659932229303625
"709",35,19,1,2,229,3,2,1,3,0.803644764891769,0.85324583880193
"710",35,20,1,2,230,3,1,0,1,1.22781757288985,1.24231403660823
"711",35,37,1,2,231,1,2,1,4,0.455426746124596,0.475120255550104
"712",35,20,1,1,232,2,1,1,4,0.617998315921633,0.57529239322271
"713",35,21,1,1,233,3,2,0,2,0.291351392537106,0.328610274441227
"714",35,29,1,2,234,3,2,1,3,1.20371754807139,1.16733777867708
"715",35,32,1,2,235,2,2,1,3,0.526043199699896,0.490764546296263
"716",35,29,1,1,236,2,1,1,3,0.622074629381673,0.679200746948278
"717",35,27,1,1,237,2,1,1,4,0.590817902681957,0.523340585271528
"718",35,38,1,1,238,3,2,0,1,1.22068998045054,1.16080823932524
"719",35,19,1,1,239,1,1,1,5,0.405561222109739,0.392101165351897
"720",35,20,1,1,240,2,1,1,3,0.523635655529169,0.537866786366485
"721",34,19,2,1,1,1,1,1,4,0.478193285325443,0.48714568395728
"722",34,30,2,1,2,2,1,1,3,0.612660452842999,0.587451638037285
"723",34,37,2,2,3,2,2,1,3,0.830534535057132,0.837158001786943
"724",34,29,2,1,4,3,1,1,2,0.995351495792964,0.94263017429073
"725",34,26,2,2,5,2,2,1,3,0.631134804517438,0.621535535494859
"726",34,21,2,1,6,3,2,0,1,0.82408023217358,0.794767160990758
"727",34,20,2,1,7,1,1,1,4,0.506466772683101,0.518571936260853
"728",34,35,2,2,8,1,1,0,3,0.642630358731463,0.650413718698759
"729",34,24,2,1,9,1,1,1,5,0.370253960557938,0.230332178844482
"730",34,32,2,1,10,3,2,0,2,1.19460232911141,1.16610245517126
"731",34,19,2,1,11,2,1,1,3,0.665388083728624,0.71330703668882
"732",34,30,2,1,12,1,2,0,3,0.795931587195264,0.69511531375646
"733",34,37,2,2,13,3,1,0,2,1.0078778365657,0.989698420116381
"734",34,29,2,2,14,2,1,0,3,0.801494851756182,0.858222358640854
"735",34,26,2,1,15,3,2,0,2,1.25315802035363,1.18914750363814
"736",34,21,2,2,16,2,1,0,2,0.905370932285862,0.85963137286315
"737",34,20,2,2,17,1,2,1,4,0.382723678947547,0.34090505636812
"738",34,35,2,1,18,3,1,1,3,0.689225269814596,0.733540599557291
"739",34,24,2,1,19,3,1,1,3,0.73335172219711,0.740686916672385
"740",34,32,2,1,20,3,2,0,2,1.08075549519567,1.11839393197543
"741",34,19,2,1,21,3,1,1,2,0.810970242482888,0.808081163117626
"742",34,30,2,2,22,2,2,1,3,0.611953794292673,0.73334657073137
"743",34,37,2,2,23,1,2,1,4,0.517193632240681,0.516683252315607
"744",34,29,2,1,24,1,1,1,5,0.402802875377147,0.320209370287283
"745",34,26,2,1,25,1,2,0,3,0.712345967146838,0.767672211723778
"746",34,21,2,2,26,3,1,0,1,0.44433805541745,0.450239555851457
"747",34,20,2,1,27,1,1,1,4,0.315643189059662,0.345903903583049
"748",34,35,2,2,28,3,1,0,2,0.661356375998398,0.675922267183518
"749",34,24,2,2,29,2,2,1,4,0.611678136104677,0.626519974046099
"750",34,32,2,2,30,3,2,1,3,0.507784637608345,0.68979593001103
"751",34,19,2,2,31,1,2,1,4,0.390176367287046,0.369983925517738
"752",34,30,2,1,32,1,1,1,5,0.414802925314136,0.311795712869306
"753",34,37,2,1,33,2,2,0,3,0.911611551819429,0.915778651376958
"754",34,29,2,1,34,2,2,0,3,0.571907685428059,0.532030898986798
"755",34,26,2,1,35,1,2,0,3,0.695863924343489,0.636184245105845
"756",34,21,2,2,36,2,1,0,2,0.63033116658177,0.652909707094291
"757",34,20,2,2,37,3,1,0,2,0.985963256836394,0.983580395120907
"758",34,35,2,2,38,3,1,0,1,1.69610220865424,1.70057907589145
"759",34,24,2,2,39,2,1,0,2,0.719644882159312,0.741353377766951
"760",34,32,2,2,40,2,2,1,3,0.616648164548709,0.585841411490769
"761",34,19,2,2,41,2,2,1,4,0.619201541108388,0.548348456316381
"762",34,30,2,2,42,2,1,0,3,0.69824262992831,0.695068632326669
"763",34,37,2,1,43,2,2,0,3,0.859934319541645,0.848577354121126
"764",34,29,2,2,44,2,2,1,4,0.461179263688353,0.46038380035549
"765",34,26,2,2,45,1,2,1,4,0.450675744184668,0.408792679522581
"766",34,21,2,2,46,1,2,1,5,0.397524176528799,0.37365117814624
"767",34,20,2,2,47,3,2,1,2,1.16368108765702,1.24768636326095
"768",34,35,2,1,48,1,1,1,4,0.480299844181401,0.515168621722919
"769",34,24,2,2,49,3,1,0,1,1.36148062157893,1.39726211826303
"770",34,32,2,2,50,3,2,1,3,0.504613187697632,0.52899077033947
"771",34,19,2,2,51,3,2,1,2,0.682136199172324,0.631929798322674
"772",34,30,2,1,52,1,1,1,4,0.219144210438124,0.253846050093776
"773",34,37,2,2,53,3,1,0,2,1.60889681383135,1.57679692198178
"774",34,29,2,2,54,2,1,0,3,0.572014032128772,0.640592649713111
"775",34,26,2,1,55,3,2,0,1,1.10599126573985,1.14141453816376
"776",34,21,2,1,56,3,2,0,2,0.693907857541567,0.794600862528894
"777",34,20,2,1,57,2,1,1,3,0.377150874878265,0.363532397166446
"778",34,35,2,2,58,1,2,1,4,0.459427717572293,0.408557654497061
"779",34,24,2,2,59,3,1,0,2,1.0838354362245,1.02014514463793
"780",34,32,2,1,60,3,2,0,2,1.03255962746937,1.04054133481289
"781",34,19,2,2,61,3,1,0,1,1.38651122382945,1.41186453179479
"782",34,30,2,2,62,2,2,1,3,0.667180400068465,0.654035680025284
"783",34,37,2,2,63,3,1,0,1,1.27900752203533,1.19140603180876
"784",34,29,2,1,64,1,1,1,5,0.439997304431621,0.34316111932168
"785",34,26,2,1,65,3,2,0,1,0.464395662846437,0.414212551113594
"786",34,21,2,1,66,3,1,1,2,0.868942287175137,0.906985066324187
"787",34,20,2,2,67,2,1,0,3,0.853766789007134,0.876171982038043
"788",34,35,2,1,68,1,1,1,4,0.352591743352959,0.493000482539402
"789",34,24,2,1,69,3,2,0,2,0.963907520439821,0.861733998926077
"790",34,32,2,1,70,2,1,1,3,0.516617067321602,0.562703690215557
"791",34,19,2,1,71,1,2,0,3,0.529075891659273,0.549022593926311
"792",34,30,2,1,72,1,1,1,4,0.353157454194036,0.360627230643058
"793",34,37,2,1,73,2,2,0,2,0.693913853504575,0.682977987028098
"794",34,29,2,2,74,3,2,1,3,1.02656127956748,1.07328570671195
"795",34,26,2,1,75,3,2,0,1,1.48438915263909,1.33784797628666
"796",34,21,2,2,76,1,1,0,3,0.639793651742215,0.619682097777327
"797",34,20,2,1,77,1,2,0,4,0.556369388293135,0.617074479576742
"798",34,35,2,1,78,1,1,1,5,0.489464090766255,0.460484601254446
"799",34,24,2,2,79,1,2,1,5,0.529350819631574,0.487453295593312
"800",34,32,2,2,80,1,1,0,3,0.579534154807506,0.603676594297993
"801",34,19,2,1,81,1,1,1,4,0.549839375866312,0.489099135430835
"802",34,30,2,1,82,3,2,0,1,0.839786836570975,0.839494734256455
"803",34,37,2,1,83,2,1,1,4,0.643756758821411,0.666041965156507
"804",34,29,2,1,84,2,2,0,3,0.577009403439776,0.500603233967323
"805",34,26,2,1,85,2,2,0,3,0.583256815574733,0.614437978699129
"806",34,21,2,2,86,3,2,1,3,0.622649356094157,0.656909239177792
"807",34,20,2,2,87,3,2,1,2,0.665489589205926,0.626586682404905
"808",34,35,2,2,88,1,2,1,5,0.344107946539425,0.286485932542164
"809",34,24,2,1,89,3,2,0,2,1.25075502765146,1.23269894119931
"810",34,32,2,1,90,2,1,1,4,0.580083519228806,0.593815289693183
"811",34,19,2,1,91,1,2,0,4,0.506174139158274,0.520387869370452
"812",34,30,2,2,92,3,1,0,2,1.57332292916347,1.52301612383107
"813",34,37,2,1,93,3,1,1,2,1.01943839324674,0.986295753067673
"814",34,29,2,1,94,2,2,0,3,0.543997067722763,0.629472863194037
"815",34,26,2,1,95,2,2,0,3,0.617699373752191,0.604747686818889
"816",34,21,2,2,96,2,1,0,3,0.722230314838,0.830264984459459
"817",34,20,2,2,97,1,2,1,4,0.403280996041852,0.351866619122567
"818",34,35,2,1,98,2,1,1,3,0.521268470222979,0.525914824853801
"819",34,24,2,2,99,1,2,1,5,0.19758441812219,0.195671900573913
"820",34,32,2,1,100,2,1,1,3,0.689618059693388,0.697470595425107
"821",34,19,2,2,101,3,1,0,2,1.38256543359455,1.37886633862439
"822",34,30,2,1,102,1,1,1,5,0.369394593929311,0.338663787147675
"823",34,37,2,2,103,3,2,1,2,0.633560906296036,0.585679873218667
"824",34,29,2,1,104,3,2,0,2,1.49966732096111,1.53079529420689
"825",34,26,2,1,105,1,2,0,3,0.695444438666612,0.757965938251164
"826",34,21,2,2,106,3,1,0,2,1.19193867858299,1.17838369519711
"827",34,20,2,2,107,3,2,1,3,0.717610794819272,0.741821982069115
"828",34,35,2,2,108,3,2,1,3,0.766391983473768,0.804932358111122
"829",34,24,2,2,109,1,2,1,4,0.432090810926178,0.429303999071601
"830",34,32,2,1,110,1,2,0,4,0.514610107841054,0.632194683957235
"831",34,19,2,2,111,1,2,1,4,0.447448715915862,0.444538146704389
"832",34,30,2,2,112,2,1,0,3,0.746602361823154,0.782868896424863
"833",34,37,2,2,113,1,1,0,4,0.766248080541978,0.806380531794453
"834",34,29,2,1,114,1,1,1,4,0.424134152269189,0.417761995089984
"835",34,26,2,2,115,2,2,1,3,0.556594980281113,0.546403571857783
"836",34,21,2,2,116,2,1,0,3,0.7066242429954,0.738302861432684
"837",34,20,2,2,117,3,1,0,1,1.42423941298856,1.37121719478499
"838",34,35,2,1,118,2,2,0,3,0.637587536540611,0.609054181408022
"839",34,24,2,2,119,1,1,0,4,0.696864835551205,0.684703073804222
"840",34,32,2,1,120,3,2,0,1,1.40422569786917,1.42938548546846
"841",34,19,2,2,121,3,2,1,2,1.0280264980735,1.06536826478117
"842",34,30,2,1,122,2,1,1,3,0.349073487701838,0.3631121872002
"843",34,37,2,1,123,1,1,1,4,0.339509112303229,0.344802463178127
"844",34,29,2,1,124,2,1,1,3,0.558959146875393,0.621172230741876
"845",34,26,2,1,125,3,2,0,1,0.311878364711389,0.379624408905069
"846",34,21,2,2,126,2,1,0,3,0.732147468345544,0.763768397404382
"847",34,20,2,1,127,2,2,0,2,0.729496112071637,0.693030012136704
"848",34,35,2,2,128,1,2,1,5,0.411391893443732,0.436057018416305
"849",34,24,2,2,129,2,2,1,3,0.706721008132861,0.707441061604277
"850",34,32,2,2,130,3,2,1,3,0.967708027615723,0.981708486988868
"851",34,19,2,2,131,2,1,0,3,0.666653020921411,0.627804228976783
"852",34,30,2,1,132,2,1,1,4,0.66241117208959,0.700129792021604
"853",34,37,2,1,133,3,2,0,1,0.961344646902885,0.959436395320991
"854",34,29,2,2,134,1,2,1,4,0.424302270593412,0.473312498667439
"855",34,26,2,2,135,3,2,1,2,0.750776710023974,0.756695898452528
"856",34,21,2,2,136,2,2,1,4,0.646352539693996,0.672771163896925
"857",34,20,2,2,137,2,1,0,3,0.705846411310446,0.646695433210524
"858",34,35,2,1,138,1,1,1,4,0.267480220342737,0.305288733405466
"859",34,24,2,2,139,3,1,0,2,1.62647815100987,1.54640921196055
"860",34,32,2,1,140,2,1,1,3,0.384752093368538,0.364818749917677
"861",34,19,2,2,141,2,2,1,3,0.704047176589927,0.641229607981068
"862",34,30,2,2,142,2,2,1,3,0.572467172202551,0.617196971455059
"863",34,37,2,2,143,1,2,1,4,0.379386460076618,0.364798671007491
"864",34,29,2,2,144,1,2,1,4,0.416845501073087,0.433618248600007
"865",34,26,2,1,145,1,1,1,4,0.390187873459638,0.413040570620366
"866",34,21,2,2,146,3,2,1,3,0.847213533700829,0.84168984739506
"867",34,20,2,2,147,2,2,1,3,0.687744635882134,0.723180381866971
"868",34,35,2,1,148,1,2,0,4,0.546176471348428,0.560678141217135
"869",34,24,2,2,149,2,2,1,4,0.770269073193735,0.715177415151114
"870",34,32,2,2,150,1,2,1,5,0.408182906426601,0.421465301052632
"871",34,19,2,2,151,3,2,1,2,0.991050699854485,1.04821599652851
"872",34,30,2,1,152,2,1,1,3,0.517680036438836,0.550272503818032
"873",34,37,2,2,153,3,2,1,2,0.949170268883787,1.02601922320034
"874",34,29,2,2,154,1,2,1,5,0.454180212482288,0.384852360957978
"875",34,26,2,1,155,1,1,1,5,0.292516235622812,0.248601015462761
"876",34,21,2,2,156,3,2,1,3,0.664109561333358,0.673381517754128
"877",34,20,2,2,157,2,2,1,4,0.551959910777212,0.58187201842419
"878",34,35,2,1,158,2,2,0,2,0.283258921539029,0.269334457334734
"879",34,24,2,2,159,2,2,1,3,0.613439995050471,0.655426691991008
"880",34,32,2,2,160,2,1,0,2,0.549659200634151,0.586862727603438
"881",34,19,2,2,161,1,2,1,4,0.389606218476397,0.366037447671009
"882",34,30,2,1,162,1,2,0,4,0.628553634864223,0.624319020962913
"883",34,37,2,1,163,2,2,0,2,0.858922151067255,0.822944312073529
"884",34,29,2,1,164,1,1,1,4,0.23050496898681,0.243106810979359
"885",34,26,2,1,165,2,1,1,3,0.447567919960448,0.401907238353906
"886",34,21,2,1,166,2,2,0,3,0.536771374507837,0.515450926951831
"887",34,20,2,2,167,2,1,0,2,0.479371814515973,0.496165486350206
"888",34,35,2,2,168,1,2,1,5,0.411944679629934,0.446493579208426
"889",34,24,2,1,169,1,1,1,5,0.33371224765349,0.277935487705113
"890",34,32,2,1,170,3,1,1,2,1.01573023100716,1.0191161330647
"891",34,19,2,1,171,1,2,0,3,0.505089570138616,0.520314930457276
"892",34,30,2,1,172,2,1,1,3,0.526160741767251,0.48761508433423
"893",34,37,2,2,173,2,2,1,3,0.628957645628248,0.626876779983988
"894",34,29,2,1,174,2,2,0,2,0.529664231024843,0.487747376310193
"895",34,26,2,2,175,2,1,0,3,0.677470356764474,0.759118813652467
"896",34,21,2,1,176,3,2,0,2,1.14205669700319,1.19440939001863
"897",34,20,2,2,177,2,1,0,3,0.729039458343815,0.677832192754376
"898",34,35,2,1,178,2,1,1,3,0.828158028077301,0.847779008170144
"899",34,24,2,1,179,2,2,0,3,0.213561007451721,0.15591858592728
"900",34,32,2,1,180,1,1,1,5,0.579080264105021,0.630348145851886
"901",34,19,2,1,181,1,1,1,4,0.346841504864607,0.35657807596038
"902",34,30,2,1,182,1,1,1,4,0.310846806626862,0.290151582202931
"903",34,37,2,1,183,2,1,1,4,0.500296078225555,0.471406494537179
"904",34,29,2,1,184,2,1,1,4,0.585495348704184,0.620523889199986
"905",34,26,2,2,185,3,1,0,2,0.884540713922852,0.817398582459141
"906",34,21,2,1,186,1,1,1,5,0.421213947121693,0.396575458100453
"907",34,20,2,1,187,3,1,1,2,0.775936254347997,0.71841196249883
"908",34,35,2,1,188,1,1,1,5,0.436052393865494,0.378656301769213
"909",34,24,2,2,189,2,2,1,4,0.689856601737055,0.739710996846521
"910",34,32,2,1,190,1,1,1,4,0.492218238962083,0.45677819720291
"911",34,19,2,2,191,1,1,0,4,0.49787147122153,0.563691413858223
"912",34,30,2,1,192,3,2,0,2,1.40700757020204,1.38406763049676
"913",34,37,2,1,193,3,1,1,2,1.07390944439464,1.11185402288916
"914",34,29,2,1,194,1,1,1,5,0.283059371282204,0.278324871138108
"915",34,26,2,2,195,2,2,1,4,0.716978963649018,0.598588230898703
"916",34,21,2,1,196,1,2,0,3,0.453971748045138,0.526241856224952
"917",34,20,2,1,197,1,1,1,4,0.380868512303115,0.338488795555264
"918",34,35,2,2,198,1,2,1,4,0.47589693080899,0.525187491076933
"919",34,24,2,1,199,2,2,0,3,0.572171217184552,0.655318000822462
"920",34,32,2,2,200,3,1,0,2,0.810356029529405,0.699236378579841
"921",34,19,2,1,201,1,1,1,5,0.326712060673792,0.281829045219818
"922",34,30,2,1,202,1,2,0,3,0.641705146282654,0.679052909767687
"923",34,37,2,2,203,2,2,1,4,0.593814511737253,0.695661469451618
"924",34,29,2,1,204,2,1,1,4,0.688445426910073,0.571214056896015
"925",34,26,2,2,205,1,2,1,5,0.494521884814405,0.450985859562219
"926",34,21,2,1,206,3,2,0,2,1.06006944803414,1.12991390537421
"927",34,20,2,1,207,3,2,0,1,0.882091725403763,0.863781022160542
"928",34,35,2,2,208,2,1,0,2,0.74381288049773,0.75416107445734
"929",34,24,2,1,209,2,2,0,3,0.74899344293872,0.743741568250198
"930",34,32,2,1,210,3,2,0,2,1.23985939170446,1.25706163684154
"931",34,19,2,2,211,3,2,1,2,0.603418594853061,0.600548616806706
"932",34,30,2,2,212,3,2,1,2,1.08192196079568,1.09709222666312
"933",34,37,2,2,213,2,1,0,3,0.506233031960275,0.452786929278747
"934",34,29,2,2,214,3,1,0,1,1.12931695260973,1.06665256881013
"935",34,26,2,2,215,3,2,1,3,0.801621648332555,0.773644962136821
"936",34,21,2,1,216,3,2,0,1,0.900388400117167,0.869243693837674
"937",34,20,2,1,217,3,1,1,3,0.927717628645557,0.925639065432403
"938",34,35,2,2,218,1,1,0,3,0.45814649521535,0.556626544284031
"939",34,24,2,1,219,2,1,1,3,0.546367812966918,0.509540698655856
"940",34,32,2,2,220,1,2,1,5,0.260964758162183,0.162673907681705
"941",34,19,2,1,221,2,1,1,4,0.61368956416215,0.66039297559213
"942",34,30,2,2,222,3,2,1,3,0.756744321511267,0.764855941243137
"943",34,37,2,2,223,3,2,1,3,0.76831041858485,0.776183324910766
"944",34,29,2,2,224,3,1,0,1,0.517264180299208,0.435732800044117
"945",34,26,2,2,225,2,1,0,3,0.676352671151858,0.732959073625061
"946",34,21,2,2,226,2,2,1,3,0.634838117239348,0.685051784896728
"947",34,20,2,2,227,1,2,1,5,0.40651894404379,0.462945958630362
"948",34,35,2,1,228,3,1,1,2,0.526156598531302,0.514853626105471
"949",34,24,2,2,229,3,2,1,2,0.978919376599781,1.08030483900396
"950",34,32,2,2,230,3,2,1,3,0.696488789478448,0.704164076090553
"951",34,19,2,1,231,3,2,0,2,1.24245996207404,1.23628661779526
"952",34,30,2,1,232,3,2,0,1,0.788531104390565,0.821499565282781
"953",34,37,2,1,233,1,1,1,5,0.408906439229989,0.580868254463755
"954",34,29,2,2,234,1,2,1,4,0.350296113618044,0.333129525989683
"955",34,26,2,1,235,1,1,1,4,0.386722201216784,0.418630263857269
"956",34,21,2,2,236,1,2,1,5,0.399471346113954,0.353138639625089
"957",34,20,2,1,237,3,2,0,1,0.555512416102424,0.596887084191731
"958",34,35,2,2,238,1,2,1,4,0.487410400697667,0.569017628388839
"959",34,24,2,2,239,1,2,1,4,0.3910483901827,0.363670549520075
"960",34,32,2,1,240,3,2,0,2,0.300813794583504,0.316865089839506
"961",33,30,1,2,1,1,1,0,3,0.499203479299172,0.45496595397586
"962",33,39,1,2,2,3,1,0,1,0.718465216133718,0.754909969771603
"963",33,27,1,2,3,3,1,0,2,0.712877576358449,0.68753726378674
"964",33,26,1,1,4,2,1,1,3,0.638059045214233,0.568655417371757
"965",33,28,1,1,5,2,1,1,4,0.388788685970838,0.318750109926897
"966",33,28,1,1,6,3,2,0,2,1.28143106316824,1.36271854388214
"967",33,23,1,1,7,1,1,1,5,0.364590822424005,0.355009401839583
"968",33,20,1,2,8,1,2,1,5,0.531267123081828,0.530133708728847
"969",33,39,1,1,9,1,1,1,5,0.413005143839451,0.35323731535483
"970",33,24,1,1,10,1,1,1,5,0.397411291826959,0.372845294049824
"971",33,30,1,2,11,1,2,1,4,0.408349324675142,0.427422798409913
"972",33,39,1,2,12,2,2,1,3,0.603131049963991,0.617888956275961
"973",33,27,1,2,13,2,1,0,3,0.929040541162604,1.06862544065998
"974",33,26,1,2,14,2,2,1,3,0.49225815792384,0.541652309230528
"975",33,28,1,1,15,2,2,0,2,0.62371412213334,0.562753097665618
"976",33,28,1,1,16,3,2,0,2,1.59919308986112,1.70741364142515
"977",33,23,1,2,17,3,2,1,2,0.956992262074069,0.97164273597305
"978",33,20,1,1,18,3,1,1,3,0.629024818976091,0.573114548796289
"979",33,39,1,1,19,2,1,1,3,0.425631084935034,0.424045201508454
"980",33,24,1,1,20,2,2,0,2,0.614479878409873,0.592024782291467
"981",33,30,1,2,21,2,2,1,4,0.639657183187489,0.628054022710678
"982",33,39,1,2,22,3,1,0,2,0.294674591350386,0.333250185209583
"983",33,27,1,1,23,1,1,1,4,0.254902577951548,0.299796348480143
"984",33,26,1,2,24,3,1,0,1,0.684675748151994,0.716970448076428
"985",33,28,1,1,25,1,1,1,4,0.457142297252093,0.481094748909932
"986",33,28,1,2,26,3,1,0,1,1.10036002375514,1.163628235123
"987",33,23,1,2,27,2,1,0,2,0.766901199016665,0.7880921518293
"988",33,20,1,1,28,3,1,1,3,1.01194809551028,1.03773928702381
"989",33,39,1,1,29,2,1,1,4,0.647886517381621,0.656170890775976
"990",33,24,1,1,30,1,1,1,5,0.367043546058779,0.366560297432075
"991",33,30,1,2,31,3,2,1,3,0.523837148560999,0.472621418521134
"992",33,39,1,2,32,3,2,1,2,0.999651442814619,0.956095965994236
"993",33,27,1,1,33,2,2,0,3,0.567194620864472,0.65708778199769
"994",33,26,1,2,34,1,2,1,5,0.278649884788089,0.270068931259902
"995",33,28,1,1,35,2,1,1,4,0.674562480671737,0.630357559247527
"996",33,28,1,1,36,2,2,0,3,0.510121235008656,0.484925063756577
"997",33,23,1,2,37,1,2,1,5,0.495835449720162,0.530693748487802
"998",33,20,1,1,38,2,2,0,3,0.674277336577287,0.697761744497267
"999",33,39,1,1,39,2,1,1,3,0.704584263933371,0.699537944575969
"1000",33,24,1,2,40,3,1,0,2,0.967032401362217,0.940438898685029
"1001",33,30,1,1,41,1,2,0,3,0.597980958004714,0.527666658660683
"1002",33,39,1,1,42,1,1,1,4,0.49097446771777,0.47918939738245
"1003",33,27,1,1,43,1,1,1,5,0.460971640902722,0.490560510463163
"1004",33,26,1,2,44,1,2,1,5,0.468242001363164,0.461119673521148
"1005",33,28,1,1,45,3,2,0,1,1.54143485992828,1.5840190036199
"1006",33,28,1,2,46,1,2,1,4,0.398777299028842,0.31884334534436
"1007",33,23,1,2,47,2,1,0,2,0.49156955273965,0.480624620604857
"1008",33,20,1,2,48,1,2,1,5,0.361378869767874,0.455985443020514
"1009",33,39,1,1,49,1,1,1,5,0.39292092719705,0.425444679665552
"1010",33,24,1,2,50,1,1,0,3,0.672081456565006,0.740040799175996
"1011",33,30,1,1,51,2,2,0,2,0.898517889976085,0.878027544862303
"1012",33,39,1,1,52,3,2,0,1,1.01785723503963,1.01427681354275
"1013",33,27,1,1,53,1,1,1,5,0.399102085065749,0.370586243419942
"1014",33,26,1,2,54,3,1,0,2,1.1654317368235,1.1940766526745
"1015",33,28,1,2,55,2,2,1,3,0.675087902379142,0.767788669316915
"1016",33,28,1,1,56,2,1,1,3,0.55827261146542,0.558702025570443
"1017",33,23,1,2,57,2,1,0,3,0.786836799338706,0.837112053633368
"1018",33,20,1,1,58,2,2,0,3,0.546441991128313,0.58193190946667
"1019",33,39,1,1,59,3,2,0,1,0.710387107154669,0.679247026137613
"1020",33,24,1,2,60,2,1,0,3,0.73215217810054,0.630641733846513
"1021",33,30,1,1,61,2,1,1,3,0.339922585360122,0.299914717681981
"1022",33,39,1,2,62,3,2,1,2,0.8131665942524,0.74944180570383
"1023",33,27,1,1,63,3,2,0,1,1.12101913570461,1.14720639299923
"1024",33,26,1,2,64,2,2,1,3,0.645591937260502,0.562217788293446
"1025",33,28,1,2,65,1,2,1,4,0.529566809119113,0.522432426595819
"1026",33,28,1,2,66,2,2,1,3,0.59746616861012,0.602519986040093
"1027",33,23,1,1,67,2,1,1,3,0.68525923963126,0.62265590516743
"1028",33,20,1,1,68,1,1,1,4,0.380876641246709,0.364359425503715
"1029",33,39,1,2,69,3,2,1,2,1.13166627304495,1.08954041162196
"1030",33,24,1,2,70,1,2,1,5,0.44883961638462,0.504119950412321
"1031",33,30,1,1,71,2,1,1,4,0.662412943445667,0.61448462000925
"1032",33,39,1,2,72,1,2,1,4,0.319179731907513,0.239599216627158
"1033",33,27,1,1,73,2,1,1,3,0.783263426881186,0.808813422775784
"1034",33,26,1,1,74,1,2,0,4,0.73584952979103,0.756200444585236
"1035",33,28,1,1,75,1,1,1,4,0.463926725543503,0.555385082951463
"1036",33,28,1,1,76,1,1,1,5,0.376752749366141,0.391300959522742
"1037",33,23,1,2,77,1,2,1,5,0.475545425099945,0.455385047510632
"1038",33,20,1,2,78,3,1,0,1,0.851099786985925,0.903620888118048
"1039",33,39,1,1,79,3,1,1,3,0.586357018848674,0.593580132664142
"1040",33,24,1,2,80,1,2,1,5,0.27700277716985,0.25087931411558
"1041",33,30,1,2,81,2,2,1,3,0.683410760811313,0.601693503886613
"1042",33,39,1,2,82,2,2,1,4,0.67980994534713,0.644828949672337
"1043",33,27,1,2,83,3,1,0,1,0.825609318780461,0.76608957299677
"1044",33,26,1,1,84,1,1,1,4,0.431249851383877,0.438920685871207
"1045",33,28,1,2,85,1,2,1,5,0.246425094803644,0.245650769656062
"1046",33,28,1,1,86,3,1,1,3,1.17525162508077,1.1201431727415
"1047",33,23,1,2,87,1,2,1,5,0.346724700092606,0.36562036835758
"1048",33,20,1,1,88,1,2,0,3,0.850906471153634,0.944790591388683
"1049",33,39,1,2,89,2,1,0,3,0.437948637414969,0.423147801641171
"1050",33,24,1,2,90,2,1,0,2,0.502472628313437,0.495705427312147
"1051",33,30,1,2,91,2,2,1,4,0.463348246351142,0.486256333869396
"1052",33,39,1,1,92,3,2,0,2,1.17980005602699,1.2140765889189
"1053",33,27,1,2,93,3,1,0,1,0.528882955279424,0.545209086609324
"1054",33,26,1,1,94,3,1,1,2,0.65397506812979,0.688829278015422
"1055",33,28,1,2,95,3,1,0,1,1.30940224844696,1.34004041068298
"1056",33,28,1,2,96,1,1,0,4,0.61966111779767,0.580262193179765
"1057",33,23,1,1,97,1,2,0,4,0.510466994984941,0.492516582164689
"1058",33,20,1,2,98,3,2,1,2,1.00112055659177,0.993266617148257
"1059",33,39,1,2,99,3,1,0,1,0.536137391695862,0.536257724785452
"1060",33,24,1,2,100,1,2,1,4,0.398353664449987,0.461593699946323
"1061",33,30,1,2,101,2,2,1,3,0.668470748306152,0.612486291272564
"1062",33,39,1,1,102,3,1,1,3,1.11640569804571,1.1300810538541
"1063",33,27,1,1,103,3,2,0,1,1.20874140504095,1.2562729682395
"1064",33,26,1,1,104,1,1,1,5,0.386094184309653,0.388601720316812
"1065",33,28,1,2,105,2,1,0,2,0.666521862989615,0.727262799814871
"1066",33,28,1,1,106,1,1,1,4,0.414421130284952,0.422311836147886
"1067",33,23,1,2,107,3,2,1,2,0.840495240670868,0.833469365302527
"1068",33,20,1,1,108,2,2,0,2,0.598741879800504,0.549916413585199
"1069",33,39,1,2,109,3,1,0,2,1.04285934303782,0.944920625552571
"1070",33,24,1,1,110,2,2,0,2,0.930987425954782,0.921285754578318
"1071",33,30,1,1,111,3,1,1,2,0.754556434059745,0.800341800378009
"1072",33,39,1,2,112,1,2,1,5,0.342290162854275,0.311624101937498
"1073",33,27,1,1,113,2,1,1,4,0.520263573395818,0.576682192164484
"1074",33,26,1,2,114,2,1,0,2,0.687246427954514,0.747278440567336
"1075",33,28,1,1,115,3,1,1,3,0.868123735361235,0.838870797664629
"1076",33,28,1,2,116,3,1,0,2,1.19187896833893,1.29074596735998
"1077",33,23,1,2,117,3,1,0,1,0.766000419739293,0.787473004604773
"1078",33,20,1,1,118,1,2,0,4,0.449704301134905,0.491614750279105
"1079",33,39,1,1,119,2,1,1,3,0.618634128490603,0.591368958074899
"1080",33,24,1,1,120,1,1,1,5,0.48171828642484,0.596086163136162
"1081",33,30,1,1,121,1,1,1,4,0.40011135941095,0.50046744244508
"1082",33,39,1,2,122,1,1,0,4,0.707337918941106,0.692553963443498
"1083",33,27,1,2,123,2,1,0,2,0.703024218226723,0.740050948948475
"1084",33,26,1,1,124,3,1,1,3,0.844939957731007,0.744497973593594
"1085",33,28,1,1,125,1,2,0,3,0.700425901020485,0.707584476800873
"1086",33,28,1,2,126,3,1,0,1,0.522405793988654,0.529767506339813
"1087",33,23,1,2,127,3,1,0,1,0.818420117631852,0.827881166893166
"1088",33,20,1,1,128,2,1,1,3,0.56690051399224,0.609137650995144
"1089",33,39,1,1,129,2,2,0,2,0.702472775060766,0.727477772619763
"1090",33,24,1,2,130,1,2,1,5,0.291377297580335,0.347611479092481
"1091",33,30,1,1,131,2,1,1,4,0.593856568712124,0.585097865424289
"1092",33,39,1,2,132,1,2,1,4,0.325091565872607,0.354182917851758
"1093",33,27,1,2,133,1,2,1,5,0.41731833531595,0.413158589051665
"1094",33,26,1,2,134,2,2,1,4,0.505193309381631,0.471883460016865
"1095",33,28,1,1,135,2,1,1,4,0.561100485163768,0.574390477830728
"1096",33,28,1,2,136,2,1,0,3,0.494268141188243,0.524076245133105
"1097",33,23,1,2,137,1,1,0,3,0.48887143374786,0.473650019170901
"1098",33,20,1,2,138,3,2,1,2,0.604874026452239,0.575939728563117
"1099",33,39,1,2,139,1,2,1,4,0.211991226798833,0.270900427848987
"1100",33,24,1,1,140,3,2,0,2,0.323748224581073,0.268338852134469
"1101",33,30,1,1,141,2,2,0,3,0.507144764281904,0.459901351649144
"1102",33,39,1,1,142,3,2,0,1,0.424033002444885,0.449809911097048
"1103",33,27,1,2,143,2,1,0,2,0.646251917270768,0.689494769391643
"1104",33,26,1,2,144,2,2,1,3,0.77394034175449,0.845951173614761
"1105",33,28,1,2,145,2,2,1,3,0.542058638326531,0.529149983880448
"1106",33,28,1,2,146,3,2,1,3,0.857070834995624,0.860979264792347
"1107",33,23,1,2,147,3,1,0,1,1.15083945368296,1.10249832539905
"1108",33,20,1,1,148,1,1,1,5,0.392441602340649,0.430803786184066
"1109",33,39,1,2,149,2,1,0,3,0.871083840277364,0.87325309540903
"1110",33,24,1,2,150,1,2,1,5,0.308667252718462,0.342789946528775
"1111",33,30,1,1,151,2,2,0,3,1.05217139480132,1.09404407147625
"1112",33,39,1,2,152,2,2,1,3,0.522299539583125,0.494901964581681
"1113",33,27,1,1,153,3,2,0,2,1.44388306197342,1.37602932325887
"1114",33,26,1,2,154,2,2,1,4,0.770370399444785,0.756702981016145
"1115",33,28,1,1,155,2,2,0,2,0.628782342343415,0.661458066235984
"1116",33,28,1,1,156,3,2,0,2,0.503990727340926,0.528561910100705
"1117",33,23,1,1,157,1,2,0,4,0.492337776217404,0.467963886612151
"1118",33,20,1,2,158,1,1,0,4,0.349208701167796,0.377503281346314
"1119",33,39,1,2,159,2,2,1,3,0.641869873098836,0.594555450719585
"1120",33,24,1,1,160,1,2,0,4,0.52835191191119,0.521399647754404
"1121",33,30,1,1,161,3,1,1,2,0.880856287733741,0.881463250782882
"1122",33,39,1,1,162,3,2,0,2,0.750475071940243,0.733154469020137
"1123",33,27,1,2,163,3,2,1,3,0.637087581615264,0.64218916903134
"1124",33,26,1,2,164,2,1,0,2,0.484752632791115,0.425316723257493
"1125",33,28,1,2,165,2,1,0,3,0.778524697670945,0.748022515826384
"1126",33,28,1,1,166,1,1,1,4,0.341883870133843,0.388619634409512
"1127",33,23,1,1,167,2,1,1,3,0.446447565308899,0.538339369734941
"1128",33,20,1,1,168,1,1,1,5,0.382311108039088,0.344032430169807
"1129",33,39,1,2,169,3,1,0,2,0.873546521278509,0.882173947339374
"1130",33,24,1,1,170,1,1,1,4,0.499812267159389,0.527654711138271
"1131",33,30,1,1,171,1,1,1,5,0.397249289182746,0.452764200352194
"1132",33,39,1,2,172,2,2,1,3,0.553033380331078,0.562798038200539
"1133",33,27,1,2,173,2,2,1,3,0.703519410725512,0.699106933825305
"1134",33,26,1,2,174,1,2,1,4,0.443410718958835,0.469587430603536
"1135",33,28,1,1,175,1,1,1,4,0.446822917625758,0.415978037181296
"1136",33,28,1,1,176,1,1,1,5,0.438421012963641,0.466782865920259
"1137",33,23,1,1,177,2,1,1,3,0.560491834422306,0.50440837943557
"1138",33,20,1,1,178,1,1,1,4,0.416322948841163,0.502160245684322
"1139",33,39,1,1,179,2,1,1,3,0.538529427026589,0.493633616666467
"1140",33,24,1,2,180,2,1,0,3,0.827952844705564,0.768369905710729
"1141",33,30,1,1,181,3,1,1,2,0.73054975559389,0.766881634345701
"1142",33,39,1,1,182,2,1,1,3,0.524475476590914,0.507359778565733
"1143",33,27,1,2,183,3,2,1,2,0.593930663017531,0.593882296227702
"1144",33,26,1,2,184,2,2,1,3,0.646939153767584,0.673812531459853
"1145",33,28,1,1,185,1,1,1,5,0.4078709522727,0.368956417298262
"1146",33,28,1,2,186,2,2,1,4,0.625285275175494,0.717065610088322
"1147",33,23,1,2,187,3,2,1,3,0.701864200453283,0.65795404349277
"1148",33,20,1,2,188,2,1,0,3,0.851147110235469,0.863469334627499
"1149",33,39,1,1,189,3,1,1,3,0.461211605550907,0.469954042561971
"1150",33,24,1,2,190,3,1,0,1,1.29645881960563,1.28821589068192
"1151",33,30,1,1,191,3,2,0,1,1.69696549239949,1.76749397239948
"1152",33,39,1,1,192,2,1,1,3,0.539964408361715,0.481191771801277
"1153",33,27,1,1,193,1,1,1,5,0.445390645007942,0.396126653923673
"1154",33,26,1,1,194,1,1,1,5,0.432588549880784,0.364523569967695
"1155",33,28,1,1,195,1,2,0,3,0.467318836835562,0.479454386569935
"1156",33,28,1,2,196,3,2,1,2,0.805016605248516,0.81223186187357
"1157",33,23,1,1,197,3,1,1,3,1.04315181247888,0.998994305376361
"1158",33,20,1,1,198,3,1,1,3,0.436175798426128,0.291280532686644
"1159",33,39,1,2,199,1,2,1,4,0.47544054782972,0.521185236718365
"1160",33,24,1,1,200,2,2,0,2,0.575493437862023,0.634907701685941
"1161",33,30,1,2,201,1,2,1,4,0.380527825972698,0.334545116199335
"1162",33,39,1,2,202,2,1,0,3,0.570459587986407,0.528201680657103
"1163",33,27,1,2,203,2,1,0,3,0.559406249030752,0.555503477056814
"1164",33,26,1,2,204,3,2,1,2,0.795751047705518,0.712647746595152
"1165",33,28,1,2,205,3,1,0,2,1.13068522105833,1.1061577334503
"1166",33,28,1,2,206,1,1,0,4,0.565075948781136,0.489483226864423
"1167",33,23,1,1,207,2,1,1,3,0.684665921028052,0.598621539680225
"1168",33,20,1,2,208,3,2,1,3,0.503349729997344,0.610176575129957
"1169",33,39,1,1,209,1,1,1,4,0.422547274889436,0.407261517528014
"1170",33,24,1,2,210,2,1,0,3,0.631522306765621,0.609080549138075
"1171",33,30,1,1,211,3,2,0,1,1.10262531090463,1.03799414978916
"1172",33,39,1,1,212,3,1,1,3,0.872333036901519,0.989763805079152
"1173",33,27,1,2,213,3,1,0,2,1.42331540532892,1.45073939605654
"1174",33,26,1,1,214,2,1,1,4,0.65564242631386,0.652076410496972
"1175",33,28,1,2,215,2,2,1,3,0.440235804843131,0.319879932341635
"1176",33,28,1,2,216,3,2,1,2,0.846737791667472,0.775692748685064
"1177",33,23,1,1,217,3,2,0,2,0.525265493380573,0.524107307657761
"1178",33,20,1,1,218,1,1,1,5,0.452427643183957,0.456976167028059
"1179",33,39,1,1,219,3,1,1,3,0.796243338738657,0.819457682584957
"1180",33,24,1,1,220,3,1,1,2,0.647625598746846,0.701073759338076
"1181",33,30,1,2,221,3,2,1,3,0.932314521979763,0.895791112234011
"1182",33,39,1,2,222,3,2,1,3,0.826222329706148,0.745193796252435
"1183",33,27,1,2,223,3,1,0,2,1.50041405317018,1.48467644265818
"1184",33,26,1,1,224,3,2,0,1,0.893109666635535,1.04556531346256
"1185",33,28,1,2,225,1,2,1,4,0.496711990621619,0.409997945032099
"1186",33,28,1,1,226,3,2,0,1,1.39465460889423,1.37933894758559
"1187",33,23,1,2,227,3,2,1,2,0.994266412297564,0.986607841696352
"1188",33,20,1,2,228,1,2,1,5,0.404226953081684,0.355268816632513
"1189",33,39,1,2,229,1,1,0,4,0.550149623532308,0.477127123421705
"1190",33,24,1,1,230,1,1,1,4,0.398603488837811,0.393216446629911
"1191",33,30,1,1,231,1,1,1,4,0.338619016807892,0.371395268685126
"1192",33,39,1,1,232,3,1,1,3,0.332211090966876,0.377490925804456
"1193",33,27,1,1,233,1,1,1,4,0.392201372061315,0.434977380346814
"1194",33,26,1,2,234,1,1,0,4,0.500421252926998,0.562119606072938
"1195",33,28,1,2,235,1,2,1,4,0.424534089934572,0.403492370575995
"1196",33,28,1,1,236,2,1,1,4,0.722141995152055,0.710715041166099
"1197",33,23,1,1,237,2,2,0,2,0.650905561572903,0.706509625549424
"1198",33,20,1,2,238,3,1,0,1,0.862635117827833,0.904630086492463
"1199",33,39,1,1,239,3,1,1,2,0.742380325030151,0.750049593193788
"1200",33,24,1,1,240,1,1,1,4,0.367343316149777,0.311005225316578
"1201",32,19,2,1,1,1,1,1,4,0.49211196592877,0.434685788692559
"1202",32,38,2,2,2,1,1,0,4,0.487524588155821,0.448959381825679
"1203",32,36,2,2,3,2,1,0,3,0.596380615498146,0.478712730247321
"1204",32,29,2,1,4,2,1,1,3,0.464652646530901,0.423050654227958
"1205",32,25,2,2,5,2,2,1,4,0.629388757229841,0.614514569670497
"1206",32,40,2,1,6,1,1,1,4,0.324584157697032,0.416014559471266
"1207",32,21,2,2,7,2,1,0,3,0.832472891230381,0.840487738903315
"1208",32,39,2,1,8,3,2,0,2,1.21321700125276,1.24501391140876
"1209",32,39,2,1,9,3,2,0,2,1.18291021832085,1.20562169934068
"1210",32,18,2,1,10,1,1,1,4,0.408498643571215,0.416200561027249
"1211",32,19,2,2,11,1,2,1,4,0.485151575114491,0.537670511586675
"1212",32,38,2,2,12,3,2,1,3,1.14447127257834,1.11432247573461
"1213",32,36,2,1,13,1,1,1,5,0.345985180347945,0.375719303153078
"1214",32,29,2,1,14,3,1,1,2,0.622795509252622,0.623812379865749
"1215",32,25,2,1,15,3,2,0,2,0.782944294158759,0.690138999661379
"1216",32,40,2,1,16,2,2,0,3,0.745151564731257,0.685343524295398
"1217",32,21,2,2,17,2,1,0,3,0.409097117345826,0.35847437484095
"1218",32,39,2,1,18,2,2,0,3,0.648852764507545,0.64218403736048
"1219",32,39,2,1,19,2,2,0,3,0.80744236157462,0.805890783971957
"1220",32,18,2,2,20,2,2,1,4,0.654798546761276,0.73784154842617
"1221",32,19,2,1,21,2,2,0,3,0.884342192771345,0.918675844990974
"1222",32,38,2,2,22,1,2,1,5,0.421952191969796,0.474494598357128
"1223",32,36,2,1,23,2,1,1,3,0.63541289975444,0.541410075803731
"1224",32,29,2,1,24,2,1,1,4,0.924558682533897,0.909490164049322
"1225",32,25,2,2,25,2,1,0,3,0.484013188117247,0.509556157184741
"1226",32,40,2,1,26,3,2,0,2,0.72590229379553,0.672059717452541
"1227",32,21,2,2,27,1,2,1,5,0.385178078348745,0.458802038646143
"1228",32,39,2,2,28,3,1,0,1,0.97347459258685,1.00808859929645
"1229",32,39,2,1,29,3,1,1,3,0.855385529584948,0.871098156526048
"1230",32,18,2,2,30,3,1,0,2,0.800079534245245,0.725109603178995
"1231",32,19,2,2,31,1,2,1,4,0.408415187635004,0.471000628029147
"1232",32,38,2,2,32,1,2,1,5,0.424533427262516,0.401365754557191
"1233",32,36,2,2,33,3,2,1,2,0.918892168339094,0.908802165096038
"1234",32,29,2,2,34,3,1,0,1,1.5182063002981,1.5380113885003
"1235",32,25,2,1,35,3,2,0,1,1.7288698478846,1.75904817092958
"1236",32,40,2,2,36,1,1,0,4,0.438336122243132,0.490945224785013
"1237",32,21,2,1,37,2,1,1,4,0.745315900481243,0.745154168040314
"1238",32,39,2,1,38,3,2,0,2,0.872425156835112,0.832235305056676
"1239",32,39,2,2,39,3,2,1,3,0.571038090178029,0.579136041393354
"1240",32,18,2,1,40,1,1,1,5,0.43938914200412,0.456203024386373
"1241",32,19,2,2,41,1,2,1,5,0.415664550274912,0.438301034095547
"1242",32,38,2,2,42,1,2,1,4,0.299359407574732,0.216864651202347
"1243",32,36,2,2,43,2,1,0,2,0.754741664364313,0.706202746982385
"1244",32,29,2,1,44,3,1,1,2,0.481865125260725,0.466602181659163
"1245",32,25,2,1,45,2,1,1,4,0.757547206621879,0.799901175226393
"1246",32,40,2,2,46,1,1,0,3,0.630747462033534,0.574721499731156
"1247",32,21,2,2,47,3,1,0,2,0.905173518313178,0.996664372499707
"1248",32,39,2,1,48,1,1,1,4,0.424537272752669,0.438479090868215
"1249",32,39,2,2,49,2,2,1,4,0.597233801973253,0.496731557617961
"1250",32,18,2,1,50,3,1,1,3,0.823745147445505,0.888398619616233
"1251",32,19,2,1,51,2,1,1,4,0.602257876151254,0.605584986074163
"1252",32,38,2,1,52,1,1,1,5,0.38657116796708,0.33622023139716
"1253",32,36,2,1,53,1,1,1,4,0.297674414381796,0.235259472963798
"1254",32,29,2,2,54,2,1,0,3,0.734626702383375,0.730871967865083
"1255",32,25,2,1,55,2,1,1,3,0.698865797422859,0.767113907918236
"1256",32,40,2,1,56,3,1,1,3,0.664943791531782,0.694406799095998
"1257",32,21,2,2,57,3,1,0,1,1.38534268333615,1.33632851753053
"1258",32,39,2,1,58,2,2,0,3,0.864094805639991,0.970714727382271
"1259",32,39,2,2,59,1,2,1,4,0.484711327407388,0.452463337708762
"1260",32,18,2,2,60,2,2,1,4,0.418051429101828,0.450575108706478
"1261",32,19,2,1,61,1,1,1,4,0.405643319748384,0.419579141448019
"1262",32,38,2,1,62,1,1,1,4,0.422675057137365,0.491841725347857
"1263",32,36,2,1,63,1,1,1,4,0.446567003482187,0.35305638411374
"1264",32,29,2,2,64,1,1,0,3,0.489005292178669,0.519766637197555
"1265",32,25,2,1,65,2,1,1,4,0.756500889489768,0.801732601554723
"1266",32,40,2,2,66,1,2,1,4,0.486894949040257,0.530346993291701
"1267",32,21,2,1,67,3,2,0,1,0.422128317270966,0.40887959283574
"1268",32,39,2,1,68,3,2,0,1,1.17638048730759,1.20337469065152
"1269",32,39,2,1,69,2,1,1,3,0.591643971300094,0.589364335205075
"1270",32,18,2,2,70,1,2,1,4,0.364328729795011,0.336071067857006
"1271",32,19,2,2,71,1,2,1,5,0.394072439028947,0.409729124809299
"1272",32,38,2,2,72,1,2,1,5,0.374282085579852,0.453175135127442
"1273",32,36,2,1,73,2,1,1,3,0.432054976902697,0.457851263629868
"1274",32,29,2,2,74,3,2,1,3,0.960850308060891,1.04587649524529
"1275",32,25,2,1,75,3,2,0,2,0.684601826228545,0.653403962542388
"1276",32,40,2,2,76,3,2,1,2,0.827001901428084,0.816567341148124
"1277",32,21,2,1,77,3,2,0,1,1.33811152707547,1.30265554653008
"1278",32,39,2,1,78,1,1,1,5,0.308828313534298,0.334425006362002
"1279",32,39,2,1,79,3,2,0,2,0.934830652759042,0.947268463391496
"1280",32,18,2,2,80,1,1,0,4,0.582030522826694,0.56540246933305
"1281",32,19,2,1,81,1,1,1,4,0.372103986114586,0.277735872547882
"1282",32,38,2,2,82,1,2,1,5,0.354613646398865,0.369322570275354
"1283",32,36,2,2,83,3,1,0,2,1.14183684117544,1.1259408265906
"1284",32,29,2,1,84,2,2,0,3,0.618097500707221,0.586141387935056
"1285",32,25,2,1,85,1,1,1,4,0.424321413860114,0.501315488717411
"1286",32,40,2,1,86,2,1,1,3,0.587965147129918,0.591960083361935
"1287",32,21,2,2,87,1,1,0,3,0.444618970293951,0.556898012687989
"1288",32,39,2,2,88,2,2,1,3,0.449086374325616,0.39296478393527
"1289",32,39,2,1,89,3,1,1,3,0.890930301111909,1.01384024126157
"1290",32,18,2,1,90,1,1,1,4,0.310618287157155,0.282437705336053
"1291",32,19,2,2,91,1,2,1,5,0.486996731899838,0.433249704519404
"1292",32,38,2,2,92,1,1,0,3,0.537018106653947,0.524932451333591
"1293",32,36,2,1,93,1,2,0,3,0.46976709933371,0.489454806372234
"1294",32,29,2,2,94,3,1,0,1,0.6837261679313,0.708431763584117
"1295",32,25,2,2,95,3,2,1,3,0.680317765623458,0.667238406032351
"1296",32,40,2,2,96,3,1,0,1,0.951412229986025,1.00731672455296
"1297",32,21,2,1,97,2,1,1,3,0.688472536472239,0.572830097784445
"1298",32,39,2,1,98,3,1,1,3,0.944659573933995,0.938223663818142
"1299",32,39,2,1,99,2,2,0,3,0.389377648601543,0.422409163334418
"1300",32,18,2,2,100,1,2,1,5,0.311383658088479,0.395915052292342
"1301",32,19,2,2,101,1,2,1,4,0.441379890433592,0.515583753008514
"1302",32,38,2,1,102,2,2,0,3,0.353757389308774,0.320076405255166
"1303",32,36,2,2,103,3,2,1,2,0.567740007117538,0.522254906978227
"1304",32,29,2,1,104,1,1,1,4,0.535129605929957,0.564656020524263
"1305",32,25,2,2,105,1,2,1,4,0.376875912937389,0.421216952398953
"1306",32,40,2,1,106,3,2,0,1,0.944756829831547,0.947925117301866
"1307",32,21,2,1,107,2,1,1,3,0.697305350375099,0.714522395470819
"1308",32,39,2,2,108,3,2,1,2,0.384439702446966,0.351745336675223
"1309",32,39,2,2,109,1,2,1,4,0.505040440131888,0.508949879329519
"1310",32,18,2,1,110,3,2,0,1,0.745055426245805,0.76822573295414
"1311",32,19,2,2,111,3,2,1,2,0.683219109381724,0.715416213945654
"1312",32,38,2,2,112,3,2,1,2,0.73325923132454,0.704759187868795
"1313",32,36,2,2,113,2,2,1,3,0.846706472472195,0.77324738746301
"1314",32,29,2,2,114,3,2,1,3,0.458659105192032,0.470482560687034
"1315",32,25,2,2,115,1,2,1,4,0.401174535126927,0.430223224055679
"1316",32,40,2,2,116,1,2,1,4,0.27556649410674,0.236751444287908
"1317",32,21,2,2,117,1,2,1,5,0.302668705364163,0.345899659418074
"1318",32,39,2,1,118,1,1,1,5,0.451701937570799,0.519181139109962
"1319",32,39,2,1,119,1,2,0,4,0.356063989596673,0.381348958488612
"1320",32,18,2,1,120,3,1,1,3,0.737470261224279,0.800041691291047
"1321",32,19,2,2,121,3,2,1,2,0.947005121033172,1.05912577946744
"1322",32,38,2,2,122,2,1,0,3,0.88225270408095,0.935496334668194
"1323",32,36,2,2,123,2,2,1,4,0.552161855329465,0.532902756554209
"1324",32,29,2,1,124,3,2,0,2,0.39375639197688,0.387226333135362
"1325",32,25,2,2,125,2,1,0,3,0.612428352538559,0.600163165501334
"1326",32,40,2,2,126,3,1,0,1,0.860129367341656,0.835073892784332
"1327",32,21,2,1,127,3,2,0,2,0.966080579257314,1.01249250358293
"1328",32,39,2,2,128,1,2,1,5,0.478390743375926,0.401513512957611
"1329",32,39,2,2,129,1,2,1,5,0.267452741227165,0.281537521186184
"1330",32,18,2,2,130,3,1,0,1,0.6584086678609,0.674475728772582
"1331",32,19,2,2,131,3,1,0,1,1.20453197548113,1.27419965345801
"1332",32,38,2,1,132,2,1,1,3,0.480054333397712,0.536579823166472
"1333",32,36,2,1,133,2,1,1,3,0.438255609481593,0.411698742904486
"1334",32,29,2,2,134,3,1,0,2,0.704100912946798,0.726807469050598
"1335",32,25,2,2,135,2,1,0,2,0.782844530523493,0.899665893999257
"1336",32,40,2,1,136,3,2,0,2,0.745393887251566,0.713427183668367
"1337",32,21,2,1,137,3,2,0,2,1.04260323674261,0.9958018878088
"1338",32,39,2,1,138,3,2,0,2,1.04443772406146,1.00541892890156
"1339",32,39,2,1,139,3,1,1,3,1.17789066247717,1.17598102142775
"1340",32,18,2,2,140,1,1,0,3,0.670429524412091,0.638446102393192
"1341",32,19,2,2,141,2,2,1,4,0.608090262487008,0.523939011378284
"1342",32,38,2,1,142,3,1,1,3,0.607493169586742,0.583416266938156
"1343",32,36,2,1,143,2,2,0,3,0.643078468270168,0.630585892582634
"1344",32,29,2,2,144,3,1,0,1,0.517061763300213,0.600260346553937
"1345",32,25,2,1,145,1,1,1,4,0.497742703619732,0.529929695446202
"1346",32,40,2,1,146,2,1,1,3,0.45311595894093,0.462978617566874
"1347",32,21,2,2,147,2,1,0,2,0.808992227182812,0.767566972797055
"1348",32,39,2,2,148,1,2,1,5,0.251085218424453,0.236815312797112
"1349",32,39,2,2,149,1,2,1,5,0.489293166364615,0.494063621937133
"1350",32,18,2,2,150,3,2,1,3,1.15930383367913,1.11620046437919
"1351",32,19,2,2,151,1,1,0,4,0.519751250757829,0.617659877032621
"1352",32,38,2,2,152,1,2,1,4,0.361378253024878,0.455236074477482
"1353",32,36,2,1,153,3,1,1,3,0.581572613003847,0.541128170414043
"1354",32,29,2,2,154,2,2,1,4,0.581378748167762,0.57940025579322
"1355",32,25,2,2,155,1,2,1,4,0.529858772448123,0.527111353974967
"1356",32,40,2,1,156,2,2,0,2,0.662501208802748,0.563089074652966
"1357",32,21,2,1,157,3,1,1,2,0.731675722735237,0.748208887449141
"1358",32,39,2,2,158,2,2,1,3,0.525482786055891,0.557660634996162
"1359",32,39,2,2,159,3,1,0,2,0.569422803518964,0.587268144397818
"1360",32,18,2,1,160,2,1,1,3,0.54292994285595,0.594766492045139
"1361",32,19,2,2,161,2,2,1,3,0.468289112041272,0.446214852394529
"1362",32,38,2,1,162,1,1,1,5,0.296535552864023,0.256067102425286
"1363",32,36,2,1,163,3,1,1,2,0.723969521179991,0.751975498941122
"1364",32,29,2,2,164,3,1,0,1,0.605262864553975,0.705094599091882
"1365",32,25,2,1,165,2,2,0,2,0.594784819532406,0.559770789973054
"1366",32,40,2,2,166,3,1,0,1,0.758989615209777,0.778323699781982
"1367",32,21,2,2,167,3,2,1,3,0.865503897050887,0.849436891494338
"1368",32,39,2,2,168,2,2,1,3,0.649693135007859,0.689725008468501
"1369",32,39,2,1,169,2,1,1,4,0.567509810522399,0.51334139873573
"1370",32,18,2,1,170,2,2,0,2,0.463465452193948,0.43666427779118
"1371",32,19,2,2,171,3,1,0,1,0.948673517108101,0.981452370557076
"1372",32,38,2,2,172,2,2,1,3,0.566710274111264,0.529775654903075
"1373",32,36,2,2,173,2,1,0,2,0.765313229643262,0.744179145705524
"1374",32,29,2,2,174,2,2,1,3,0.624834427657077,0.52405510304288
"1375",32,25,2,1,175,2,1,1,3,0.651019801203999,0.685669974255043
"1376",32,40,2,2,176,2,2,1,4,0.495959035205763,0.401930707797538
"1377",32,21,2,1,177,2,1,1,4,0.810569829483273,0.862276192425362
"1378",32,39,2,1,178,2,1,1,4,0.557541197494129,0.56017090072551
"1379",32,39,2,1,179,1,1,1,5,0.316797576316077,0.252832924635119
"1380",32,18,2,1,180,1,2,0,3,0.661683383072873,0.595959690874925
"1381",32,19,2,1,181,1,1,1,4,0.374650443115365,0.40115109024498
"1382",32,38,2,2,182,2,2,1,3,0.321233612282381,0.237191435837571
"1383",32,36,2,1,183,1,1,1,5,0.360554240272292,0.30906938098562
"1384",32,29,2,1,184,2,2,0,3,0.577827639671628,0.636921240309453
"1385",32,25,2,2,185,2,2,1,4,0.613596103046609,0.567886128806531
"1386",32,40,2,1,186,2,1,1,3,0.674850991154779,0.590492882175666
"1387",32,21,2,1,187,2,2,0,2,0.679820540643751,0.633247300686234
"1388",32,39,2,2,188,1,2,1,4,0.277069940554752,0.252417752697441
"1389",32,39,2,2,189,3,2,1,2,1.21487317271695,1.1468346695188
"1390",32,18,2,1,190,3,2,0,2,1.32995554627724,1.35543597368707
"1391",32,19,2,1,191,1,1,1,4,0.502269887880498,0.5861640857891
"1392",32,38,2,1,192,2,2,0,2,0.704556678852019,0.633471570539364
"1393",32,36,2,2,193,2,1,0,3,0.73636192626532,0.717982924819494
"1394",32,29,2,2,194,3,1,0,1,1.50746080888183,1.45520691772197
"1395",32,25,2,2,195,3,1,0,1,1.11132503741353,1.18064331379767
"1396",32,40,2,1,196,1,2,0,4,0.653543240285328,0.654016374289114
"1397",32,21,2,2,197,3,2,1,2,0.636783907105745,0.737352117083473
"1398",32,39,2,1,198,3,1,1,2,0.768577422834523,0.80220081141089
"1399",32,39,2,1,199,2,1,1,4,0.748542971823243,0.714694985619454
"1400",32,18,2,1,200,3,2,0,1,1.09819307822088,1.23431850109476
"1401",32,19,2,2,201,3,2,1,3,0.686905588214975,0.722410338233195
"1402",32,38,2,2,202,2,1,0,2,1.0433815143056,1.02494047960673
"1403",32,36,2,1,203,2,1,1,3,0.617464251108369,0.56180457038102
"1404",32,29,2,2,204,1,2,1,5,0.480372641849361,0.439429276058574
"1405",32,25,2,2,205,1,1,0,3,0.594264113321173,0.543363480348123
"1406",32,40,2,2,206,2,2,1,4,0.84994379945099,0.845638989845444
"1407",32,21,2,1,207,1,1,1,5,0.371820764244976,0.370336830197976
"1408",32,39,2,1,208,3,1,1,2,0.464023799422146,0.42246898878944
"1409",32,39,2,1,209,1,2,0,3,0.434450849373222,0.450515362098293
"1410",32,18,2,1,210,1,1,1,4,0.403214346805659,0.368490158458248
"1411",32,19,2,1,211,2,1,1,3,0.599785892280914,0.579315192436352
"1412",32,38,2,1,212,3,1,1,3,0.901211850692264,0.82784367932815
"1413",32,36,2,1,213,1,1,1,4,0.389571116384652,0.279487180027845
"1414",32,29,2,2,214,1,2,1,4,0.324920491893031,0.274611757321701
"1415",32,25,2,2,215,1,2,1,5,0.499090119937028,0.534285080608008
"1416",32,40,2,2,216,1,2,1,5,0.391463730299246,0.44121653086793
"1417",32,21,2,1,217,1,1,1,5,0.461404201957288,0.483776299253114
"1418",32,39,2,2,218,1,2,1,4,0.444668499854088,0.421872563205856
"1419",32,39,2,2,219,3,2,1,2,0.616788669559751,0.673376294984131
"1420",32,18,2,1,220,3,1,1,3,0.693640871147493,0.706742777024842
"1421",32,19,2,1,221,1,1,1,4,0.423803383248938,0.32657156207852
"1422",32,38,2,1,222,2,1,1,4,0.449419911050589,0.421185086031243
"1423",32,36,2,1,223,3,1,1,3,0.877266653917892,0.919349311323539
"1424",32,29,2,2,224,2,2,1,3,0.614576120549142,0.646695889063513
"1425",32,25,2,1,225,3,2,0,1,0.719805749832728,0.703720423020028
"1426",32,40,2,2,226,1,2,1,4,0.510636855792245,0.448588371847064
"1427",32,21,2,1,227,2,2,0,2,0.771006192696112,0.645789465985087
"1428",32,39,2,2,228,2,2,1,3,0.580109196635244,0.635024852021368
"1429",32,39,2,1,229,2,2,0,3,0.494505281068106,0.424111333825152
"1430",32,18,2,2,230,1,2,1,5,0.386424487539089,0.285992252921947
"1431",32,19,2,2,231,3,2,1,2,1.14867801392988,1.0947083068409
"1432",32,38,2,1,232,1,1,1,4,0.490641543991789,0.461030052109772
"1433",32,36,2,2,233,3,2,1,3,0.528149927026379,0.397535782402567
"1434",32,29,2,1,234,3,2,0,1,0.2120165377731,0.183074659220869
"1435",32,25,2,1,235,2,1,1,3,0.616294454286088,0.5728168075124
"1436",32,40,2,2,236,3,2,1,3,0.566990341591849,0.495532696265344
"1437",32,21,2,1,237,2,1,1,3,0.577461531889853,0.630861556028112
"1438",32,39,2,2,238,2,2,1,4,0.733232505281268,0.694151392244488
"1439",32,39,2,2,239,1,2,1,4,0.433665079692029,0.405059824297508
"1440",32,18,2,1,240,2,2,0,2,0.788838884675686,0.781835596515826
"1441",31,39,1,2,1,3,2,1,3,0.734032078295408,0.78859732504759
"1442",31,26,1,2,2,2,2,1,3,0.64518094585079,0.683939697791429
"1443",31,23,1,1,3,3,2,0,2,0.414336397395788,0.455272228264392
"1444",31,36,1,2,4,2,1,0,3,0.776136708001013,0.802809491713808
"1445",31,21,1,2,5,1,2,1,4,0.325761671070819,0.286145812773504
"1446",31,32,1,1,6,3,1,1,2,0.718463051493144,0.742301337925235
"1447",31,23,1,2,7,2,1,0,3,0.607800185125614,0.551861818181212
"1448",31,33,1,2,8,3,1,0,2,0.95272446081145,1.00000528470994
"1449",31,40,1,1,9,3,2,0,1,0.597461668879963,0.596102577071105
"1450",31,39,1,1,10,2,2,0,2,0.747918366265061,0.764835694524399
"1451",31,39,1,1,11,2,1,1,3,0.632654778962496,0.645525829115783
"1452",31,26,1,1,12,1,2,0,3,0.667123306150326,0.603923453740858
"1453",31,23,1,1,13,1,1,1,5,0.477844393202148,0.554976306686074
"1454",31,36,1,1,14,3,1,1,3,0.499012569898777,0.541562684165141
"1455",31,21,1,1,15,2,1,1,4,0.521336487821888,0.492585337986524
"1456",31,32,1,2,16,2,1,0,3,0.826706246777782,0.835920684418853
"1457",31,23,1,2,17,1,2,1,4,0.282838168706281,0.253553433498488
"1458",31,33,1,1,18,2,1,1,4,0.499745463382283,0.38572279659366
"1459",31,40,1,2,19,2,1,0,2,0.412909230035054,0.373458214756741
"1460",31,39,1,1,20,2,2,0,2,0.692184449382722,0.629974326434326
"1461",31,39,1,2,21,2,2,1,3,0.715272940315468,0.745744496197196
"1462",31,26,1,2,22,3,2,1,3,0.829745668198691,0.84785769583877
"1463",31,23,1,1,23,2,1,1,4,0.562422652487518,0.551013806131423
"1464",31,36,1,2,24,1,2,1,5,0.287474813672928,0.301612037784526
"1465",31,21,1,2,25,2,2,1,3,0.574481103404767,0.607609429682204
"1466",31,32,1,1,26,2,1,1,3,0.678531076524962,0.681171405859677
"1467",31,23,1,2,27,3,2,1,3,0.983972921340366,0.912385990923526
"1468",31,33,1,2,28,2,2,1,4,0.603081503254746,0.698421899193047
"1469",31,40,1,2,29,2,2,1,4,0.723833415206417,0.707503542223957
"1470",31,39,1,2,30,1,1,0,3,0.422171297180964,0.455978221614154
"1471",31,39,1,2,31,2,1,0,3,0.895569676219101,0.792139177953022
"1472",31,26,1,2,32,1,1,0,3,0.416488466746172,0.484069568600514
"1473",31,23,1,2,33,1,2,1,4,0.428908562963644,0.315369218969458
"1474",31,36,1,2,34,3,2,1,2,0.714044692273725,0.767314898634189
"1475",31,21,1,2,35,1,2,1,5,0.254877798270855,0.195419128742556
"1476",31,32,1,2,36,1,2,1,5,0.360105112235961,0.358014243930946
"1477",31,23,1,1,37,1,1,1,4,0.347560992676892,0.426449230847055
"1478",31,33,1,2,38,2,1,0,3,0.651538388798656,0.668392125313254
"1479",31,40,1,1,39,3,1,1,3,0.959514765432949,0.943881970967719
"1480",31,39,1,2,40,3,1,0,1,1.19359045070066,1.16470129113249
"1481",31,39,1,2,41,3,2,1,3,0.923838250257583,0.913826954492158
"1482",31,26,1,1,42,3,2,0,2,1.05506202500154,1.04064065740472
"1483",31,23,1,1,43,3,1,1,2,0.651689766109253,0.616254258006735
"1484",31,36,1,1,44,3,2,0,1,0.770865063470316,0.660461494337635
"1485",31,21,1,2,45,2,2,1,3,0.736866928975754,0.744155676840942
"1486",31,32,1,2,46,2,1,0,2,0.835923580016314,0.834944217506877
"1487",31,23,1,1,47,2,2,0,2,0.858450792437932,0.913248783708919
"1488",31,33,1,2,48,2,2,1,3,0.802995052992301,0.862662654589459
"1489",31,40,1,2,49,3,1,0,1,1.45722166712193,1.35105638248261
"1490",31,39,1,1,50,2,2,0,2,0.333928467734978,0.325673637421456
"1491",31,39,1,2,51,2,1,0,3,0.710642353987301,0.742534490769931
"1492",31,26,1,1,52,2,2,0,3,0.629822850124485,0.592922664154665
"1493",31,23,1,1,53,3,1,1,3,0.675212110163516,0.69085399183319
"1494",31,36,1,2,54,3,2,1,2,1.00659917166499,1.06414509663386
"1495",31,21,1,1,55,1,1,1,4,0.486091301541862,0.494102708698742
"1496",31,32,1,2,56,1,2,1,4,0.404056459080727,0.505524722775134
"1497",31,23,1,1,57,2,2,0,3,0.906316598908667,0.839909999127363
"1498",31,33,1,1,58,1,1,1,4,0.417999308942044,0.424704091183423
"1499",31,40,1,2,59,2,1,0,3,0.6333562354179,0.656805544273498
"1500",31,39,1,2,60,2,1,0,3,0.689968380271365,0.653637616345907
"1501",31,39,1,1,61,1,1,1,4,0.50489758485904,0.586073315128622
"1502",31,26,1,1,62,3,2,0,1,1.93507120044802,1.99333475932593
"1503",31,23,1,2,63,3,2,1,3,1.1308624667291,1.21464464582409
"1504",31,36,1,1,64,3,2,0,1,0.31854065295852,0.375862002972804
"1505",31,21,1,2,65,3,2,1,2,1.25403519460788,1.25227921341269
"1506",31,32,1,2,66,1,2,1,5,0.216708769920172,0.174798766694713
"1507",31,23,1,2,67,1,2,1,4,0.413296024625814,0.392156736945639
"1508",31,33,1,2,68,3,1,0,1,0.909575539068679,0.914095238233458
"1509",31,40,1,2,69,1,2,1,5,0.436275725361167,0.424301875821824
"1510",31,39,1,1,70,3,1,1,2,0.951517575233841,1.06371708726836
"1511",31,39,1,1,71,3,1,1,3,1.14404992857948,1.17517795413759
"1512",31,26,1,1,72,3,2,0,1,1.31870129366503,1.24733697667293
"1513",31,23,1,2,73,1,2,1,5,0.224050356715911,0.217309274994487
"1514",31,36,1,2,74,1,2,1,4,0.418140681188888,0.479021409544918
"1515",31,21,1,2,75,2,2,1,4,0.558305754257795,0.614279214474822
"1516",31,32,1,2,76,1,1,0,3,0.459590223245826,0.472330153086472
"1517",31,23,1,1,77,3,2,0,1,1.32024664175444,1.33376426216017
"1518",31,33,1,1,78,2,2,0,3,0.782666155653875,0.752350964676468
"1519",31,40,1,1,79,1,1,1,5,0.302418917647681,0.344080202290001
"1520",31,39,1,1,80,3,1,1,3,0.690083937140958,0.701831682066106
"1521",31,39,1,2,81,3,1,0,2,0.629438562259986,0.658906841173834
"1522",31,26,1,2,82,3,2,1,3,1.08682211741476,1.11536086610756
"1523",31,23,1,2,83,2,1,0,2,0.867446231192671,0.833212337413258
"1524",31,36,1,1,84,3,1,1,2,0.87449985243888,0.861264614942168
"1525",31,21,1,1,85,2,2,0,2,0.674621537346175,0.787113685136636
"1526",31,32,1,1,86,3,1,1,2,0.462035800421989,0.420815884127032
"1527",31,23,1,2,87,2,1,0,2,0.589886359645608,0.505706651270283
"1528",31,33,1,1,88,1,1,1,4,0.378741383518719,0.390770605305252
"1529",31,40,1,1,89,1,1,1,4,0.381220684259627,0.401142078568087
"1530",31,39,1,1,90,3,2,0,2,0.709038893494445,0.684586775931388
"1531",31,39,1,2,91,2,1,0,2,0.652237986895949,0.652969831548823
"1532",31,26,1,2,92,1,2,1,5,0.558380044242869,0.496516637860833
"1533",31,23,1,1,93,2,2,0,2,0.8656041213634,0.857393336172836
"1534",31,36,1,2,94,1,2,1,4,0.41868173541113,0.46202938115509
"1535",31,21,1,1,95,2,1,1,4,0.430274049555388,0.416113706203369
"1536",31,32,1,1,96,2,2,0,3,0.748102528503339,0.675791400296732
"1537",31,23,1,1,97,3,2,0,2,1.08620152301392,1.11169076398366
"1538",31,33,1,2,98,2,1,0,3,0.859389146085797,0.865442519417146
"1539",31,40,1,1,99,2,2,0,2,0.901327566169302,0.959050399648931
"1540",31,39,1,2,100,1,1,0,4,0.616595455531917,0.580313278924118
"1541",31,39,1,1,101,1,1,1,5,0.327915906268688,0.378040213361449
"1542",31,26,1,2,102,2,1,0,2,0.664228428875963,0.666615023098953
"1543",31,23,1,2,103,1,2,1,5,0.41081679026118,0.457537392603913
"1544",31,36,1,2,104,1,2,1,4,0.368278342263116,0.40969099135131
"1545",31,21,1,2,105,1,2,1,5,0.519574825579279,0.507390514476487
"1546",31,32,1,1,106,3,1,1,3,0.937614768875032,1.01831174789127
"1547",31,23,1,2,107,2,1,0,3,0.720745225089143,0.742458887437524
"1548",31,33,1,1,108,3,1,1,2,0.619219343289485,0.524717155252545
"1549",31,40,1,2,109,1,2,1,4,0.439201643927862,0.576220348842104
"1550",31,39,1,1,110,3,2,0,2,0.402988595946646,0.389420212276414
"1551",31,39,1,1,111,1,1,1,5,0.494569553375992,0.533627754205556
"1552",31,26,1,1,112,1,2,0,4,0.429557336165697,0.29704672356844
"1553",31,23,1,2,113,1,2,1,5,0.388330157800848,0.270734121764291
"1554",31,36,1,1,114,2,2,0,2,0.794933647740859,0.773066989340158
"1555",31,21,1,1,115,3,1,1,2,0.900775986185655,0.912143362145909
"1556",31,32,1,1,116,1,2,0,4,0.562299837158296,0.546719357299457
"1557",31,23,1,1,117,2,2,0,2,0.777206167778483,0.753687312531015
"1558",31,33,1,1,118,1,1,1,4,0.153505244361831,0.25403036041857
"1559",31,40,1,1,119,1,1,1,5,0.604999801941298,0.609934491904394
"1560",31,39,1,1,120,1,1,1,4,0.447699802437164,0.417913367968694
"1561",31,39,1,2,121,3,1,0,1,0.821336749415729,0.817316615658334
"1562",31,26,1,2,122,3,1,0,1,1.11965037098826,1.14193893375679
"1563",31,23,1,2,123,1,2,1,4,0.335812950746587,0.275194928891112
"1564",31,36,1,1,124,1,1,1,5,0.356341175819181,0.276654831879889
"1565",31,21,1,1,125,3,2,0,1,1.32381094561765,1.40349048579295
"1566",31,32,1,2,126,2,1,0,2,0.561482835403112,0.532902199396563
"1567",31,23,1,1,127,1,1,1,5,0.451781188438161,0.431951695323178
"1568",31,33,1,2,128,3,2,1,2,0.817772367959838,0.870788704301624
"1569",31,40,1,1,129,1,1,1,5,0.227981095487413,0.228400534399354
"1570",31,39,1,1,130,3,2,0,2,1.32112646312815,1.37389883138207
"1571",31,39,1,1,131,3,1,1,3,0.761306328462385,0.765964695841488
"1572",31,26,1,2,132,3,1,0,2,1.0632809761058,1.09214570654614
"1573",31,23,1,2,133,1,2,1,5,0.23869431689917,0.265869212696509
"1574",31,36,1,2,134,2,1,0,3,0.874773116704434,0.916285251313067
"1575",31,21,1,2,135,2,2,1,4,0.550899426399354,0.603271365926952
"1576",31,32,1,1,136,1,1,1,4,0.404235838517357,0.394669051812455
