"","subj_no","age","group","stim","trial","difficulty","resp","corr","conf","RT_day1","RT_day2"
"1",38,35,2,1,1,3,2,0,2,1.09418787720599,1.04082437527552
"2",38,30,2,2,2,2,1,0,2,0.56711369049883,0.518552538453806
"3",38,18,2,1,3,2,1,1,4,0.514445290031886,0.449117731903238
"4",38,40,2,1,4,3,2,0,1,0.468165082014559,0.497480464670506
"5",38,19,2,2,5,1,2,1,4,0.471039780613652,0.382496899282726
"6",38,32,2,1,6,3,2,0,2,0.686480446552589,0.752884050668316
"7",38,20,2,2,7,2,1,0,3,0.71529178810001,0.71679203013261
"8",38,26,2,1,8,2,1,1,4,0.693895536427846,0.660052548288375
"9",38,29,2,1,9,1,1,1,5,0.340406289057869,0.256022201433386
"10",38,40,2,2,10,3,2,1,3,0.787773376961765,0.769487754820692
"11",38,35,2,1,11,2,2,0,3,0.831960889685415,0.758061954029549
"12",38,30,2,1,12,3,2,0,1,1.75108157224708,1.80937602731705
"13",38,18,2,2,13,2,1,0,3,0.563868997428743,0.51048734939458
"14",38,40,2,1,14,2,1,1,3,0.852683115151123,0.792627900164107
"15",38,19,2,1,15,2,2,0,2,0.506435924071069,0.381567419103768
"16",38,32,2,2,16,1,2,1,5,0.419550422959587,0.465175305293312
"17",38,20,2,2,17,3,1,0,2,0.693055116732675,0.717790462981589
"18",38,26,2,1,18,1,1,1,5,0.486647223134796,0.457122971834027
"19",38,29,2,1,19,2,2,0,3,0.545958139101797,0.514887435644704
"20",38,40,2,1,20,1,1,1,5,0.370470859362731,0.354745456755375
"21",38,35,2,1,21,3,2,0,1,0.835806139218009,0.858536303554935
"22",38,30,2,1,22,3,1,1,2,0.777597582305142,0.649499926640704
"23",38,18,2,1,23,3,2,0,1,1.16806348937008,1.24150243416987
"24",38,40,2,2,24,3,1,0,2,1.00314577252447,0.966774093343948
"25",38,19,2,2,25,2,1,0,3,0.731505121043786,0.681465941385879
"26",38,32,2,1,26,3,1,1,3,1.04089992418593,0.989414568372029
"27",38,20,2,2,27,1,2,1,5,0.400638195398747,0.403305481747232
"28",38,26,2,2,28,3,2,1,3,0.69587144027099,0.757714485071939
"29",38,29,2,2,29,2,2,1,4,0.589228549366376,0.674521355229411
"30",38,40,2,2,30,3,1,0,1,1.21837117760847,1.3637214660122
"31",38,35,2,1,31,1,1,1,5,0.391970733866284,0.399868331355847
"32",38,30,2,1,32,2,2,0,2,0.617840479817055,0.65877886307291
"33",38,18,2,2,33,3,2,1,3,0.67667227066876,0.586189619627665
"34",38,40,2,2,34,3,1,0,1,0.609411447667281,0.566530570280246
"35",38,19,2,2,35,2,2,1,3,0.680937438537201,0.621816630965216
"36",38,32,2,2,36,2,2,1,4,0.553319067309285,0.555012427543538
"37",38,20,2,1,37,2,1,1,4,0.84453390568702,0.892056648868181
"38",38,26,2,1,38,3,1,1,3,0.651382935420334,0.660585135961082
"39",38,29,2,1,39,1,1,1,5,0.357613257623623,0.411115635892344
"40",38,40,2,2,40,1,2,1,5,0.323099711143345,0.290300114436633
"41",38,35,2,2,41,2,1,0,2,0.983458867136789,1.00710230556611
"42",38,30,2,2,42,3,2,1,2,0.731669988144703,0.702916858054514
"43",38,18,2,2,43,3,2,1,2,0.967905782866483,0.970900258269937
"44",38,40,2,1,44,1,1,1,5,0.385047728145281,0.344126644801376
"45",38,19,2,2,45,1,1,0,3,0.45431291235052,0.450226535438365
"46",38,32,2,2,46,2,2,1,3,0.815594713333826,0.855353289372793
"47",38,20,2,2,47,1,2,1,4,0.455603719354763,0.429599857122763
"48",38,26,2,1,48,1,1,1,4,0.341928985405685,0.313040793497914
"49",38,29,2,2,49,1,2,1,5,0.375289204065056,0.34912660844623
"50",38,40,2,1,50,2,1,1,3,0.578988806493905,0.573439919269624
"51",38,35,2,1,51,2,2,0,3,0.903754501438041,0.924439189237628
"52",38,30,2,1,52,2,1,1,4,0.4758422073879,0.559835084578477
"53",38,18,2,2,53,1,2,1,4,0.336243437007913,0.321918496376501
"54",38,40,2,1,54,2,1,1,4,0.622009687436034,0.635552925522699
"55",38,19,2,1,55,2,2,0,2,0.858605070475987,1.0126457695093
"56",38,32,2,2,56,1,2,1,4,0.336709778167004,0.370424412126892
"57",38,20,2,1,57,2,1,1,3,0.772638179768778,0.772734740931602
"58",38,26,2,1,58,3,1,1,2,0.723194709509738,0.662604085105774
"59",38,29,2,2,59,3,2,1,2,0.482208043129877,0.44597144798241
"60",38,40,2,2,60,2,1,0,2,0.658835676988058,0.651937154845073
"61",38,35,2,2,61,1,1,0,3,0.621411386056078,0.638272245930724
"62",38,30,2,1,62,2,1,1,3,0.467101222369928,0.441664155277104
"63",38,18,2,1,63,2,2,0,3,0.736608698192906,0.662299228819071
"64",38,40,2,2,64,2,2,1,4,0.431805193010469,0.486562416816985
"65",38,19,2,1,65,2,2,0,3,0.584156685670673,0.562959899833417
"66",38,32,2,2,66,1,1,0,4,0.386354489512346,0.324300966097387
"67",38,20,2,1,67,3,1,1,2,0.577527586861841,0.562514695178486
"68",38,26,2,1,68,2,1,1,3,0.83289823503456,0.882375582557746
"69",38,29,2,1,69,1,1,1,5,0.310629351124363,0.237104831820513
"70",38,40,2,1,70,1,1,1,5,0.465525104173571,0.417912891772159
"71",38,35,2,2,71,2,2,1,4,0.697837904920733,0.854013626106221
"72",38,30,2,2,72,2,1,0,3,0.966685337608595,1.00634982084841
"73",38,18,2,2,73,1,2,1,4,0.448742226873072,0.469308793862162
"74",38,40,2,2,74,3,2,1,2,0.956231502910333,0.853458784878714
"75",38,19,2,2,75,3,2,1,2,0.817832886927236,0.922391614277469
"76",38,32,2,1,76,1,1,1,5,0.424145407461425,0.476248374217029
"77",38,20,2,1,77,1,1,1,5,0.466863412549718,0.493214487753042
"78",38,26,2,1,78,2,2,0,3,0.729814386991834,0.759288109311688
"79",38,29,2,2,79,3,2,1,3,0.465822967502168,0.470498323643968
"80",38,40,2,2,80,2,2,1,4,0.454079112152343,0.438931946545984
"81",38,35,2,1,81,3,1,1,2,0.894758018457601,0.934313098389739
"82",38,30,2,2,82,1,2,1,5,0.230287063488341,0.149081793790061
"83",38,18,2,1,83,2,1,1,3,0.634276143020423,0.720770132474032
"84",38,40,2,2,84,1,1,0,3,0.619060597457858,0.579163835766785
"85",38,19,2,1,85,1,1,1,4,0.399054048525238,0.415682757855317
"86",38,32,2,1,86,2,1,1,4,0.579218477779963,0.503922727428761
"87",38,20,2,1,87,1,1,1,4,0.385138915696659,0.338192956385795
"88",38,26,2,2,88,1,2,1,5,0.414924584880405,0.389848260351572
"89",38,29,2,2,89,2,1,0,3,0.794160130451763,0.792139377396759
"90",38,40,2,2,90,1,1,0,3,0.510355609597866,0.515639675576535
"91",38,35,2,2,91,2,2,1,4,0.749980681752321,0.713356944259423
"92",38,30,2,1,92,3,2,0,1,1.02850565713357,1.0390732597256
"93",38,18,2,2,93,3,1,0,2,1.00177287569122,1.03721828312789
"94",38,40,2,1,94,2,1,1,4,0.581750625365736,0.663630114934355
"95",38,19,2,1,95,2,1,1,4,0.711699091153068,0.630209048973149
"96",38,32,2,1,96,2,2,0,3,0.807832106590621,0.807370390810699
"97",38,20,2,1,97,3,1,1,3,0.851819127159899,0.854232017877859
"98",38,26,2,2,98,1,2,1,5,0.413884091707037,0.399544275693096
"99",38,29,2,2,99,1,2,1,4,0.54072689464477,0.484624749252756
"100",38,40,2,2,100,2,2,1,4,0.686787858847252,0.713492812088708
"101",38,35,2,2,101,3,2,1,2,0.800828297180513,0.74072656751865
"102",38,30,2,2,102,1,2,1,5,0.417698536219961,0.442832350118682
"103",38,18,2,2,103,2,1,0,3,0.996346857939368,0.993354261727614
"104",38,40,2,2,104,1,2,1,5,0.496985653153135,0.468212927523515
"105",38,19,2,1,105,3,2,0,1,1.49042727411581,1.43174840835897
"106",38,32,2,1,106,3,2,0,1,0.829698175531758,0.86110443642987
"107",38,20,2,2,107,2,1,0,2,0.443420274220037,0.474488004704579
"108",38,26,2,2,108,1,2,1,4,0.335386232768974,0.380178420874471
"109",38,29,2,2,109,2,2,1,4,0.726266704186753,0.720690404781534
"110",38,40,2,2,110,3,2,1,3,0.811835919411873,0.780357722585706
"111",38,35,2,1,111,1,1,1,5,0.356874840922434,0.285779767803731
"112",38,30,2,1,112,2,2,0,2,0.765719727903286,0.796318885559784
"113",38,18,2,1,113,1,1,1,5,0.419982795830772,0.324993413513844
"114",38,40,2,1,114,2,2,0,3,0.729125605223377,0.793108314310176
"115",38,19,2,1,115,3,2,0,2,1.25234386195389,1.26555233254655
"116",38,32,2,2,116,1,2,1,4,0.413599710179722,0.434310764799577
"117",38,20,2,2,117,1,2,1,5,0.360504165800633,0.322097556334902
"118",38,26,2,2,118,3,1,0,1,0.683043586105045,0.638706366939042
"119",38,29,2,2,119,2,2,1,3,0.559579837895241,0.550661181418356
"120",38,40,2,1,120,3,2,0,1,0.422085680994774,0.43710543089315
"121",38,35,2,2,121,3,2,1,2,1.14393695065108,1.15346453911848
"122",38,30,2,1,122,1,1,1,4,0.474847320130351,0.474714926281052
"123",38,18,2,1,123,3,1,1,3,0.800256534619607,0.835085144834359
"124",38,40,2,1,124,1,1,1,5,0.400982401277173,0.407988842486219
"125",38,19,2,2,125,1,2,1,4,0.481754186900855,0.495993173303548
"126",38,32,2,2,126,1,2,1,4,0.585072784285486,0.630970720289927
"127",38,20,2,1,127,3,1,1,3,1.29491319467041,1.29558991138012
"128",38,26,2,1,128,1,2,0,4,0.498803536211614,0.548862580155492
"129",38,29,2,1,129,3,2,0,1,1.29066714476889,1.3404642774886
"130",38,40,2,2,130,1,2,1,4,0.407926949438157,0.37918602829619
"131",38,35,2,1,131,3,1,1,2,0.950558631788262,0.891543681341444
"132",38,30,2,2,132,3,2,1,3,0.43855814783369,0.544439267868573
"133",38,18,2,2,133,2,2,1,3,0.595744785133968,0.606095352496298
"134",38,40,2,1,134,1,1,1,4,0.472284780663716,0.475765648918101
"135",38,19,2,2,135,1,2,1,4,0.400316075847851,0.361651013431282
"136",38,32,2,2,136,3,2,1,3,0.433658584502505,0.50677017090831
"137",38,20,2,1,137,2,1,1,3,0.557747507799194,0.557898330793154
"138",38,26,2,2,138,1,2,1,4,0.573731877695482,0.601138416414465
"139",38,29,2,2,139,2,2,1,3,0.673102952942635,0.664300407018567
"140",38,40,2,1,140,3,1,1,2,0.706439439199682,0.598673132709858
"141",38,35,2,2,141,2,1,0,3,0.724405529516224,0.711533513076556
"142",38,30,2,2,142,1,2,1,4,0.254055597384352,0.244461466080833
"143",38,18,2,1,143,3,2,0,2,1.25253758363018,1.26175509741132
"144",38,40,2,1,144,1,1,1,5,0.425499653223077,0.45569898894993
"145",38,19,2,1,145,1,1,1,5,0.303315792644517,0.308947731450229
"146",38,32,2,1,146,3,2,0,1,0.779884222599239,0.79425775349943
"147",38,20,2,2,147,3,1,0,2,0.601211374748702,0.527878361284431
"148",38,26,2,1,148,2,1,1,3,0.662117888049798,0.758700501410141
"149",38,29,2,1,149,3,2,0,1,1.16059924153167,1.14108623345909
"150",38,40,2,2,150,1,1,0,3,0.524177934771383,0.499752087771449
"151",38,35,2,1,151,1,1,1,5,0.40440389329934,0.43461596686166
"152",38,30,2,2,152,2,2,1,4,0.557796108559277,0.528534276525495
"153",38,18,2,1,153,3,2,0,2,0.788745927330269,0.899349115663389
"154",38,40,2,2,154,3,1,0,1,1.02656433209198,1.11260626146369
"155",38,19,2,2,155,3,1,0,2,1.65603777005577,1.62095819387739
"156",38,32,2,2,156,2,2,1,4,0.577261374038892,0.507285402043962
"157",38,20,2,1,157,3,1,1,2,0.769280548858253,0.786041927975022
"158",38,26,2,2,158,1,1,0,3,0.67034614737899,0.74084050190124
"159",38,29,2,2,159,3,2,1,2,0.611407343809387,0.580142472510597
"160",38,40,2,1,160,1,1,1,4,0.40759774502219,0.414237555299304
"161",38,35,2,1,161,1,1,1,4,0.523615094591484,0.517584184555163
"162",38,30,2,1,162,3,1,1,3,0.753494183120385,0.561203979889337
"163",38,18,2,1,163,1,1,1,4,0.438603722975763,0.451887110551977
"164",38,40,2,2,164,2,2,1,4,0.50046430645305,0.46879342812722
"165",38,19,2,1,165,1,1,1,4,0.257769044133881,0.233464975088776
"166",38,32,2,2,166,2,2,1,3,0.529280433059291,0.508723417129105
"167",38,20,2,2,167,3,2,1,3,0.946307412701389,0.911530143774554
"168",38,26,2,1,168,1,2,0,4,0.546436121703899,0.479283997399154
"169",38,29,2,1,169,3,1,1,2,1.09741564173509,1.10787836821517
"170",38,40,2,2,170,1,2,1,4,0.517239700978085,0.578108911839553
"171",38,35,2,2,171,2,1,0,3,0.68377114188149,0.721018282502013
"172",38,30,2,1,172,1,1,1,5,0.412138435256218,0.422388429352618
"173",38,18,2,2,173,3,2,1,2,0.935715497663882,0.925457914434307
"174",38,40,2,2,174,1,2,1,4,0.351683536323863,0.454708243073943
"175",38,19,2,1,175,1,2,0,3,0.573755279769464,0.500987270518948
"176",38,32,2,2,176,2,2,1,3,0.56313012364189,0.561414842142063
"177",38,20,2,2,177,3,1,0,2,0.879394009189469,0.925571017585621
"178",38,26,2,1,178,2,1,1,4,0.775089203885953,0.824023989916747
"179",38,29,2,1,179,2,2,0,3,0.708707325340323,0.732455846914876
"180",38,40,2,1,180,2,2,0,2,0.497623599919633,0.481188226129116
"181",38,35,2,1,181,3,1,1,3,0.405059367553834,0.449639991978942
"182",38,30,2,1,182,1,1,1,4,0.336973371132388,0.289249693584701
"183",38,18,2,2,183,1,2,1,4,0.450532825559363,0.484743785982745
"184",38,40,2,2,184,3,2,1,2,0.739218722161625,0.778437498822456
"185",38,19,2,2,185,2,1,0,2,0.757615435271144,0.761110029038483
"186",38,32,2,1,186,1,1,1,4,0.378540968083432,0.403000505762179
"187",38,20,2,2,187,2,2,1,4,0.434665856945268,0.432672955704139
"188",38,26,2,2,188,1,1,0,3,0.587896304158512,0.618699820396809
"189",38,29,2,2,189,2,2,1,4,0.473729069105066,0.474781320287737
"190",38,40,2,1,190,2,1,1,4,0.777202439814591,0.785109101385232
"191",38,35,2,2,191,2,2,1,4,0.608916359091876,0.61357163106287
"192",38,30,2,1,192,3,1,1,2,0.683509999246438,0.697871868380039
"193",38,18,2,1,193,1,1,1,5,0.575632239879651,0.555930460304691
"194",38,40,2,1,194,1,2,0,4,0.561540481734983,0.549020766651867
"195",38,19,2,1,195,1,1,1,4,0.447912874640844,0.468016083632806
"196",38,32,2,2,196,2,1,0,3,0.783418511369224,0.81650411763386
"197",38,20,2,1,197,1,1,1,5,0.312358406637157,0.401604932968476
"198",38,26,2,1,198,3,2,0,1,1.02850082635877,0.996391987715699
"199",38,29,2,2,199,3,1,0,2,0.46554924724826,0.437498504607145
"200",38,40,2,2,200,2,2,1,3,0.721769429185844,0.641842458869797
"201",38,35,2,2,201,1,2,1,5,0.227639469804211,0.229776694037969
"202",38,30,2,1,202,3,1,1,2,0.905551203427398,0.92402966028381
"203",38,18,2,1,203,2,1,1,3,0.647620293428615,0.64761167575217
"204",38,40,2,2,204,1,2,1,5,0.40645978081655,0.483529772077908
"205",38,19,2,1,205,3,1,1,2,1.02120821327181,0.964204572952438
"206",38,32,2,2,206,2,2,1,3,0.645342419219619,0.663690067269792
"207",38,20,2,2,207,3,1,0,1,1.0296557572936,0.970682534976851
"208",38,26,2,2,208,2,2,1,3,0.70125001310911,0.707248638734384
"209",38,29,2,1,209,2,1,1,3,0.632145094684498,0.632855079769472
"210",38,40,2,2,210,2,2,1,4,0.816543836508865,0.805268338318655
"211",38,35,2,2,211,1,1,0,3,0.55526700392269,0.650270443256228
"212",38,30,2,1,212,2,1,1,3,0.526969241740765,0.480116493311743
"213",38,18,2,1,213,3,1,1,3,0.571364069885736,0.512060551669261
"214",38,40,2,1,214,1,2,0,3,0.634941859396013,0.644722532736328
"215",38,19,2,1,215,2,2,0,3,0.695207643941592,0.602452599975089
"216",38,32,2,1,216,1,1,1,5,0.392708156788388,0.416934358089522
"217",38,20,2,2,217,3,1,0,2,0.709362865561926,0.72324739791083
"218",38,26,2,2,218,3,1,0,2,1.70129127351782,1.70940658727594
"219",38,29,2,2,219,3,2,1,2,0.909903173120357,0.939118260216522
"220",38,40,2,1,220,1,1,1,4,0.330222693415,0.316633768947623
"221",38,35,2,1,221,1,1,1,5,0.348839440794421,0.275114488101933
"222",38,30,2,2,222,3,1,0,2,0.952975073681622,0.898686534750066
"223",38,18,2,1,223,3,2,0,1,0.37994283455586,0.409414813370046
"224",38,40,2,2,224,2,1,0,2,0.865117424472712,0.810332797882024
"225",38,19,2,2,225,1,2,1,4,0.315630053729012,0.344830637505476
"226",38,32,2,1,226,3,1,1,2,0.418424436761749,0.361984235990556
"227",38,20,2,2,227,2,1,0,3,0.483907847844852,0.438452883928297
"228",38,26,2,2,228,3,2,1,2,0.681814217065905,0.688273459499241
"229",38,29,2,1,229,3,2,0,1,0.822152166555405,0.859710283892271
"230",38,40,2,2,230,2,1,0,2,0.670549547421134,0.710314053836523
"231",38,35,2,1,231,3,1,1,2,0.835188621572339,0.875617121578553
"232",38,30,2,2,232,3,1,0,2,1.30806418453452,1.30619271067176
"233",38,18,2,2,233,1,2,1,5,0.487316075437552,0.524503577069087
"234",38,40,2,1,234,3,2,0,1,1.38543652787027,1.4826678243734
"235",38,19,2,2,235,2,2,1,3,0.684960461132135,0.55357548783259
"236",38,32,2,1,236,3,2,0,1,1.37702747377288,1.32713883196993
"237",38,20,2,1,237,3,1,1,3,0.797220964837485,0.803512890287958
"238",38,26,2,1,238,2,1,1,3,0.557027758141039,0.51620828205276
"239",38,29,2,1,239,1,1,1,4,0.468411905239468,0.423622893730418
"240",38,40,2,2,240,3,1,0,2,1.19473449595667,1.30719241081184
"241",37,37,1,1,1,1,2,0,4,0.535689363047999,0.587531809689706
"242",37,30,1,1,2,3,1,1,2,0.866974064852549,0.968221016217616
"243",37,22,1,2,3,2,2,1,3,0.630141976036159,0.669629805442774
"244",37,34,1,2,4,2,1,0,3,0.734317163301792,0.771647907059175
"245",37,25,1,1,5,3,2,0,1,1.09471655207592,1.09420923184316
"246",37,31,1,2,6,3,1,0,1,1.26339427376859,1.28542704386576
"247",37,32,1,1,7,2,2,0,2,0.548845835206557,0.576709220346146
"248",37,27,1,2,8,1,2,1,5,0.345619657026066,0.357676548634417
"249",37,24,1,2,9,2,2,1,4,0.515530533582872,0.537217135687749
"250",37,32,1,1,10,1,2,0,3,0.454102937103909,0.536648904242083
"251",37,37,1,2,11,3,1,0,2,0.735271805085009,0.682106068124555
"252",37,30,1,2,12,3,2,1,2,0.80372625677469,0.879217628783562
"253",37,22,1,2,13,1,1,0,3,0.430436331322993,0.470125117325301
"254",37,34,1,1,14,1,1,1,5,0.197035815321929,0.296267578204391
"255",37,25,1,1,15,3,1,1,2,0.691538439170556,0.709555402174851
"256",37,31,1,2,16,2,1,0,3,0.854776273693643,0.838825334242443
"257",37,32,1,2,17,3,1,0,2,0.996240954731658,1.10350753801817
"258",37,27,1,1,18,2,1,1,3,0.466810505674536,0.435829213586041
"259",37,24,1,1,19,2,1,1,3,0.596888669686041,0.625723279524308
"260",37,32,1,2,20,1,1,0,4,0.449703052380777,0.348515362395163
"261",37,37,1,2,21,2,2,1,3,0.603377132363835,0.575214924993185
"262",37,30,1,2,22,3,2,1,2,0.578355046177074,0.568679908189904
"263",37,22,1,1,23,3,2,0,2,0.581163638104702,0.599224243510925
"264",37,34,1,2,24,2,1,0,2,0.584355682828795,0.660397946322924
"265",37,25,1,1,25,1,1,1,5,0.318588752575343,0.393810503843244
"266",37,31,1,1,26,3,2,0,1,0.862360427882105,0.96917559620381
"267",37,32,1,2,27,2,2,1,4,0.641328942703006,0.686883807722571
"268",37,27,1,1,28,2,2,0,2,0.786338812992039,0.833896735563877
"269",37,24,1,1,29,1,2,0,4,0.482227700988103,0.449634293379352
"270",37,32,1,2,30,3,1,0,1,1.67363935079056,1.63230070391116
"271",37,37,1,1,31,1,1,1,5,0.453422782608249,0.424702215650884
"272",37,30,1,2,32,1,2,1,4,0.434277754763535,0.451653815742923
"273",37,22,1,2,33,2,1,0,3,0.566618412652843,0.495812919187365
"274",37,34,1,1,34,1,2,0,3,0.667949405405269,0.784890589907882
"275",37,25,1,1,35,2,1,1,3,0.820683398263492,0.824869803244049
"276",37,31,1,1,36,2,1,1,4,0.62241142671747,0.704617322066876
"277",37,32,1,1,37,3,1,1,2,1.16319153064409,1.187038663978
"278",37,27,1,2,38,1,2,1,5,0.486936105678701,0.534308399401346
"279",37,24,1,1,39,1,2,0,3,0.52399576874716,0.513146180903236
"280",37,32,1,2,40,2,2,1,3,0.71025330756343,0.772098327161953
"281",37,37,1,1,41,1,1,1,4,0.371967847166467,0.416110567255705
"282",37,30,1,2,42,2,2,1,3,0.69282032410012,0.734400017846357
"283",37,22,1,1,43,1,1,1,5,0.478862115185337,0.392681973303958
"284",37,34,1,2,44,3,2,1,2,0.750173478788268,0.740916628634354
"285",37,25,1,2,45,1,2,1,5,0.36897580101013,0.363313200507391
"286",37,31,1,1,46,3,2,0,2,0.697583364344715,0.624358508617237
"287",37,32,1,2,47,1,2,1,4,0.335233175743462,0.338352095382719
"288",37,27,1,1,48,3,1,1,2,0.608653959305385,0.605665855541599
"289",37,24,1,2,49,3,2,1,2,1.06004176042569,1.08558087670701
"290",37,32,1,2,50,1,2,1,5,0.60130731224041,0.5945376458706
"291",37,37,1,2,51,3,2,1,3,1.13034841157696,1.11185775012843
"292",37,30,1,2,52,2,2,1,4,0.702531772807055,0.714560592021279
"293",37,22,1,1,53,1,1,1,5,0.519009300971163,0.46636016669287
"294",37,34,1,2,54,2,2,1,4,0.637249405223738,0.62239042813151
"295",37,25,1,2,55,3,1,0,1,0.798774324026769,0.819872162248711
"296",37,31,1,2,56,2,2,1,4,0.647508377156716,0.468661964836123
"297",37,32,1,2,57,3,2,1,2,0.809240182962995,0.725353256570278
"298",37,27,1,1,58,3,1,1,2,0.628268904805837,0.574148423065754
"299",37,24,1,2,59,1,2,1,5,0.297419354112018,0.336077213563575
"300",37,32,1,1,60,3,1,1,2,1.01840377405811,1.05900093974443
"301",37,37,1,1,61,2,1,1,3,0.644888321148661,0.63165477229848
"302",37,30,1,2,62,1,1,0,3,0.397936880070274,0.386395173495468
"303",37,22,1,2,63,3,2,1,3,1.03969521338697,1.06116723638023
"304",37,34,1,1,64,1,1,1,4,0.473824886535866,0.508079638964181
"305",37,25,1,2,65,1,2,1,4,0.373451728613897,0.281618955333682
"306",37,31,1,2,66,3,2,1,2,0.586847955952889,0.551756308109633
"307",37,32,1,2,67,2,1,0,2,0.574922801661923,0.516231459017944
"308",37,27,1,2,68,3,1,0,2,1.24607478274113,1.25115091244004
"309",37,24,1,1,69,3,2,0,2,0.812382471869141,0.799109044111622
"310",37,32,1,2,70,1,1,0,3,0.61668058086035,0.588949749255723
"311",37,37,1,1,71,1,1,1,4,0.312059894364149,0.23045520632917
"312",37,30,1,2,72,3,1,0,2,0.501316016958032,0.578756541655392
"313",37,22,1,2,73,2,1,0,3,0.762887190122156,0.713504987451684
"314",37,34,1,1,74,2,1,1,3,0.535383098091451,0.500180981718365
"315",37,25,1,2,75,1,2,1,4,0.370573418433255,0.344751230906847
"316",37,31,1,2,76,1,2,1,4,0.244689418314046,0.28313236441783
"317",37,32,1,1,77,3,2,0,2,1.13085328806805,1.08709908538023
"318",37,27,1,2,78,2,2,1,4,0.496688726860291,0.542933149011321
"319",37,24,1,1,79,3,2,0,2,0.60220440205498,0.616277926943163
"320",37,32,1,2,80,2,1,0,2,0.661587525106209,0.684136022033536
"321",37,37,1,1,81,3,1,1,3,0.429318361207479,0.416381872023814
"322",37,30,1,1,82,1,1,1,5,0.358264118873595,0.27728345068803
"323",37,22,1,1,83,3,2,0,1,0.846081669601324,0.826079858672761
"324",37,34,1,1,84,2,1,1,3,0.764754811865881,0.679664936348736
"325",37,25,1,1,85,2,2,0,3,0.73883670220326,0.74628115351015
"326",37,31,1,1,86,3,1,1,2,1.06059903578303,1.02621809570252
"327",37,32,1,2,87,2,2,1,4,0.604632363222522,0.553202297619787
"328",37,27,1,2,88,1,2,1,5,0.399047177791435,0.403979912688913
"329",37,24,1,2,89,2,2,1,4,0.461637130120512,0.387965934620267
"330",37,32,1,2,90,3,1,0,1,0.866058949610162,0.889395668468662
"331",37,37,1,1,91,3,1,1,3,1.00089710797708,0.95177504725868
"332",37,30,1,1,92,3,2,0,2,0.467094227466963,0.448600526509716
"333",37,22,1,2,93,2,2,1,3,0.750030718363302,0.776284924589739
"334",37,34,1,1,94,2,1,1,3,0.463995785386539,0.438408602910632
"335",37,25,1,2,95,1,2,1,5,0.342961836631616,0.294373967630774
"336",37,31,1,1,96,2,1,1,4,0.800588544786563,0.857709843044559
"337",37,32,1,2,97,3,1,0,1,0.649422028798224,0.633865630295116
"338",37,27,1,1,98,1,1,1,5,0.427069659472232,0.406922033698803
"339",37,24,1,2,99,3,1,0,1,0.621075592457833,0.68920631916436
"340",37,32,1,1,100,1,1,1,5,0.534724822438445,0.523157768587852
"341",37,37,1,1,101,2,2,0,2,0.671127559167707,0.641273446745151
"342",37,30,1,1,102,3,1,1,2,0.679777737609367,0.771549603852888
"343",37,22,1,1,103,3,2,0,2,0.825698886488711,0.785883192089233
"344",37,34,1,2,104,2,2,1,3,0.721063432030628,0.748141086405737
"345",37,25,1,1,105,1,1,1,5,0.347730893048544,0.312818667249126
"346",37,31,1,1,106,1,1,1,5,0.283592673110861,0.285382987152036
"347",37,32,1,1,107,1,1,1,5,0.544635631276349,0.622953224369995
"348",37,27,1,1,108,1,1,1,5,0.276512890317581,0.299699811272972
"349",37,24,1,2,109,1,2,1,5,0.375193453565202,0.356728246027508
"350",37,32,1,2,110,2,2,1,3,0.478531657775246,0.634338112708053
"351",37,37,1,2,111,3,2,1,2,0.814428764506078,0.771822478259719
"352",37,30,1,2,112,3,1,0,1,0.984595328020009,0.95506242277383
"353",37,22,1,2,113,2,2,1,3,0.556125084012508,0.494313751464182
"354",37,34,1,1,114,3,2,0,1,1.30747051098183,1.24690354116422
"355",37,25,1,2,115,1,2,1,5,0.428139787700153,0.413876552072366
"356",37,31,1,1,116,2,2,0,3,0.891696977502469,0.939609263834783
"357",37,32,1,2,117,1,1,0,4,0.556141624617925,0.699810655808753
"358",37,27,1,1,118,1,1,1,5,0.354498317675463,0.362039885588586
"359",37,24,1,2,119,1,1,0,4,0.399761780072803,0.445500769233476
"360",37,32,1,2,120,2,2,1,4,0.375813889279209,0.358982437719998
"361",37,37,1,2,121,1,1,0,3,0.584349866189951,0.544457128328082
"362",37,30,1,2,122,1,2,1,5,0.480307020920408,0.40575872951462
"363",37,22,1,1,123,1,1,1,5,0.322375079265364,0.316984944969074
"364",37,34,1,1,124,3,2,0,2,1.22900114292843,1.13513382097186
"365",37,25,1,2,125,2,2,1,3,0.650522183284781,0.640569264978831
"366",37,31,1,1,126,2,1,1,4,0.59692950190877,0.645529445489416
"367",37,32,1,2,127,2,2,1,4,0.664752766906823,0.668903091882078
"368",37,27,1,1,128,1,1,1,5,0.280303177377431,0.226832063713715
"369",37,24,1,2,129,1,1,0,3,0.398967567473609,0.35463308164801
"370",37,32,1,2,130,2,1,0,3,0.584800056389712,0.545833519223107
"371",37,37,1,2,131,2,2,1,3,0.608969257587454,0.565814916482051
"372",37,30,1,1,132,2,2,0,2,0.914241223894714,0.92940739739557
"373",37,22,1,1,133,1,2,0,4,0.325793106271552,0.448848587654295
"374",37,34,1,1,134,2,1,1,4,0.429153256562347,0.477697780018028
"375",37,25,1,2,135,1,1,0,4,0.553255540379412,0.564200915765313
"376",37,31,1,2,136,2,1,0,3,1.08569438565299,1.10757911647647
"377",37,32,1,2,137,2,1,0,3,0.850338740438168,0.824448732070885
"378",37,27,1,1,138,1,1,1,4,0.397459504597513,0.314600965481125
"379",37,24,1,2,139,1,2,1,5,0.446609113244986,0.459571658019758
"380",37,32,1,1,140,1,1,1,5,0.459916316201322,0.48758292098764
"381",37,37,1,2,141,3,2,1,3,0.834172069102087,0.757305350331326
"382",37,30,1,1,142,2,1,1,3,0.839128809391488,0.746572996128039
"383",37,22,1,2,143,2,2,1,3,0.559244374255638,0.576932794700191
"384",37,34,1,1,144,3,1,1,3,0.762137189634887,0.770683428903739
"385",37,25,1,1,145,2,2,0,3,1.05617273654784,1.10460829569033
"386",37,31,1,1,146,2,2,0,3,0.654209981070138,0.639999277999097
"387",37,32,1,1,147,2,1,1,4,0.691929552550057,0.737370147250633
"388",37,27,1,1,148,3,1,1,3,0.625259223337055,0.696464856101828
"389",37,24,1,1,149,3,2,0,1,0.82683940730954,0.793797427468339
"390",37,32,1,2,150,2,2,1,4,0.598397675328359,0.647447203462416
"391",37,37,1,1,151,3,1,1,2,0.818558950224187,0.801083040914166
"392",37,30,1,2,152,3,1,0,2,0.948654754435837,0.92154982236739
"393",37,22,1,2,153,3,1,0,1,1.32168883434551,1.38256438998686
"394",37,34,1,1,154,2,2,0,2,0.927851296152378,0.985286756453917
"395",37,25,1,1,155,3,1,1,3,0.791587718264644,0.756618192558904
"396",37,31,1,1,156,2,1,1,3,0.471077149927986,0.438877309339894
"397",37,32,1,2,157,2,2,1,3,0.606725230038449,0.571585620117898
"398",37,27,1,1,158,2,1,1,4,0.498211689653805,0.452157664762322
"399",37,24,1,2,159,1,1,0,3,0.61952722018329,0.629932675679692
"400",37,32,1,1,160,1,2,0,4,0.494130267804333,0.551892887295168
"401",37,37,1,2,161,3,1,0,2,0.447632055341797,0.512854147416958
"402",37,30,1,2,162,1,1,0,3,0.528534900916007,0.607832128600379
"403",37,22,1,2,163,1,2,1,4,0.45613724194928,0.505290567669427
"404",37,34,1,1,164,3,1,1,3,0.648523117433106,0.625583994161089
"405",37,25,1,2,165,1,1,0,3,0.439638634980526,0.511909590104021
"406",37,31,1,2,166,2,1,0,3,0.665911232939487,0.672031209615978
"407",37,32,1,1,167,1,1,1,5,0.394654064501868,0.33072001656807
"408",37,27,1,1,168,3,1,1,2,0.854639121782266,0.861367579484957
"409",37,24,1,1,169,1,1,1,5,0.400349692093666,0.415490389248908
"410",37,32,1,2,170,3,2,1,3,1.18912900472639,1.20786680660691
"411",37,37,1,2,171,1,2,1,4,0.370829522685924,0.313872927846419
"412",37,30,1,1,172,2,1,1,3,0.780803243298943,0.757618847158374
"413",37,22,1,1,173,2,1,1,4,0.810544878882852,0.888210649911842
"414",37,34,1,2,174,3,2,1,2,0.613991301720701,0.589147088003612
"415",37,25,1,1,175,2,1,1,4,0.713837024272648,0.703631296467806
"416",37,31,1,2,176,2,1,0,3,0.484026986148987,0.356910869917946
"417",37,32,1,1,177,2,2,0,3,0.629938680713501,0.677418437745052
"418",37,27,1,2,178,3,2,1,3,0.951471857958849,0.965458552617363
"419",37,24,1,1,179,1,1,1,4,0.40820340363223,0.47102507504515
"420",37,32,1,1,180,2,1,1,4,0.613458389092424,0.563472478381921
"421",37,37,1,2,181,3,2,1,2,0.75079990461457,0.805768220174514
"422",37,30,1,1,182,3,2,0,1,0.421380866552695,0.380504209916804
"423",37,22,1,2,183,3,2,1,2,0.744677017388219,0.73632125683284
"424",37,34,1,2,184,1,1,0,3,0.737796838188141,0.701383969540291
"425",37,25,1,2,185,2,1,0,3,0.441521770201325,0.461177609943148
"426",37,31,1,1,186,2,2,0,2,0.483613061308716,0.530589026787904
"427",37,32,1,1,187,1,1,1,4,0.541671209739176,0.63086044218034
"428",37,27,1,1,188,1,1,1,5,0.353062593415975,0.433185808338247
"429",37,24,1,2,189,1,1,0,3,0.525203759187547,0.509043206780032
"430",37,32,1,1,190,2,1,1,4,0.537298119538587,0.487097627955043
"431",37,37,1,1,191,1,1,1,5,0.260975948867698,0.235913456007193
"432",37,30,1,1,192,3,2,0,1,0.88545981278954,0.753384823086229
"433",37,22,1,1,193,1,1,1,4,0.349818372935538,0.363397462997229
"434",37,34,1,1,194,3,1,1,2,1.08495764903128,1.0811919611974
"435",37,25,1,2,195,3,2,1,2,0.928959713121908,0.98860915338744
"436",37,31,1,2,196,1,2,1,4,0.417642545795436,0.468479712446771
"437",37,32,1,2,197,3,2,1,2,0.567154107203999,0.586816462287122
"438",37,27,1,1,198,1,1,1,4,0.414377791183781,0.411981280853254
"439",37,24,1,1,199,1,1,1,5,0.237382984219054,0.306263496628636
"440",37,32,1,2,200,3,2,1,2,0.847325021505828,0.822609376081548
"441",37,37,1,2,201,3,1,0,2,0.920611406467795,0.985012110968883
"442",37,30,1,1,202,1,1,1,5,0.437526013032899,0.454856540559346
"443",37,22,1,1,203,3,1,1,3,0.79785243294567,0.793423993709336
"444",37,34,1,2,204,1,2,1,4,0.544105568759805,0.561981048601009
"445",37,25,1,2,205,3,1,0,1,0.855064861219109,0.794813353418596
"446",37,31,1,2,206,2,2,1,3,0.436720370715539,0.448744266005939
"447",37,32,1,2,207,3,1,0,1,0.58640767880392,0.629948483638662
"448",37,27,1,2,208,1,2,1,4,0.26145492183896,0.266377083469147
"449",37,24,1,1,209,1,1,1,4,0.475363729482271,0.511688195589851
"450",37,32,1,1,210,2,2,0,2,0.605682586177209,0.540769687814969
"451",37,37,1,2,211,1,2,1,4,0.314163132238985,0.352230940354134
"452",37,30,1,1,212,1,2,0,4,0.526953345194653,0.429622904495188
"453",37,22,1,2,213,3,1,0,2,0.707405309596392,0.673215917182171
"454",37,34,1,1,214,2,2,0,2,0.629173747024974,0.610633626752176
"455",37,25,1,1,215,3,2,0,2,1.13528532044792,1.15894092842244
"456",37,31,1,1,216,3,2,0,2,1.33298783579734,1.30631306160938
"457",37,32,1,1,217,2,2,0,2,0.498595881844928,0.444813369807068
"458",37,27,1,1,218,2,2,0,3,0.613327637521786,0.554036164686261
"459",37,24,1,1,219,3,2,0,2,0.57382759412022,0.627698756865722
"460",37,32,1,1,220,3,2,0,2,1.07184730008484,1.09570321091011
"461",37,37,1,2,221,2,1,0,3,0.454391021808057,0.370891242912042
"462",37,30,1,1,222,2,1,1,3,0.571503115405369,0.61014180697279
"463",37,22,1,1,223,1,1,1,5,0.273340987468704,0.279261115902263
"464",37,34,1,2,224,2,1,0,3,0.739255658763061,0.6739265077685
"465",37,25,1,1,225,1,1,1,4,0.517250161575583,0.466465694052746
"466",37,31,1,2,226,1,2,1,5,0.315598403177183,0.328604635029407
"467",37,32,1,2,227,3,1,0,2,1.25406046016979,1.1603968027718
"468",37,27,1,2,228,1,2,1,5,0.399732092193071,0.494924750614141
"469",37,24,1,2,229,3,2,1,2,0.800728922121372,0.825542805729389
"470",37,32,1,2,230,3,1,0,2,0.895482405397017,1.01383213351815
"471",37,37,1,2,231,2,2,1,4,0.566866363055318,0.584015958226787
"472",37,30,1,1,232,3,1,1,3,0.523001313253294,0.422373930178766
"473",37,22,1,1,233,1,2,0,4,0.7353315825044,0.758966651764338
"474",37,34,1,2,234,2,1,0,3,0.612027203783374,0.612316318953067
"475",37,25,1,1,235,3,2,0,1,0.586943817917839,0.536943312927101
"476",37,31,1,2,236,2,1,0,2,0.83344226322247,0.791164337500959
"477",37,32,1,1,237,2,1,1,3,0.476882144882218,0.471291872668349
"478",37,27,1,2,238,3,1,0,1,0.670405106057534,0.689539921754669
"479",37,24,1,1,239,2,1,1,3,0.706481538425465,0.772767869681631
"480",37,32,1,1,240,3,1,1,3,0.39586676669232,0.334735046770089
"481",36,26,2,2,1,3,1,0,2,1.44438219437467,1.45627016779736
"482",36,33,2,2,2,3,1,0,1,0.777333124763364,0.798847844666414
"483",36,36,2,1,3,1,1,1,5,0.417243950238109,0.43056000455663
"484",36,38,2,1,4,2,2,0,2,0.567783620258538,0.452490401001056
"485",36,20,2,1,5,3,1,1,2,0.880494515797074,0.843450425025079
"486",36,25,2,1,6,1,1,1,4,0.480484837805842,0.557545509207577
"487",36,30,2,1,7,2,1,1,4,0.458862633538872,0.483170624525699
"488",36,34,2,1,8,1,1,1,5,0.385329337826242,0.40405539848215
"489",36,25,2,1,9,1,1,1,4,0.459510219052626,0.528670540145022
"490",36,25,2,2,10,2,2,1,3,0.719898735411692,0.814259146446661
"491",36,26,2,1,11,1,1,1,4,0.441128196417968,0.372477616990056
"492",36,33,2,1,12,1,1,1,4,0.252670942400529,0.226785180374372
"493",36,36,2,2,13,3,1,0,2,1.0613762995301,1.04404554387967
"494",36,38,2,2,14,3,2,1,2,0.776993631339825,0.706993849314212
"495",36,20,2,2,15,1,2,1,4,0.373541743037525,0.412825913377479
"496",36,25,2,2,16,3,1,0,2,1.20172773654992,1.30281591378207
"497",36,30,2,1,17,2,2,0,2,0.54885833410904,0.555034325408523
"498",36,34,2,2,18,2,1,0,2,0.482383670320327,0.454619822937789
"499",36,25,2,2,19,1,2,1,5,0.435067986566422,0.481535524752707
"500",36,25,2,2,20,2,2,1,4,0.575591934494035,0.598034624579209
"501",36,26,2,1,21,1,1,1,5,0.544017690798884,0.511884262891749
"502",36,33,2,2,22,2,2,1,3,0.475395170104552,0.413931283336999
"503",36,36,2,1,23,1,1,1,4,0.420261350976578,0.359807626756099
"504",36,38,2,1,24,1,1,1,4,0.348421104025054,0.353891228155157
"505",36,20,2,1,25,3,1,1,3,0.906711942328336,0.913798105732556
"506",36,25,2,1,26,2,1,1,4,0.51978168207008,0.572063786626482
"507",36,30,2,2,27,3,1,0,2,1.07181730714709,1.08085646354044
"508",36,34,2,1,28,2,1,1,3,0.715156506390561,0.758542234651143
"509",36,25,2,2,29,1,2,1,4,0.595335845515656,0.593182691265215
"510",36,25,2,1,30,2,1,1,4,0.643636163029019,0.650938144835621
"511",36,26,2,1,31,3,2,0,1,0.821944521165,0.783348877974619
"512",36,33,2,1,32,3,1,1,3,0.828141095723054,0.853159747844978
"513",36,36,2,1,33,2,1,1,4,0.797102511332196,0.809129682079173
"514",36,38,2,2,34,2,2,1,3,0.709024911429861,0.786699537279401
"515",36,20,2,1,35,2,1,1,4,0.630579508923672,0.619683601137067
"516",36,25,2,2,36,1,2,1,4,0.378671838048699,0.267365056053582
"517",36,30,2,1,37,3,1,1,2,0.918526055919952,0.965886171277609
"518",36,34,2,2,38,1,2,1,4,0.386571753199309,0.438053551226207
"519",36,25,2,1,39,1,1,1,4,0.353021661939557,0.338153424418419
"520",36,25,2,1,40,3,1,1,2,0.96452190768864,0.964497400161362
"521",36,26,2,2,41,3,1,0,1,1.79667010242327,1.69751761772166
"522",36,33,2,1,42,1,1,1,5,0.469846142933704,0.495930459922831
"523",36,36,2,1,43,2,2,0,3,0.694675588618393,0.758879780210395
"524",36,38,2,1,44,3,2,0,2,0.523497285093137,0.454334495683032
"525",36,20,2,2,45,3,1,0,2,1.54678517631125,1.48600988411207
"526",36,25,2,2,46,1,2,1,4,0.305631176210326,0.276052352809312
"527",36,30,2,2,47,1,2,1,5,0.319127965043206,0.27487556166164
"528",36,34,2,1,48,1,2,0,4,0.679835501803549,0.649032998142658
"529",36,25,2,2,49,1,2,1,4,0.382381403964077,0.32511369224266
"530",36,25,2,2,50,3,2,1,3,0.648213647601458,0.697940984835191
"531",36,26,2,2,51,3,2,1,3,0.939840197741165,0.970847378385628
"532",36,33,2,1,52,2,1,1,4,0.560244230729796,0.575857789680724
"533",36,36,2,1,53,2,2,0,2,0.656165139518389,0.572310284479742
"534",36,38,2,1,54,2,2,0,2,0.789020692389765,0.730355400165924
"535",36,20,2,1,55,2,1,1,3,0.597038561417596,0.610529592821319
"536",36,25,2,2,56,1,2,1,4,0.362721398133562,0.218833509899469
"537",36,30,2,1,57,2,2,0,2,0.736139227523386,0.698496193095411
"538",36,34,2,2,58,2,1,0,3,0.730948662237973,0.725086225125689
"539",36,25,2,1,59,2,2,0,2,0.685072024248797,0.578917539639216
"540",36,25,2,1,60,2,1,1,4,0.383079049092827,0.429760931059213
"541",36,26,2,2,61,3,1,0,1,1.1248412767833,1.05979520300976
"542",36,33,2,2,62,2,1,0,2,0.854776957829709,0.895386995331475
"543",36,36,2,1,63,2,2,0,3,0.663118013100724,0.682362776751906
"544",36,38,2,1,64,2,2,0,3,0.648134670089033,0.638607037103295
"545",36,20,2,2,65,3,1,0,1,0.903368994304056,0.871519777557903
"546",36,25,2,2,66,2,1,0,2,0.861080631377576,0.853641329264505
"547",36,30,2,2,67,2,2,1,4,0.573141733907164,0.64144528729935
"548",36,34,2,2,68,3,2,1,3,0.948284494281626,0.93907967946515
"549",36,25,2,2,69,1,2,1,5,0.297495164856116,0.326249524569839
"550",36,25,2,1,70,3,2,0,2,0.694030386832948,0.617293717585273
"551",36,26,2,2,71,2,2,1,3,0.496500456145984,0.560735099056658
"552",36,33,2,2,72,1,1,0,3,0.430513817046191,0.376899320816322
"553",36,36,2,2,73,1,2,1,4,0.425241528823928,0.422884783784676
"554",36,38,2,2,74,3,1,0,1,1.43053318372868,1.49668741239012
"555",36,20,2,2,75,2,2,1,4,0.601296105037658,0.585404768960324
"556",36,25,2,1,76,2,1,1,4,0.58347328559465,0.525262698857065
"557",36,30,2,1,77,3,1,1,3,1.06698966463813,1.07668564885824
"558",36,34,2,2,78,2,2,1,3,0.531617814600574,0.563381334540871
"559",36,25,2,1,79,3,1,1,3,0.816336220067053,0.881245294165749
"560",36,25,2,2,80,2,2,1,3,0.555160411173569,0.492439092282049
"561",36,26,2,2,81,3,2,1,2,1.12469013298701,1.08478830404348
"562",36,33,2,1,82,3,2,0,2,0.813825071578967,0.746682607788029
"563",36,36,2,2,83,1,2,1,5,0.371671379888892,0.340024892026054
"564",36,38,2,2,84,3,2,1,2,0.491264929967653,0.428112934517699
"565",36,20,2,2,85,3,1,0,1,0.998872028078948,1.03320602653294
"566",36,25,2,2,86,1,2,1,5,0.361314490930342,0.40345105405517
"567",36,30,2,1,87,3,1,1,3,0.950871016451564,0.904367560143785
"568",36,34,2,2,88,1,2,1,4,0.365051991048666,0.269316721019671
"569",36,25,2,2,89,2,2,1,3,0.387602771704518,0.337240931212342
"570",36,25,2,2,90,1,2,1,4,0.439638492308576,0.417275877152356
"571",36,26,2,2,91,1,2,1,4,0.42632210033754,0.469759596629589
"572",36,33,2,1,92,3,1,1,3,0.606752508743525,0.579465198352524
"573",36,36,2,1,93,2,1,1,3,0.732914774774581,0.689201872356088
"574",36,38,2,2,94,3,2,1,2,0.605178691746936,0.588606205486019
"575",36,20,2,2,95,3,1,0,1,1.40981926689056,1.40206390179649
"576",36,25,2,1,96,3,2,0,2,1.18635116317813,1.2492854890813
"577",36,30,2,1,97,2,1,1,4,0.477874210905608,0.465540109497811
"578",36,34,2,1,98,3,2,0,2,0.901228145154839,0.859225365815224
"579",36,25,2,1,99,2,1,1,4,0.373084415196582,0.435611896845618
"580",36,25,2,2,100,2,1,0,3,0.719810864775701,0.636726507202261
"581",36,26,2,2,101,1,2,1,5,0.408836224301973,0.365940302188527
"582",36,33,2,2,102,2,2,1,3,0.681316967385798,0.607460207393794
"583",36,36,2,1,103,2,2,0,3,0.643183059792401,0.70878200239693
"584",36,38,2,2,104,3,1,0,2,1.49403837354226,1.54598121649648
"585",36,20,2,2,105,1,2,1,4,0.400114918729627,0.414873377660194
"586",36,25,2,2,106,2,1,0,2,0.561851175801438,0.475189395231613
"587",36,30,2,2,107,2,2,1,3,0.797279625982176,0.742032776423613
"588",36,34,2,2,108,3,1,0,2,1.11883203000331,1.14833873146963
"589",36,25,2,2,109,2,2,1,3,0.542726385630864,0.494514228589522
"590",36,25,2,1,110,2,1,1,3,0.791515016826866,0.75717069059318
"591",36,26,2,2,111,2,2,1,4,0.506738636433584,0.516744660687398
"592",36,33,2,2,112,1,2,1,4,0.589374919227204,0.601869089611111
"593",36,36,2,2,113,1,2,1,4,0.633105257892417,0.73121850796261
"594",36,38,2,1,114,3,1,1,2,0.72092919176752,0.811433739574811
"595",36,20,2,1,115,2,1,1,4,0.521730504225408,0.496404704377566
"596",36,25,2,2,116,2,2,1,3,0.702489932309847,0.724973769565256
"597",36,30,2,1,117,1,2,0,3,0.379044390384271,0.439757760396179
"598",36,34,2,1,118,3,1,1,2,0.708114193929769,0.768246166339814
"599",36,25,2,2,119,3,1,0,2,0.806070486187005,0.771281980687382
"600",36,25,2,2,120,2,2,1,4,0.708903022514335,0.77462674056617
"601",36,26,2,1,121,3,1,1,3,1.0417564239244,0.97402957219383
"602",36,33,2,2,122,2,2,1,4,0.680032796313848,0.762697730036341
"603",36,36,2,2,123,3,2,1,3,0.840354999535985,0.914842472309509
"604",36,38,2,1,124,1,1,1,4,0.435063041568246,0.465950413836197
"605",36,20,2,2,125,2,2,1,3,0.572608418062288,0.499766803540785
"606",36,25,2,2,126,2,1,0,2,0.72037890317778,0.628105355331554
"607",36,30,2,1,127,1,1,1,5,0.441163289990179,0.393058659949371
"608",36,34,2,1,128,3,2,0,1,0.565491253937888,0.623163437629611
"609",36,25,2,1,129,3,2,0,2,1.20886085386694,1.2736215087945
"610",36,25,2,1,130,2,2,0,2,0.929256031765244,0.960856053701667
"611",36,26,2,2,131,3,2,1,2,0.76775835144892,0.827779095440948
"612",36,33,2,2,132,1,2,1,5,0.263158832163554,0.296269004444347
"613",36,36,2,1,133,2,1,1,3,0.600409887387073,0.583530773534886
"614",36,38,2,1,134,1,1,1,5,0.429235667009976,0.478276243509761
"615",36,20,2,2,135,1,2,1,5,0.353491604092301,0.261366407158296
"616",36,25,2,2,136,2,2,1,3,0.507867564610759,0.568205163080487
"617",36,30,2,1,137,3,1,1,2,1.00236712902885,0.859327293115668
"618",36,34,2,2,138,2,1,0,2,0.625984169293256,0.721405265401734
"619",36,25,2,1,139,3,2,0,1,0.718214900685672,0.702937432886207
"620",36,25,2,2,140,2,1,0,3,0.61881561071324,0.610061755988173
"621",36,26,2,1,141,1,1,1,5,0.318647965480188,0.374069251684487
"622",36,33,2,2,142,1,2,1,4,0.358605953710711,0.330694559240325
"623",36,36,2,1,143,3,1,1,3,1.10191132235999,1.09395340411676
"624",36,38,2,2,144,1,2,1,4,0.447417454653032,0.400179816669332
"625",36,20,2,1,145,3,1,1,3,0.552218536135873,0.577725044419701
"626",36,25,2,1,146,2,1,1,3,0.657313173113384,0.646573559647744
"627",36,30,2,2,147,1,2,1,4,0.450718096858755,0.389117516962457
"628",36,34,2,1,148,3,2,0,2,0.917162942889837,0.952517684228832
"629",36,25,2,2,149,2,2,1,3,0.711228740513915,0.766627896529796
"630",36,25,2,2,150,2,2,1,3,0.492529597612614,0.411263729650639
"631",36,26,2,1,151,3,2,0,1,1.20065808346192,1.26159769300623
"632",36,33,2,2,152,1,1,0,3,0.408585001757756,0.411090352016961
"633",36,36,2,1,153,1,1,1,5,0.403613551969942,0.396290336349957
"634",36,38,2,1,154,2,1,1,3,0.407774745757082,0.380563733185413
"635",36,20,2,1,155,3,2,0,2,0.979984383856747,1.00282931614862
"636",36,25,2,1,156,1,1,1,5,0.533272046296592,0.557752942778443
"637",36,30,2,1,157,2,1,1,3,0.787955944654596,0.770417255885365
"638",36,34,2,2,158,1,2,1,4,0.408401916708039,0.461846668426925
"639",36,25,2,1,159,1,2,0,4,0.537829190495416,0.51030997212751
"640",36,25,2,2,160,3,2,1,2,0.787223168066571,0.794814694729102
"641",36,26,2,1,161,3,2,0,1,0.754320171657879,0.686913916368601
"642",36,33,2,1,162,1,1,1,4,0.338192375949098,0.398096930193476
"643",36,36,2,2,163,1,2,1,4,0.578120640083285,0.591777848575326
"644",36,38,2,1,164,2,1,1,3,0.522801417300243,0.518015282078304
"645",36,20,2,1,165,2,1,1,4,0.537222156470174,0.577129375635676
"646",36,25,2,1,166,3,1,1,2,0.989107935777019,0.997607159720692
"647",36,30,2,1,167,1,2,0,4,0.326958094719858,0.338639109668556
"648",36,34,2,2,168,3,1,0,1,1.37562999701248,1.44275166041768
"649",36,25,2,2,169,1,2,1,5,0.312938467634928,0.216945349046745
"650",36,25,2,1,170,3,2,0,2,0.98433136137784,1.00176656063221
"651",36,26,2,1,171,3,2,0,2,1.27937554735551,1.27261053711514
"652",36,33,2,2,172,1,2,1,5,0.498004824063483,0.492238233113122
"653",36,36,2,1,173,3,1,1,2,1.06172113494666,1.03781557925012
"654",36,38,2,1,174,2,1,1,4,0.441317605940013,0.443660131222379
"655",36,20,2,2,175,2,1,0,2,0.875299191569569,0.949941516931075
"656",36,25,2,2,176,1,2,1,4,0.266233219809936,0.223288029309355
"657",36,30,2,2,177,1,2,1,5,0.318685243172185,0.378561069944032
"658",36,34,2,1,178,2,1,1,4,0.585916283464324,0.647228315892972
"659",36,25,2,1,179,1,2,0,4,0.363352475276231,0.344899875171287
"660",36,25,2,2,180,3,1,0,1,1.00317709560753,1.05562186789445
"661",36,26,2,1,181,3,2,0,1,0.509340631069836,0.531645354813349
"662",36,33,2,1,182,2,1,1,4,0.665873412160373,0.656260431110417
"663",36,36,2,1,183,3,2,0,1,0.843840726707459,0.902915416262277
"664",36,38,2,1,184,3,1,1,2,0.786595305446762,0.82185135175386
"665",36,20,2,2,185,1,1,0,3,0.598101501829155,0.639356326944895
"666",36,25,2,1,186,1,1,1,5,0.364051980542178,0.300441073156929
"667",36,30,2,2,187,1,2,1,4,0.562235966326335,0.604485751404575
"668",36,34,2,2,188,3,1,0,1,1.14657512045671,1.14287590306187
"669",36,25,2,2,189,3,2,1,3,0.745614681763837,0.705499251708538
"670",36,25,2,2,190,1,2,1,5,0.366265691680681,0.396780118996565
"671",36,26,2,2,191,2,1,0,2,0.696223283567444,0.697326166362636
"672",36,33,2,1,192,3,1,1,2,0.918483063625128,0.971673867714023
"673",36,36,2,2,193,2,2,1,4,0.618318779293685,0.583619472537222
"674",36,38,2,1,194,1,1,1,4,0.440191560830309,0.410042082061485
"675",36,20,2,2,195,3,1,0,1,1.21230734128571,1.22522883950432
"676",36,25,2,1,196,2,1,1,3,0.487989680447466,0.477985226406916
"677",36,30,2,2,197,3,1,0,2,0.252279114091158,0.240802761668147
"678",36,34,2,2,198,3,2,1,3,1.04897413897877,0.946038372066697
"679",36,25,2,2,199,1,2,1,4,0.370987959181691,0.398617038845648
"680",36,25,2,2,200,3,1,0,1,0.481488851666814,0.504045545779618
"681",36,26,2,1,201,1,1,1,4,0.35976840066476,0.37502244740947
"682",36,33,2,2,202,3,2,1,2,1.00601054416315,1.02548599998702
"683",36,36,2,2,203,1,2,1,5,0.498519915965656,0.590535304604109
"684",36,38,2,1,204,3,1,1,3,0.739820811430696,0.725190644559021
"685",36,20,2,1,205,2,1,1,4,0.739360155827369,0.77380878373047
"686",36,25,2,1,206,3,1,1,2,0.817569041887754,0.808170282568882
"687",36,30,2,1,207,2,2,0,2,0.62295162088892,0.751859335516369
"688",36,34,2,2,208,2,2,1,3,0.223167111372211,0.157347924751544
"689",36,25,2,1,209,1,1,1,5,0.370468161451606,0.442675296804366
"690",36,25,2,1,210,3,2,0,2,1.34725513517565,1.42438843993956
"691",36,26,2,1,211,2,2,0,3,0.732684685244507,0.695483609547493
"692",36,33,2,1,212,1,2,0,3,0.467303588661881,0.476284632319552
"693",36,36,2,1,213,1,1,1,4,0.178095836985664,0.216072017160403
"694",36,38,2,1,214,1,2,0,4,0.550888977956984,0.576909769050549
"695",36,20,2,1,215,2,1,1,3,0.339512914904851,0.316144879967846
"696",36,25,2,2,216,1,2,1,4,0.381916148466058,0.34894588449987
"697",36,30,2,2,217,1,2,1,4,0.388429602206146,0.389354662500437
"698",36,34,2,1,218,3,2,0,1,1.20174735985187,1.24587743357853
"699",36,25,2,2,219,2,2,1,3,0.566382069365121,0.645553863838856
"700",36,25,2,2,220,1,1,0,4,0.533314086205229,0.496908006567863
"701",36,26,2,1,221,2,1,1,3,0.564542749958929,0.569155823635209
"702",36,33,2,1,222,2,1,1,3,0.386660673505462,0.429917137341515
"703",36,36,2,1,223,1,2,0,3,0.572491606900743,0.640582322414635
"704",36,38,2,1,224,3,1,1,2,0.855581303327229,0.844768645683358
"705",36,20,2,2,225,2,1,0,2,0.518163920011862,0.434907918609489
"706",36,25,2,2,226,1,1,0,3,0.479825819552925,0.543494745461345
"707",36,30,2,1,227,1,1,1,5,0.452076440135513,0.46125431560426
"708",36,34,2,2,228,1,2,1,4,0.358213783788231,0.401749562576505
"709",36,25,2,2,229,3,2,1,2,0.817433261363325,0.845292946211769
"710",36,25,2,2,230,3,2,1,2,0.905758237604476,0.940108381249748
"711",36,26,2,1,231,3,1,1,2,1.06686175048121,0.985199398731107
"712",36,33,2,2,232,1,2,1,4,0.32803937284682,0.329174388012965
"713",36,36,2,1,233,1,1,1,4,0.459122923754416,0.380206839975742
"714",36,38,2,2,234,2,2,1,3,0.710848936883884,0.755947955817887
"715",36,20,2,1,235,1,2,0,3,0.569546809747284,0.536940463840178
"716",36,25,2,2,236,1,2,1,4,0.347261277384259,0.374257970907758
"717",36,30,2,1,237,3,1,1,3,0.762011525827978,0.814509635531906
"718",36,34,2,1,238,1,1,1,4,0.444125203765341,0.423946247363529
"719",36,25,2,2,239,2,2,1,4,0.591703990304294,0.622634472418272
"720",36,25,2,2,240,3,2,1,3,0.589289756437223,0.569548013441783
"721",35,37,1,2,1,3,1,0,2,1.30691968744846,1.36316833661832
"722",35,20,1,2,2,2,2,1,3,0.807279771038463,0.793770061258197
"723",35,21,1,1,3,2,1,1,4,0.420450578354669,0.444378226838473
"724",35,29,1,2,4,3,1,0,2,0.579376374823765,0.601913922138944
"725",35,32,1,2,5,2,2,1,4,0.386813603807034,0.420546041072689
"726",35,29,1,2,6,1,2,1,5,0.470733235146772,0.471607689469395
"727",35,27,1,1,7,2,1,1,3,0.569223439341118,0.512677250569906
"728",35,38,1,2,8,2,2,1,3,0.574641987614115,0.657953494622781
"729",35,19,1,2,9,1,1,0,4,0.566708286551707,0.465766344910079
"730",35,20,1,1,10,1,1,1,4,0.456052151559176,0.509347580731209
"731",35,37,1,1,11,1,1,1,4,0.399187875603037,0.471592097441115
"732",35,20,1,2,12,1,2,1,4,0.416419605612039,0.498526286562011
"733",35,21,1,1,13,3,1,1,3,1.18596608461551,1.17528490495698
"734",35,29,1,2,14,2,2,1,4,0.516354654056665,0.48376602917984
"735",35,32,1,1,15,3,1,1,3,0.984156721296883,0.926018473908962
"736",35,29,1,1,16,2,1,1,3,0.598716099063493,0.566497178703806
"737",35,27,1,1,17,1,1,1,4,0.40910341483555,0.441794805147049
"738",35,38,1,1,18,3,2,0,2,1.2054865691098,1.22356319754534
"739",35,19,1,1,19,1,1,1,5,0.349863936187949,0.329084664928051
"740",35,20,1,1,20,2,1,1,3,0.60075335114478,0.544889636196588
"741",35,37,1,2,21,2,2,1,4,0.585485517669292,0.585591425733099
"742",35,20,1,2,22,1,2,1,4,0.483574038986678,0.451731821454846
"743",35,21,1,2,23,2,1,0,3,0.657733996822693,0.671077565406167
"744",35,29,1,2,24,2,2,1,3,0.772057556597235,0.729938869651769
"745",35,32,1,1,25,2,1,1,4,0.672470234158475,0.600310948611825
"746",35,29,1,1,26,3,2,0,2,0.990662995693119,0.976528396937483
"747",35,27,1,2,27,3,2,1,3,0.719429854950764,0.672857320887935
"748",35,38,1,1,28,3,2,0,2,0.489549188773767,0.442576926248394
"749",35,19,1,2,29,2,2,1,3,0.710611710489344,0.606007729843344
"750",35,20,1,1,30,2,1,1,3,0.574806932759125,0.50385456560974
"751",35,37,1,1,31,1,2,0,3,0.661095253795125,0.701164971545202
"752",35,20,1,1,32,1,2,0,4,0.469629696544448,0.423733677775557
"753",35,21,1,2,33,2,2,1,4,0.7462545493047,0.720273683326301
"754",35,29,1,1,34,2,1,1,4,0.741129411774196,0.730896068569261
"755",35,32,1,1,35,1,1,1,4,0.414262439688354,0.363076327565632
"756",35,29,1,1,36,3,2,0,1,0.944484762749787,0.909671719494473
"757",35,27,1,2,37,1,2,1,5,0.335669157772771,0.310541188969296
"758",35,38,1,2,38,1,2,1,5,0.287564914246673,0.320764529218523
"759",35,19,1,2,39,2,1,0,3,0.644760213610548,0.607388450657004
"760",35,20,1,1,40,1,1,1,4,0.328658692488244,0.279779771236244
"761",35,37,1,2,41,2,1,0,2,0.678891840439049,0.675521443207575
"762",35,20,1,1,42,3,1,1,3,0.683957265002333,0.7220278920392
"763",35,21,1,1,43,1,2,0,3,0.49440062703277,0.468073511225466
"764",35,29,1,1,44,2,2,0,2,0.768063588569113,0.751004536919726
"765",35,32,1,1,45,3,2,0,2,1.07996058085842,1.05509631536156
"766",35,29,1,2,46,2,2,1,3,0.305605468869365,0.23942553067669
"767",35,27,1,1,47,3,1,1,3,0.664598965399309,0.633769516553846
"768",35,38,1,2,48,1,2,1,5,0.449895567242183,0.523561710089671
"769",35,19,1,1,49,1,1,1,4,0.44798436978464,0.535466689879355
"770",35,20,1,1,50,2,1,1,3,0.486677407938011,0.455579220690765
"771",35,37,1,1,51,3,1,1,3,1.15156949003739,1.17976036584904
"772",35,20,1,2,52,1,2,1,5,0.218080273996944,0.237869682868815
"773",35,21,1,1,53,3,2,0,1,0.38919631853727,0.318070770959682
"774",35,29,1,1,54,3,2,0,1,0.967139581468924,1.02102460975467
"775",35,32,1,1,55,3,2,0,2,0.66908690578674,0.676737373570158
"776",35,29,1,1,56,1,1,1,5,0.571167826112896,0.562781073104337
"777",35,27,1,1,57,2,2,0,3,0.669945555826694,0.644237375462673
"778",35,38,1,2,58,1,1,0,3,0.483927478558668,0.513566565851751
"779",35,19,1,1,59,3,2,0,2,0.532611474699969,0.43265879297108
"780",35,20,1,2,60,2,2,1,4,0.680956517075562,0.710422066874413
"781",35,37,1,2,61,2,1,0,2,0.620925960682547,0.577837295343011
"782",35,20,1,1,62,2,1,1,4,0.436788774401315,0.500107724548851
"783",35,21,1,2,63,1,2,1,5,0.438936173232182,0.40756014086959
"784",35,29,1,2,64,1,2,1,5,0.528670297124348,0.488648445088137
"785",35,32,1,2,65,1,2,1,4,0.29131591467776,0.286358495065523
"786",35,29,1,1,66,3,2,0,1,0.72324493928395,0.757472515294574
"787",35,27,1,1,67,1,1,1,4,0.400949650932521,0.393357517407756
"788",35,38,1,1,68,3,2,0,2,0.255419180827432,0.286403746337242
"789",35,19,1,1,69,3,2,0,2,1.07144621957891,0.965877852965188
"790",35,20,1,2,70,3,2,1,2,0.951583833796697,0.984839144194551
"791",35,37,1,1,71,2,2,0,3,0.78454938606898,0.823994411557188
"792",35,20,1,2,72,1,2,1,5,0.285740092141651,0.316239996275132
"793",35,21,1,2,73,2,2,1,3,0.499504237121901,0.563311898333203
"794",35,29,1,1,74,3,2,0,1,1.19060941354693,1.17369291368332
"795",35,32,1,2,75,1,2,1,4,0.410707324777061,0.40182280840315
"796",35,29,1,2,76,1,2,1,5,0.361367938651277,0.390881599223299
"797",35,27,1,2,77,1,1,0,4,0.54783606928703,0.551361818172025
"798",35,38,1,2,78,3,2,1,3,0.955978028810966,0.991567058836773
"799",35,19,1,1,79,1,1,1,5,0.415813541516587,0.401484048764641
"800",35,20,1,1,80,2,2,0,2,0.716409941493036,0.75405877890386
"801",35,37,1,1,81,2,2,0,2,0.678822799263116,0.687053870849807
"802",35,20,1,2,82,2,1,0,2,0.748953793360687,0.874337800490838
"803",35,21,1,1,83,1,2,0,3,0.654238439759297,0.702243529934955
"804",35,29,1,2,84,2,1,0,3,0.760334663654637,0.8113504455403
"805",35,32,1,1,85,2,1,1,4,0.671307973324457,0.625731616424635
"806",35,29,1,2,86,3,1,0,1,1.90453081498776,1.91558268213451
"807",35,27,1,2,87,3,2,1,2,0.625014665719615,0.620090801790672
"808",35,38,1,2,88,3,1,0,1,0.934301773387172,0.932374598258752
"809",35,19,1,1,89,2,1,1,3,0.51481814953533,0.435999526175215
"810",35,20,1,1,90,2,1,1,4,0.651407724868503,0.781297682827426
"811",35,37,1,1,91,2,2,0,3,0.691597246593023,0.570056421426216
"812",35,20,1,2,92,3,2,1,2,0.554892637490321,0.605258823258654
"813",35,21,1,2,93,3,2,1,3,0.812392960573359,0.812302793436782
"814",35,29,1,2,94,2,1,0,3,0.234563946835665,0.287045119095029
"815",35,32,1,1,95,3,2,0,1,0.56586199607769,0.562467555470236
"816",35,29,1,2,96,1,2,1,4,0.421346926967242,0.366181833237513
"817",35,27,1,2,97,1,2,1,4,0.39341015177314,0.451670153710849
"818",35,38,1,2,98,3,1,0,2,1.32294656803026,1.3478282625025
"819",35,19,1,1,99,3,1,1,3,0.595157926542399,0.600580983733351
"820",35,20,1,1,100,3,2,0,1,1.32963532055132,1.32964839919943
"821",35,37,1,1,101,1,2,0,3,0.614413467486733,0.673303143158139
"822",35,20,1,2,102,1,2,1,5,0.523647526335436,0.510177664054991
"823",35,21,1,1,103,1,1,1,5,0.59420095888688,0.634043326426013
"824",35,29,1,2,104,1,2,1,4,0.469282312419029,0.444291494419407
"825",35,32,1,2,105,2,2,1,3,0.590480912342589,0.650524045270905
"826",35,29,1,1,106,3,2,0,1,0.925255858127849,0.934979860790258
"827",35,27,1,2,107,1,2,1,4,0.382976822891451,0.427061225046363
"828",35,38,1,2,108,1,2,1,5,0.403108302680248,0.418020382054081
"829",35,19,1,2,109,2,2,1,4,0.620066204701291,0.625423322371166
"830",35,20,1,1,110,3,1,1,2,0.561911893298119,0.59377504505259
"831",35,37,1,2,111,2,1,0,3,0.473854815872558,0.488825136518238
"832",35,20,1,1,112,1,1,1,4,0.332835089651746,0.290708675853599
"833",35,21,1,2,113,2,2,1,4,0.664953773156632,0.693986854389758
"834",35,29,1,1,114,2,1,1,3,0.527214327631442,0.477641680991145
"835",35,32,1,2,115,2,2,1,4,0.490848572848061,0.509244731113154
"836",35,29,1,1,116,3,2,0,1,0.961138099978711,0.908397467392378
"837",35,27,1,1,117,1,2,0,4,0.638409353663599,0.678690999927683
"838",35,38,1,2,118,3,1,0,2,0.862954100943784,0.817694452324712
"839",35,19,1,1,119,1,2,0,3,0.412520821380917,0.361503191832771
"840",35,20,1,2,120,1,2,1,5,0.444409838740405,0.496843776251045
"841",35,37,1,2,121,2,1,0,2,0.531767682142207,0.585310191099718
"842",35,20,1,1,122,2,1,1,4,0.542018771773794,0.520004816217718
"843",35,21,1,2,123,1,1,0,3,0.395690753666691,0.441020923193861
"844",35,29,1,2,124,3,2,1,2,0.66043407773386,0.706651154724235
"845",35,32,1,1,125,1,1,1,4,0.276013391808819,0.296046643393673
"846",35,29,1,1,126,2,1,1,4,0.619151666003396,0.532626532308917
"847",35,27,1,2,127,1,1,0,4,0.567149646250762,0.461873815668849
"848",35,38,1,1,128,3,1,1,2,0.685805766526395,0.641952892252408
"849",35,19,1,1,129,2,1,1,3,0.661348003515163,0.601198100893024
"850",35,20,1,2,130,2,2,1,4,0.58749265138521,0.507649880397488
"851",35,37,1,2,131,2,2,1,3,0.677094986449478,0.675819632651442
"852",35,20,1,2,132,1,2,1,5,0.297835767057444,0.277608094525927
"853",35,21,1,2,133,3,2,1,2,0.863014811374057,0.84147689014147
"854",35,29,1,2,134,1,2,1,5,0.540614683150432,0.5998319772837
"855",35,32,1,2,135,3,1,0,2,0.122288912489827,0.240504941642595
"856",35,29,1,2,136,2,2,1,4,0.464877471467615,0.538257285599463
"857",35,27,1,1,137,3,1,1,3,0.662073089574597,0.617655975496005
"858",35,38,1,1,138,1,1,1,5,0.431449209709721,0.402740934754092
"859",35,19,1,1,139,3,1,1,3,0.826009619806694,0.862442641822628
"860",35,20,1,1,140,1,1,1,5,0.47485003982994,0.484699750915057
"861",35,37,1,1,141,3,1,1,2,0.856120731694572,0.858492713814816
"862",35,20,1,1,142,1,1,1,5,0.446085092776593,0.461673235812873
"863",35,21,1,2,143,1,1,0,3,0.531915217382211,0.539907245819594
"864",35,29,1,1,144,3,2,0,1,0.939669670951374,0.935258807597341
"865",35,32,1,1,145,2,1,1,4,0.833656890039411,0.802228890783569
"866",35,29,1,2,146,3,1,0,1,0.799257730424807,0.836922277937979
"867",35,27,1,2,147,3,2,1,3,0.557252459893453,0.542131444963634
"868",35,38,1,2,148,2,2,1,3,0.626416173413518,0.534201875170044
"869",35,19,1,1,149,2,1,1,3,0.436165774734981,0.45728533070507
"870",35,20,1,2,150,3,2,1,2,0.769198531021325,0.704842981313161
"871",35,37,1,2,151,1,2,1,5,0.34096216796804,0.325587431372276
"872",35,20,1,2,152,3,1,0,2,1.0181623375401,1.02409009823946
"873",35,21,1,2,153,3,1,0,2,0.747381259436444,0.753047010762777
"874",35,29,1,1,154,3,2,0,2,1.24405840462306,1.28319666838641
"875",35,32,1,1,155,2,1,1,4,0.506799791584699,0.538047505390729
"876",35,29,1,1,156,1,2,0,4,0.577234851315281,0.606045636294952
"877",35,27,1,1,157,3,2,0,2,0.913753015759215,0.951976170289047
"878",35,38,1,1,158,2,2,0,3,0.442220847519458,0.442749793204567
"879",35,19,1,2,159,1,1,0,3,0.337249674353728,0.365470943630097
"880",35,20,1,1,160,2,1,1,4,0.561086823034941,0.652034873067954
"881",35,37,1,1,161,2,1,1,4,0.741489729144653,0.67135275584418
"882",35,20,1,2,162,2,2,1,4,0.529827371955904,0.547331854745405
"883",35,21,1,2,163,2,2,1,3,0.578718218353139,0.611764373427947
"884",35,29,1,2,164,2,2,1,4,0.606049348498558,0.618717221760681
"885",35,32,1,1,165,1,2,0,4,0.636488868586773,0.619775092813696
"886",35,29,1,1,166,1,1,1,4,0.294797256030041,0.332657174776709
"887",35,27,1,1,167,1,1,1,5,0.404889102380581,0.44077103584547
"888",35,38,1,1,168,1,1,1,4,0.276880960924923,0.200930808814374
"889",35,19,1,1,169,1,1,1,4,0.396103233947918,0.482306005118799
"890",35,20,1,2,170,3,1,0,1,0.336793797110622,0.211043621209732
"891",35,37,1,2,171,2,2,1,4,0.641179542667325,0.530540377037059
"892",35,20,1,2,172,1,2,1,4,0.41972907429698,0.403346152182611
"893",35,21,1,1,173,3,1,1,2,0.980945251833991,1.02589455685691
"894",35,29,1,2,174,3,2,1,3,0.992157913263128,0.94238980109326
"895",35,32,1,1,175,3,2,0,2,1.48446807597847,1.50828735209363
"896",35,29,1,2,176,3,2,1,3,0.787081638850795,0.703295778895366
"897",35,27,1,2,177,1,2,1,4,0.420644966666492,0.474691237151927
"898",35,38,1,2,178,2,1,0,3,0.662888676391009,0.622455754456947
"899",35,19,1,2,179,1,2,1,5,0.37390524364708,0.427811253596028
"900",35,20,1,1,180,1,2,0,3,0.487319217208423,0.50887416711512
"901",35,37,1,2,181,1,2,1,4,0.539839996308094,0.608339554553801
"902",35,20,1,1,182,2,2,0,2,0.646684906243153,0.743719621347133
"903",35,21,1,2,183,1,2,1,4,0.344757418740546,0.349841858295926
"904",35,29,1,1,184,3,2,0,2,1.0410822867016,1.13763331789894
"905",35,32,1,2,185,1,2,1,5,0.402040523047065,0.461021045541408
"906",35,29,1,2,186,2,2,1,3,0.551532258254478,0.469685424980481
"907",35,27,1,1,187,1,1,1,4,0.398446051837276,0.372337679262777
"908",35,38,1,2,188,1,2,1,4,0.346552092357144,0.278282536509735
"909",35,19,1,1,189,3,2,0,2,1.20778979069932,1.11603470182548
"910",35,20,1,2,190,2,2,1,3,0.523018952130206,0.420669334484434
"911",35,37,1,1,191,3,2,0,1,0.774424357975567,0.926295487283639
"912",35,20,1,1,192,3,2,0,2,0.92883712400636,0.892008188566134
"913",35,21,1,2,193,3,2,1,2,0.909171614842617,0.8174024460796
"914",35,29,1,2,194,2,2,1,4,0.445334440181712,0.42254125276132
"915",35,32,1,2,195,1,2,1,4,0.318661606230191,0.344616321631527
"916",35,29,1,2,196,2,1,0,3,0.603933978868566,0.673442712495287
"917",35,27,1,1,197,3,2,0,2,1.14687435355583,1.08629986200591
"918",35,38,1,2,198,3,1,0,1,1.10826503024122,1.14612113845483
"919",35,19,1,1,199,3,1,1,3,0.634590545969409,0.598764073522928
"920",35,20,1,1,200,3,1,1,3,0.803317988034669,0.720842222653089
"921",35,37,1,1,201,1,1,1,4,0.367669259688287,0.35899802063064
"922",35,20,1,2,202,1,2,1,5,0.43807557472654,0.513601885461119
"923",35,21,1,1,203,1,1,1,5,0.468693961117769,0.412578417353912
"924",35,29,1,1,204,1,1,1,5,0.471109152451492,0.506118014714044
"925",35,32,1,2,205,3,2,1,2,0.389497910659502,0.402139698680358
"926",35,29,1,1,206,3,1,1,2,0.565510613988519,0.677944385216168
"927",35,27,1,2,207,3,2,1,3,0.687306688164631,0.70959408600267
"928",35,38,1,1,208,1,1,1,5,0.413146540587672,0.394942848565917
"929",35,19,1,1,209,3,1,1,3,1.1007267167655,1.00026170729926
"930",35,20,1,1,210,2,1,1,4,0.520028704917291,0.492412013102701
"931",35,37,1,2,211,3,1,0,2,0.806954800421767,0.834565669427231
"932",35,20,1,2,212,2,2,1,4,0.63304264938047,0.678265984023674
"933",35,21,1,2,213,3,1,0,1,1.62841838085335,1.65044293123761
"934",35,29,1,2,214,1,2,1,4,0.420383203445603,0.370893213373835
"935",35,32,1,1,215,1,2,0,3,0.401564819994578,0.436764861111213
"936",35,29,1,2,216,3,2,1,2,0.809712619708667,0.815358349018289
"937",35,27,1,1,217,1,1,1,4,0.399069954861358,0.401920725965737
"938",35,38,1,2,218,3,1,0,2,1.0825661047178,1.05570347961557
"939",35,19,1,1,219,2,1,1,4,0.41402498712418,0.409529254569668
"940",35,20,1,2,220,1,2,1,4,0.325835416869908,0.328195862353085
"941",35,37,1,2,221,2,1,0,2,0.833475506383638,0.87497548825883
"942",35,20,1,1,222,2,1,1,3,0.470495358026067,0.386230386790342
"943",35,21,1,2,223,3,1,0,1,1.49153121242036,1.53112263720465
"944",35,29,1,2,224,2,2,1,4,0.628341800270119,0.683270885382763
"945",35,32,1,1,225,2,1,1,4,0.414600888685497,0.339918176666153
"946",35,29,1,1,226,2,2,0,3,0.851711905746604,0.883820601284659
"947",35,27,1,2,227,3,2,1,2,0.692919487101225,0.659844241088648
"948",35,38,1,2,228,2,2,1,4,0.698334172239934,0.659932229303625
"949",35,19,1,2,229,3,2,1,3,0.803644764891769,0.85324583880193
"950",35,20,1,2,230,3,1,0,1,1.22781757288985,1.24231403660823
"951",35,37,1,2,231,1,2,1,4,0.455426746124596,0.475120255550104
"952",35,20,1,1,232,2,1,1,4,0.617998315921633,0.57529239322271
"953",35,21,1,1,233,3,2,0,2,0.291351392537106,0.328610274441227
"954",35,29,1,2,234,3,2,1,3,1.20371754807139,1.16733777867708
"955",35,32,1,2,235,2,2,1,3,0.526043199699896,0.490764546296263
"956",35,29,1,1,236,2,1,1,3,0.622074629381673,0.679200746948278
"957",35,27,1,1,237,2,1,1,4,0.590817902681957,0.523340585271528
"958",35,38,1,1,238,3,2,0,1,1.22068998045054,1.16080823932524
"959",35,19,1,1,239,1,1,1,5,0.405561222109739,0.392101165351897
"960",35,20,1,1,240,2,1,1,3,0.523635655529169,0.537866786366485
"961",34,19,2,1,1,1,1,1,4,0.478193285325443,0.48714568395728
"962",34,30,2,1,2,2,1,1,3,0.612660452842999,0.587451638037285
"963",34,37,2,2,3,2,2,1,3,0.830534535057132,0.837158001786943
"964",34,29,2,1,4,3,1,1,2,0.995351495792964,0.94263017429073
"965",34,26,2,2,5,2,2,1,3,0.631134804517438,0.621535535494859
"966",34,21,2,1,6,3,2,0,1,0.82408023217358,0.794767160990758
"967",34,20,2,1,7,1,1,1,4,0.506466772683101,0.518571936260853
"968",34,35,2,2,8,1,1,0,3,0.642630358731463,0.650413718698759
"969",34,24,2,1,9,1,1,1,5,0.370253960557938,0.230332178844482
"970",34,32,2,1,10,3,2,0,2,1.19460232911141,1.16610245517126
"971",34,19,2,1,11,2,1,1,3,0.665388083728624,0.71330703668882
"972",34,30,2,1,12,1,2,0,3,0.795931587195264,0.69511531375646
"973",34,37,2,2,13,3,1,0,2,1.0078778365657,0.989698420116381
"974",34,29,2,2,14,2,1,0,3,0.801494851756182,0.858222358640854
"975",34,26,2,1,15,3,2,0,2,1.25315802035363,1.18914750363814
"976",34,21,2,2,16,2,1,0,2,0.905370932285862,0.85963137286315
"977",34,20,2,2,17,1,2,1,4,0.382723678947547,0.34090505636812
"978",34,35,2,1,18,3,1,1,3,0.689225269814596,0.733540599557291
"979",34,24,2,1,19,3,1,1,3,0.73335172219711,0.740686916672385
"980",34,32,2,1,20,3,2,0,2,1.08075549519567,1.11839393197543
"981",34,19,2,1,21,3,1,1,2,0.810970242482888,0.808081163117626
"982",34,30,2,2,22,2,2,1,3,0.611953794292673,0.73334657073137
"983",34,37,2,2,23,1,2,1,4,0.517193632240681,0.516683252315607
"984",34,29,2,1,24,1,1,1,5,0.402802875377147,0.320209370287283
"985",34,26,2,1,25,1,2,0,3,0.712345967146838,0.767672211723778
"986",34,21,2,2,26,3,1,0,1,0.44433805541745,0.450239555851457
"987",34,20,2,1,27,1,1,1,4,0.315643189059662,0.345903903583049
"988",34,35,2,2,28,3,1,0,2,0.661356375998398,0.675922267183518
"989",34,24,2,2,29,2,2,1,4,0.611678136104677,0.626519974046099
"990",34,32,2,2,30,3,2,1,3,0.507784637608345,0.68979593001103
"991",34,19,2,2,31,1,2,1,4,0.390176367287046,0.369983925517738
"992",34,30,2,1,32,1,1,1,5,0.414802925314136,0.311795712869306
"993",34,37,2,1,33,2,2,0,3,0.911611551819429,0.915778651376958
"994",34,29,2,1,34,2,2,0,3,0.571907685428059,0.532030898986798
"995",34,26,2,1,35,1,2,0,3,0.695863924343489,0.636184245105845
"996",34,21,2,2,36,2,1,0,2,0.63033116658177,0.652909707094291
"997",34,20,2,2,37,3,1,0,2,0.985963256836394,0.983580395120907
"998",34,35,2,2,38,3,1,0,1,1.69610220865424,1.70057907589145
"999",34,24,2,2,39,2,1,0,2,0.719644882159312,0.741353377766951
"1000",34,32,2,2,40,2,2,1,3,0.616648164548709,0.585841411490769
"1001",34,19,2,2,41,2,2,1,4,0.619201541108388,0.548348456316381
"1002",34,30,2,2,42,2,1,0,3,0.69824262992831,0.695068632326669
"1003",34,37,2,1,43,2,2,0,3,0.859934319541645,0.848577354121126
"1004",34,29,2,2,44,2,2,1,4,0.461179263688353,0.46038380035549
"1005",34,26,2,2,45,1,2,1,4,0.450675744184668,0.408792679522581
"1006",34,21,2,2,46,1,2,1,5,0.397524176528799,0.37365117814624
"1007",34,20,2,2,47,3,2,1,2,1.16368108765702,1.24768636326095
"1008",34,35,2,1,48,1,1,1,4,0.480299844181401,0.515168621722919
"1009",34,24,2,2,49,3,1,0,1,1.36148062157893,1.39726211826303
"1010",34,32,2,2,50,3,2,1,3,0.504613187697632,0.52899077033947
"1011",34,19,2,2,51,3,2,1,2,0.682136199172324,0.631929798322674
"1012",34,30,2,1,52,1,1,1,4,0.219144210438124,0.253846050093776
"1013",34,37,2,2,53,3,1,0,2,1.60889681383135,1.57679692198178
"1014",34,29,2,2,54,2,1,0,3,0.572014032128772,0.640592649713111
"1015",34,26,2,1,55,3,2,0,1,1.10599126573985,1.14141453816376
"1016",34,21,2,1,56,3,2,0,2,0.693907857541567,0.794600862528894
"1017",34,20,2,1,57,2,1,1,3,0.377150874878265,0.363532397166446
"1018",34,35,2,2,58,1,2,1,4,0.459427717572293,0.408557654497061
"1019",34,24,2,2,59,3,1,0,2,1.0838354362245,1.02014514463793
"1020",34,32,2,1,60,3,2,0,2,1.03255962746937,1.04054133481289
"1021",34,19,2,2,61,3,1,0,1,1.38651122382945,1.41186453179479
"1022",34,30,2,2,62,2,2,1,3,0.667180400068465,0.654035680025284
"1023",34,37,2,2,63,3,1,0,1,1.27900752203533,1.19140603180876
"1024",34,29,2,1,64,1,1,1,5,0.439997304431621,0.34316111932168
"1025",34,26,2,1,65,3,2,0,1,0.464395662846437,0.414212551113594
"1026",34,21,2,1,66,3,1,1,2,0.868942287175137,0.906985066324187
"1027",34,20,2,2,67,2,1,0,3,0.853766789007134,0.876171982038043
"1028",34,35,2,1,68,1,1,1,4,0.352591743352959,0.493000482539402
"1029",34,24,2,1,69,3,2,0,2,0.963907520439821,0.861733998926077
"1030",34,32,2,1,70,2,1,1,3,0.516617067321602,0.562703690215557
"1031",34,19,2,1,71,1,2,0,3,0.529075891659273,0.549022593926311
"1032",34,30,2,1,72,1,1,1,4,0.353157454194036,0.360627230643058
"1033",34,37,2,1,73,2,2,0,2,0.693913853504575,0.682977987028098
"1034",34,29,2,2,74,3,2,1,3,1.02656127956748,1.07328570671195
"1035",34,26,2,1,75,3,2,0,1,1.48438915263909,1.33784797628666
"1036",34,21,2,2,76,1,1,0,3,0.639793651742215,0.619682097777327
"1037",34,20,2,1,77,1,2,0,4,0.556369388293135,0.617074479576742
"1038",34,35,2,1,78,1,1,1,5,0.489464090766255,0.460484601254446
"1039",34,24,2,2,79,1,2,1,5,0.529350819631574,0.487453295593312
"1040",34,32,2,2,80,1,1,0,3,0.579534154807506,0.603676594297993
"1041",34,19,2,1,81,1,1,1,4,0.549839375866312,0.489099135430835
"1042",34,30,2,1,82,3,2,0,1,0.839786836570975,0.839494734256455
"1043",34,37,2,1,83,2,1,1,4,0.643756758821411,0.666041965156507
"1044",34,29,2,1,84,2,2,0,3,0.577009403439776,0.500603233967323
"1045",34,26,2,1,85,2,2,0,3,0.583256815574733,0.614437978699129
"1046",34,21,2,2,86,3,2,1,3,0.622649356094157,0.656909239177792
"1047",34,20,2,2,87,3,2,1,2,0.665489589205926,0.626586682404905
"1048",34,35,2,2,88,1,2,1,5,0.344107946539425,0.286485932542164
"1049",34,24,2,1,89,3,2,0,2,1.25075502765146,1.23269894119931
"1050",34,32,2,1,90,2,1,1,4,0.580083519228806,0.593815289693183
"1051",34,19,2,1,91,1,2,0,4,0.506174139158274,0.520387869370452
"1052",34,30,2,2,92,3,1,0,2,1.57332292916347,1.52301612383107
"1053",34,37,2,1,93,3,1,1,2,1.01943839324674,0.986295753067673
"1054",34,29,2,1,94,2,2,0,3,0.543997067722763,0.629472863194037
"1055",34,26,2,1,95,2,2,0,3,0.617699373752191,0.604747686818889
"1056",34,21,2,2,96,2,1,0,3,0.722230314838,0.830264984459459
"1057",34,20,2,2,97,1,2,1,4,0.403280996041852,0.351866619122567
"1058",34,35,2,1,98,2,1,1,3,0.521268470222979,0.525914824853801
"1059",34,24,2,2,99,1,2,1,5,0.19758441812219,0.195671900573913
"1060",34,32,2,1,100,2,1,1,3,0.689618059693388,0.697470595425107
"1061",34,19,2,2,101,3,1,0,2,1.38256543359455,1.37886633862439
"1062",34,30,2,1,102,1,1,1,5,0.369394593929311,0.338663787147675
"1063",34,37,2,2,103,3,2,1,2,0.633560906296036,0.585679873218667
"1064",34,29,2,1,104,3,2,0,2,1.49966732096111,1.53079529420689
"1065",34,26,2,1,105,1,2,0,3,0.695444438666612,0.757965938251164
"1066",34,21,2,2,106,3,1,0,2,1.19193867858299,1.17838369519711
"1067",34,20,2,2,107,3,2,1,3,0.717610794819272,0.741821982069115
"1068",34,35,2,2,108,3,2,1,3,0.766391983473768,0.804932358111122
"1069",34,24,2,2,109,1,2,1,4,0.432090810926178,0.429303999071601
"1070",34,32,2,1,110,1,2,0,4,0.514610107841054,0.632194683957235
"1071",34,19,2,2,111,1,2,1,4,0.447448715915862,0.444538146704389
"1072",34,30,2,2,112,2,1,0,3,0.746602361823154,0.782868896424863
"1073",34,37,2,2,113,1,1,0,4,0.766248080541978,0.806380531794453
"1074",34,29,2,1,114,1,1,1,4,0.424134152269189,0.417761995089984
"1075",34,26,2,2,115,2,2,1,3,0.556594980281113,0.546403571857783
"1076",34,21,2,2,116,2,1,0,3,0.7066242429954,0.738302861432684
"1077",34,20,2,2,117,3,1,0,1,1.42423941298856,1.37121719478499
"1078",34,35,2,1,118,2,2,0,3,0.637587536540611,0.609054181408022
"1079",34,24,2,2,119,1,1,0,4,0.696864835551205,0.684703073804222
"1080",34,32,2,1,120,3,2,0,1,1.40422569786917,1.42938548546846
"1081",34,19,2,2,121,3,2,1,2,1.0280264980735,1.06536826478117
"1082",34,30,2,1,122,2,1,1,3,0.349073487701838,0.3631121872002
"1083",34,37,2,1,123,1,1,1,4,0.339509112303229,0.344802463178127
"1084",34,29,2,1,124,2,1,1,3,0.558959146875393,0.621172230741876
"1085",34,26,2,1,125,3,2,0,1,0.311878364711389,0.379624408905069
"1086",34,21,2,2,126,2,1,0,3,0.732147468345544,0.763768397404382
"1087",34,20,2,1,127,2,2,0,2,0.729496112071637,0.693030012136704
"1088",34,35,2,2,128,1,2,1,5,0.411391893443732,0.436057018416305
"1089",34,24,2,2,129,2,2,1,3,0.706721008132861,0.707441061604277
"1090",34,32,2,2,130,3,2,1,3,0.967708027615723,0.981708486988868
"1091",34,19,2,2,131,2,1,0,3,0.666653020921411,0.627804228976783
"1092",34,30,2,1,132,2,1,1,4,0.66241117208959,0.700129792021604
"1093",34,37,2,1,133,3,2,0,1,0.961344646902885,0.959436395320991
"1094",34,29,2,2,134,1,2,1,4,0.424302270593412,0.473312498667439
"1095",34,26,2,2,135,3,2,1,2,0.750776710023974,0.756695898452528
"1096",34,21,2,2,136,2,2,1,4,0.646352539693996,0.672771163896925
"1097",34,20,2,2,137,2,1,0,3,0.705846411310446,0.646695433210524
"1098",34,35,2,1,138,1,1,1,4,0.267480220342737,0.305288733405466
"1099",34,24,2,2,139,3,1,0,2,1.62647815100987,1.54640921196055
"1100",34,32,2,1,140,2,1,1,3,0.384752093368538,0.364818749917677
"1101",34,19,2,2,141,2,2,1,3,0.704047176589927,0.641229607981068
"1102",34,30,2,2,142,2,2,1,3,0.572467172202551,0.617196971455059
"1103",34,37,2,2,143,1,2,1,4,0.379386460076618,0.364798671007491
"1104",34,29,2,2,144,1,2,1,4,0.416845501073087,0.433618248600007
"1105",34,26,2,1,145,1,1,1,4,0.390187873459638,0.413040570620366
"1106",34,21,2,2,146,3,2,1,3,0.847213533700829,0.84168984739506
"1107",34,20,2,2,147,2,2,1,3,0.687744635882134,0.723180381866971
"1108",34,35,2,1,148,1,2,0,4,0.546176471348428,0.560678141217135
"1109",34,24,2,2,149,2,2,1,4,0.770269073193735,0.715177415151114
"1110",34,32,2,2,150,1,2,1,5,0.408182906426601,0.421465301052632
"1111",34,19,2,2,151,3,2,1,2,0.991050699854485,1.04821599652851
"1112",34,30,2,1,152,2,1,1,3,0.517680036438836,0.550272503818032
"1113",34,37,2,2,153,3,2,1,2,0.949170268883787,1.02601922320034
"1114",34,29,2,2,154,1,2,1,5,0.454180212482288,0.384852360957978
"1115",34,26,2,1,155,1,1,1,5,0.292516235622812,0.248601015462761
"1116",34,21,2,2,156,3,2,1,3,0.664109561333358,0.673381517754128
"1117",34,20,2,2,157,2,2,1,4,0.551959910777212,0.58187201842419
"1118",34,35,2,1,158,2,2,0,2,0.283258921539029,0.269334457334734
"1119",34,24,2,2,159,2,2,1,3,0.613439995050471,0.655426691991008
"1120",34,32,2,2,160,2,1,0,2,0.549659200634151,0.586862727603438
"1121",34,19,2,2,161,1,2,1,4,0.389606218476397,0.366037447671009
"1122",34,30,2,1,162,1,2,0,4,0.628553634864223,0.624319020962913
"1123",34,37,2,1,163,2,2,0,2,0.858922151067255,0.822944312073529
"1124",34,29,2,1,164,1,1,1,4,0.23050496898681,0.243106810979359
"1125",34,26,2,1,165,2,1,1,3,0.447567919960448,0.401907238353906
"1126",34,21,2,1,166,2,2,0,3,0.536771374507837,0.515450926951831
"1127",34,20,2,2,167,2,1,0,2,0.479371814515973,0.496165486350206
"1128",34,35,2,2,168,1,2,1,5,0.411944679629934,0.446493579208426
"1129",34,24,2,1,169,1,1,1,5,0.33371224765349,0.277935487705113
"1130",34,32,2,1,170,3,1,1,2,1.01573023100716,1.0191161330647
"1131",34,19,2,1,171,1,2,0,3,0.505089570138616,0.520314930457276
"1132",34,30,2,1,172,2,1,1,3,0.526160741767251,0.48761508433423
"1133",34,37,2,2,173,2,2,1,3,0.628957645628248,0.626876779983988
"1134",34,29,2,1,174,2,2,0,2,0.529664231024843,0.487747376310193
"1135",34,26,2,2,175,2,1,0,3,0.677470356764474,0.759118813652467
"1136",34,21,2,1,176,3,2,0,2,1.14205669700319,1.19440939001863
"1137",34,20,2,2,177,2,1,0,3,0.729039458343815,0.677832192754376
"1138",34,35,2,1,178,2,1,1,3,0.828158028077301,0.847779008170144
"1139",34,24,2,1,179,2,2,0,3,0.213561007451721,0.15591858592728
"1140",34,32,2,1,180,1,1,1,5,0.579080264105021,0.630348145851886
"1141",34,19,2,1,181,1,1,1,4,0.346841504864607,0.35657807596038
"1142",34,30,2,1,182,1,1,1,4,0.310846806626862,0.290151582202931
"1143",34,37,2,1,183,2,1,1,4,0.500296078225555,0.471406494537179
"1144",34,29,2,1,184,2,1,1,4,0.585495348704184,0.620523889199986
"1145",34,26,2,2,185,3,1,0,2,0.884540713922852,0.817398582459141
"1146",34,21,2,1,186,1,1,1,5,0.421213947121693,0.396575458100453
"1147",34,20,2,1,187,3,1,1,2,0.775936254347997,0.71841196249883
"1148",34,35,2,1,188,1,1,1,5,0.436052393865494,0.378656301769213
"1149",34,24,2,2,189,2,2,1,4,0.689856601737055,0.739710996846521
"1150",34,32,2,1,190,1,1,1,4,0.492218238962083,0.45677819720291
"1151",34,19,2,2,191,1,1,0,4,0.49787147122153,0.563691413858223
"1152",34,30,2,1,192,3,2,0,2,1.40700757020204,1.38406763049676
"1153",34,37,2,1,193,3,1,1,2,1.07390944439464,1.11185402288916
"1154",34,29,2,1,194,1,1,1,5,0.283059371282204,0.278324871138108
"1155",34,26,2,2,195,2,2,1,4,0.716978963649018,0.598588230898703
"1156",34,21,2,1,196,1,2,0,3,0.453971748045138,0.526241856224952
"1157",34,20,2,1,197,1,1,1,4,0.380868512303115,0.338488795555264
"1158",34,35,2,2,198,1,2,1,4,0.47589693080899,0.525187491076933
"1159",34,24,2,1,199,2,2,0,3,0.572171217184552,0.655318000822462
"1160",34,32,2,2,200,3,1,0,2,0.810356029529405,0.699236378579841
"1161",34,19,2,1,201,1,1,1,5,0.326712060673792,0.281829045219818
"1162",34,30,2,1,202,1,2,0,3,0.641705146282654,0.679052909767687
"1163",34,37,2,2,203,2,2,1,4,0.593814511737253,0.695661469451618
"1164",34,29,2,1,204,2,1,1,4,0.688445426910073,0.571214056896015
"1165",34,26,2,2,205,1,2,1,5,0.494521884814405,0.450985859562219
"1166",34,21,2,1,206,3,2,0,2,1.06006944803414,1.12991390537421
"1167",34,20,2,1,207,3,2,0,1,0.882091725403763,0.863781022160542
"1168",34,35,2,2,208,2,1,0,2,0.74381288049773,0.75416107445734
"1169",34,24,2,1,209,2,2,0,3,0.74899344293872,0.743741568250198
"1170",34,32,2,1,210,3,2,0,2,1.23985939170446,1.25706163684154
"1171",34,19,2,2,211,3,2,1,2,0.603418594853061,0.600548616806706
"1172",34,30,2,2,212,3,2,1,2,1.08192196079568,1.09709222666312
"1173",34,37,2,2,213,2,1,0,3,0.506233031960275,0.452786929278747
"1174",34,29,2,2,214,3,1,0,1,1.12931695260973,1.06665256881013
"1175",34,26,2,2,215,3,2,1,3,0.801621648332555,0.773644962136821
"1176",34,21,2,1,216,3,2,0,1,0.900388400117167,0.869243693837674
"1177",34,20,2,1,217,3,1,1,3,0.927717628645557,0.925639065432403
"1178",34,35,2,2,218,1,1,0,3,0.45814649521535,0.556626544284031
"1179",34,24,2,1,219,2,1,1,3,0.546367812966918,0.509540698655856
"1180",34,32,2,2,220,1,2,1,5,0.260964758162183,0.162673907681705
"1181",34,19,2,1,221,2,1,1,4,0.61368956416215,0.66039297559213
"1182",34,30,2,2,222,3,2,1,3,0.756744321511267,0.764855941243137
"1183",34,37,2,2,223,3,2,1,3,0.76831041858485,0.776183324910766
"1184",34,29,2,2,224,3,1,0,1,0.517264180299208,0.435732800044117
"1185",34,26,2,2,225,2,1,0,3,0.676352671151858,0.732959073625061
"1186",34,21,2,2,226,2,2,1,3,0.634838117239348,0.685051784896728
"1187",34,20,2,2,227,1,2,1,5,0.40651894404379,0.462945958630362
"1188",34,35,2,1,228,3,1,1,2,0.526156598531302,0.514853626105471
"1189",34,24,2,2,229,3,2,1,2,0.978919376599781,1.08030483900396
"1190",34,32,2,2,230,3,2,1,3,0.696488789478448,0.704164076090553
"1191",34,19,2,1,231,3,2,0,2,1.24245996207404,1.23628661779526
"1192",34,30,2,1,232,3,2,0,1,0.788531104390565,0.821499565282781
"1193",34,37,2,1,233,1,1,1,5,0.408906439229989,0.580868254463755
"1194",34,29,2,2,234,1,2,1,4,0.350296113618044,0.333129525989683
"1195",34,26,2,1,235,1,1,1,4,0.386722201216784,0.418630263857269
"1196",34,21,2,2,236,1,2,1,5,0.399471346113954,0.353138639625089
"1197",34,20,2,1,237,3,2,0,1,0.555512416102424,0.596887084191731
"1198",34,35,2,2,238,1,2,1,4,0.487410400697667,0.569017628388839
"1199",34,24,2,2,239,1,2,1,4,0.3910483901827,0.363670549520075
"1200",34,32,2,1,240,3,2,0,2,0.300813794583504,0.316865089839506
"1201",33,30,1,2,1,1,1,0,3,0.499203479299172,0.45496595397586
"1202",33,39,1,2,2,3,1,0,1,0.718465216133718,0.754909969771603
"1203",33,27,1,2,3,3,1,0,2,0.712877576358449,0.68753726378674
"1204",33,26,1,1,4,2,1,1,3,0.638059045214233,0.568655417371757
"1205",33,28,1,1,5,2,1,1,4,0.388788685970838,0.318750109926897
"1206",33,28,1,1,6,3,2,0,2,1.28143106316824,1.36271854388214
"1207",33,23,1,1,7,1,1,1,5,0.364590822424005,0.355009401839583
"1208",33,20,1,2,8,1,2,1,5,0.531267123081828,0.530133708728847
"1209",33,39,1,1,9,1,1,1,5,0.413005143839451,0.35323731535483
"1210",33,24,1,1,10,1,1,1,5,0.397411291826959,0.372845294049824
"1211",33,30,1,2,11,1,2,1,4,0.408349324675142,0.427422798409913
"1212",33,39,1,2,12,2,2,1,3,0.603131049963991,0.617888956275961
"1213",33,27,1,2,13,2,1,0,3,0.929040541162604,1.06862544065998
"1214",33,26,1,2,14,2,2,1,3,0.49225815792384,0.541652309230528
"1215",33,28,1,1,15,2,2,0,2,0.62371412213334,0.562753097665618
"1216",33,28,1,1,16,3,2,0,2,1.59919308986112,1.70741364142515
"1217",33,23,1,2,17,3,2,1,2,0.956992262074069,0.97164273597305
"1218",33,20,1,1,18,3,1,1,3,0.629024818976091,0.573114548796289
"1219",33,39,1,1,19,2,1,1,3,0.425631084935034,0.424045201508454
"1220",33,24,1,1,20,2,2,0,2,0.614479878409873,0.592024782291467
"1221",33,30,1,2,21,2,2,1,4,0.639657183187489,0.628054022710678
"1222",33,39,1,2,22,3,1,0,2,0.294674591350386,0.333250185209583
"1223",33,27,1,1,23,1,1,1,4,0.254902577951548,0.299796348480143
"1224",33,26,1,2,24,3,1,0,1,0.684675748151994,0.716970448076428
"1225",33,28,1,1,25,1,1,1,4,0.457142297252093,0.481094748909932
"1226",33,28,1,2,26,3,1,0,1,1.10036002375514,1.163628235123
"1227",33,23,1,2,27,2,1,0,2,0.766901199016665,0.7880921518293
"1228",33,20,1,1,28,3,1,1,3,1.01194809551028,1.03773928702381
"1229",33,39,1,1,29,2,1,1,4,0.647886517381621,0.656170890775976
"1230",33,24,1,1,30,1,1,1,5,0.367043546058779,0.366560297432075
"1231",33,30,1,2,31,3,2,1,3,0.523837148560999,0.472621418521134
"1232",33,39,1,2,32,3,2,1,2,0.999651442814619,0.956095965994236
"1233",33,27,1,1,33,2,2,0,3,0.567194620864472,0.65708778199769
"1234",33,26,1,2,34,1,2,1,5,0.278649884788089,0.270068931259902
"1235",33,28,1,1,35,2,1,1,4,0.674562480671737,0.630357559247527
"1236",33,28,1,1,36,2,2,0,3,0.510121235008656,0.484925063756577
"1237",33,23,1,2,37,1,2,1,5,0.495835449720162,0.530693748487802
"1238",33,20,1,1,38,2,2,0,3,0.674277336577287,0.697761744497267
"1239",33,39,1,1,39,2,1,1,3,0.704584263933371,0.699537944575969
"1240",33,24,1,2,40,3,1,0,2,0.967032401362217,0.940438898685029
"1241",33,30,1,1,41,1,2,0,3,0.597980958004714,0.527666658660683
"1242",33,39,1,1,42,1,1,1,4,0.49097446771777,0.47918939738245
"1243",33,27,1,1,43,1,1,1,5,0.460971640902722,0.490560510463163
"1244",33,26,1,2,44,1,2,1,5,0.468242001363164,0.461119673521148
"1245",33,28,1,1,45,3,2,0,1,1.54143485992828,1.5840190036199
"1246",33,28,1,2,46,1,2,1,4,0.398777299028842,0.31884334534436
"1247",33,23,1,2,47,2,1,0,2,0.49156955273965,0.480624620604857
"1248",33,20,1,2,48,1,2,1,5,0.361378869767874,0.455985443020514
"1249",33,39,1,1,49,1,1,1,5,0.39292092719705,0.425444679665552
"1250",33,24,1,2,50,1,1,0,3,0.672081456565006,0.740040799175996
"1251",33,30,1,1,51,2,2,0,2,0.898517889976085,0.878027544862303
"1252",33,39,1,1,52,3,2,0,1,1.01785723503963,1.01427681354275
"1253",33,27,1,1,53,1,1,1,5,0.399102085065749,0.370586243419942
"1254",33,26,1,2,54,3,1,0,2,1.1654317368235,1.1940766526745
"1255",33,28,1,2,55,2,2,1,3,0.675087902379142,0.767788669316915
"1256",33,28,1,1,56,2,1,1,3,0.55827261146542,0.558702025570443
"1257",33,23,1,2,57,2,1,0,3,0.786836799338706,0.837112053633368
"1258",33,20,1,1,58,2,2,0,3,0.546441991128313,0.58193190946667
"1259",33,39,1,1,59,3,2,0,1,0.710387107154669,0.679247026137613
"1260",33,24,1,2,60,2,1,0,3,0.73215217810054,0.630641733846513
"1261",33,30,1,1,61,2,1,1,3,0.339922585360122,0.299914717681981
"1262",33,39,1,2,62,3,2,1,2,0.8131665942524,0.74944180570383
"1263",33,27,1,1,63,3,2,0,1,1.12101913570461,1.14720639299923
"1264",33,26,1,2,64,2,2,1,3,0.645591937260502,0.562217788293446
"1265",33,28,1,2,65,1,2,1,4,0.529566809119113,0.522432426595819
"1266",33,28,1,2,66,2,2,1,3,0.59746616861012,0.602519986040093
"1267",33,23,1,1,67,2,1,1,3,0.68525923963126,0.62265590516743
"1268",33,20,1,1,68,1,1,1,4,0.380876641246709,0.364359425503715
"1269",33,39,1,2,69,3,2,1,2,1.13166627304495,1.08954041162196
"1270",33,24,1,2,70,1,2,1,5,0.44883961638462,0.504119950412321
"1271",33,30,1,1,71,2,1,1,4,0.662412943445667,0.61448462000925
"1272",33,39,1,2,72,1,2,1,4,0.319179731907513,0.239599216627158
"1273",33,27,1,1,73,2,1,1,3,0.783263426881186,0.808813422775784
"1274",33,26,1,1,74,1,2,0,4,0.73584952979103,0.756200444585236
"1275",33,28,1,1,75,1,1,1,4,0.463926725543503,0.555385082951463
"1276",33,28,1,1,76,1,1,1,5,0.376752749366141,0.391300959522742
"1277",33,23,1,2,77,1,2,1,5,0.475545425099945,0.455385047510632
"1278",33,20,1,2,78,3,1,0,1,0.851099786985925,0.903620888118048
"1279",33,39,1,1,79,3,1,1,3,0.586357018848674,0.593580132664142
"1280",33,24,1,2,80,1,2,1,5,0.27700277716985,0.25087931411558
"1281",33,30,1,2,81,2,2,1,3,0.683410760811313,0.601693503886613
"1282",33,39,1,2,82,2,2,1,4,0.67980994534713,0.644828949672337
"1283",33,27,1,2,83,3,1,0,1,0.825609318780461,0.76608957299677
"1284",33,26,1,1,84,1,1,1,4,0.431249851383877,0.438920685871207
"1285",33,28,1,2,85,1,2,1,5,0.246425094803644,0.245650769656062
"1286",33,28,1,1,86,3,1,1,3,1.17525162508077,1.1201431727415
"1287",33,23,1,2,87,1,2,1,5,0.346724700092606,0.36562036835758
"1288",33,20,1,1,88,1,2,0,3,0.850906471153634,0.944790591388683
"1289",33,39,1,2,89,2,1,0,3,0.437948637414969,0.423147801641171
"1290",33,24,1,2,90,2,1,0,2,0.502472628313437,0.495705427312147
"1291",33,30,1,2,91,2,2,1,4,0.463348246351142,0.486256333869396
"1292",33,39,1,1,92,3,2,0,2,1.17980005602699,1.2140765889189
"1293",33,27,1,2,93,3,1,0,1,0.528882955279424,0.545209086609324
"1294",33,26,1,1,94,3,1,1,2,0.65397506812979,0.688829278015422
"1295",33,28,1,2,95,3,1,0,1,1.30940224844696,1.34004041068298
"1296",33,28,1,2,96,1,1,0,4,0.61966111779767,0.580262193179765
"1297",33,23,1,1,97,1,2,0,4,0.510466994984941,0.492516582164689
"1298",33,20,1,2,98,3,2,1,2,1.00112055659177,0.993266617148257
"1299",33,39,1,2,99,3,1,0,1,0.536137391695862,0.536257724785452
"1300",33,24,1,2,100,1,2,1,4,0.398353664449987,0.461593699946323
"1301",33,30,1,2,101,2,2,1,3,0.668470748306152,0.612486291272564
"1302",33,39,1,1,102,3,1,1,3,1.11640569804571,1.1300810538541
"1303",33,27,1,1,103,3,2,0,1,1.20874140504095,1.2562729682395
"1304",33,26,1,1,104,1,1,1,5,0.386094184309653,0.388601720316812
"1305",33,28,1,2,105,2,1,0,2,0.666521862989615,0.727262799814871
"1306",33,28,1,1,106,1,1,1,4,0.414421130284952,0.422311836147886
"1307",33,23,1,2,107,3,2,1,2,0.840495240670868,0.833469365302527
"1308",33,20,1,1,108,2,2,0,2,0.598741879800504,0.549916413585199
"1309",33,39,1,2,109,3,1,0,2,1.04285934303782,0.944920625552571
"1310",33,24,1,1,110,2,2,0,2,0.930987425954782,0.921285754578318
"1311",33,30,1,1,111,3,1,1,2,0.754556434059745,0.800341800378009
"1312",33,39,1,2,112,1,2,1,5,0.342290162854275,0.311624101937498
"1313",33,27,1,1,113,2,1,1,4,0.520263573395818,0.576682192164484
"1314",33,26,1,2,114,2,1,0,2,0.687246427954514,0.747278440567336
"1315",33,28,1,1,115,3,1,1,3,0.868123735361235,0.838870797664629
"1316",33,28,1,2,116,3,1,0,2,1.19187896833893,1.29074596735998
"1317",33,23,1,2,117,3,1,0,1,0.766000419739293,0.787473004604773
"1318",33,20,1,1,118,1,2,0,4,0.449704301134905,0.491614750279105
"1319",33,39,1,1,119,2,1,1,3,0.618634128490603,0.591368958074899
"1320",33,24,1,1,120,1,1,1,5,0.48171828642484,0.596086163136162
"1321",33,30,1,1,121,1,1,1,4,0.40011135941095,0.50046744244508
"1322",33,39,1,2,122,1,1,0,4,0.707337918941106,0.692553963443498
"1323",33,27,1,2,123,2,1,0,2,0.703024218226723,0.740050948948475
"1324",33,26,1,1,124,3,1,1,3,0.844939957731007,0.744497973593594
"1325",33,28,1,1,125,1,2,0,3,0.700425901020485,0.707584476800873
"1326",33,28,1,2,126,3,1,0,1,0.522405793988654,0.529767506339813
"1327",33,23,1,2,127,3,1,0,1,0.818420117631852,0.827881166893166
"1328",33,20,1,1,128,2,1,1,3,0.56690051399224,0.609137650995144
"1329",33,39,1,1,129,2,2,0,2,0.702472775060766,0.727477772619763
"1330",33,24,1,2,130,1,2,1,5,0.291377297580335,0.347611479092481
"1331",33,30,1,1,131,2,1,1,4,0.593856568712124,0.585097865424289
"1332",33,39,1,2,132,1,2,1,4,0.325091565872607,0.354182917851758
"1333",33,27,1,2,133,1,2,1,5,0.41731833531595,0.413158589051665
"1334",33,26,1,2,134,2,2,1,4,0.505193309381631,0.471883460016865
"1335",33,28,1,1,135,2,1,1,4,0.561100485163768,0.574390477830728
"1336",33,28,1,2,136,2,1,0,3,0.494268141188243,0.524076245133105
"1337",33,23,1,2,137,1,1,0,3,0.48887143374786,0.473650019170901
"1338",33,20,1,2,138,3,2,1,2,0.604874026452239,0.575939728563117
"1339",33,39,1,2,139,1,2,1,4,0.211991226798833,0.270900427848987
"1340",33,24,1,1,140,3,2,0,2,0.323748224581073,0.268338852134469
"1341",33,30,1,1,141,2,2,0,3,0.507144764281904,0.459901351649144
"1342",33,39,1,1,142,3,2,0,1,0.424033002444885,0.449809911097048
"1343",33,27,1,2,143,2,1,0,2,0.646251917270768,0.689494769391643
"1344",33,26,1,2,144,2,2,1,3,0.77394034175449,0.845951173614761
"1345",33,28,1,2,145,2,2,1,3,0.542058638326531,0.529149983880448
"1346",33,28,1,2,146,3,2,1,3,0.857070834995624,0.860979264792347
"1347",33,23,1,2,147,3,1,0,1,1.15083945368296,1.10249832539905
"1348",33,20,1,1,148,1,1,1,5,0.392441602340649,0.430803786184066
"1349",33,39,1,2,149,2,1,0,3,0.871083840277364,0.87325309540903
"1350",33,24,1,2,150,1,2,1,5,0.308667252718462,0.342789946528775
"1351",33,30,1,1,151,2,2,0,3,1.05217139480132,1.09404407147625
"1352",33,39,1,2,152,2,2,1,3,0.522299539583125,0.494901964581681
"1353",33,27,1,1,153,3,2,0,2,1.44388306197342,1.37602932325887
"1354",33,26,1,2,154,2,2,1,4,0.770370399444785,0.756702981016145
"1355",33,28,1,1,155,2,2,0,2,0.628782342343415,0.661458066235984
"1356",33,28,1,1,156,3,2,0,2,0.503990727340926,0.528561910100705
"1357",33,23,1,1,157,1,2,0,4,0.492337776217404,0.467963886612151
"1358",33,20,1,2,158,1,1,0,4,0.349208701167796,0.377503281346314
"1359",33,39,1,2,159,2,2,1,3,0.641869873098836,0.594555450719585
"1360",33,24,1,1,160,1,2,0,4,0.52835191191119,0.521399647754404
"1361",33,30,1,1,161,3,1,1,2,0.880856287733741,0.881463250782882
"1362",33,39,1,1,162,3,2,0,2,0.750475071940243,0.733154469020137
"1363",33,27,1,2,163,3,2,1,3,0.637087581615264,0.64218916903134
"1364",33,26,1,2,164,2,1,0,2,0.484752632791115,0.425316723257493
"1365",33,28,1,2,165,2,1,0,3,0.778524697670945,0.748022515826384
"1366",33,28,1,1,166,1,1,1,4,0.341883870133843,0.388619634409512
"1367",33,23,1,1,167,2,1,1,3,0.446447565308899,0.538339369734941
"1368",33,20,1,1,168,1,1,1,5,0.382311108039088,0.344032430169807
"1369",33,39,1,2,169,3,1,0,2,0.873546521278509,0.882173947339374
"1370",33,24,1,1,170,1,1,1,4,0.499812267159389,0.527654711138271
"1371",33,30,1,1,171,1,1,1,5,0.397249289182746,0.452764200352194
"1372",33,39,1,2,172,2,2,1,3,0.553033380331078,0.562798038200539
"1373",33,27,1,2,173,2,2,1,3,0.703519410725512,0.699106933825305
"1374",33,26,1,2,174,1,2,1,4,0.443410718958835,0.469587430603536
"1375",33,28,1,1,175,1,1,1,4,0.446822917625758,0.415978037181296
"1376",33,28,1,1,176,1,1,1,5,0.438421012963641,0.466782865920259
"1377",33,23,1,1,177,2,1,1,3,0.560491834422306,0.50440837943557
"1378",33,20,1,1,178,1,1,1,4,0.416322948841163,0.502160245684322
"1379",33,39,1,1,179,2,1,1,3,0.538529427026589,0.493633616666467
"1380",33,24,1,2,180,2,1,0,3,0.827952844705564,0.768369905710729
"1381",33,30,1,1,181,3,1,1,2,0.73054975559389,0.766881634345701
"1382",33,39,1,1,182,2,1,1,3,0.524475476590914,0.507359778565733
"1383",33,27,1,2,183,3,2,1,2,0.593930663017531,0.593882296227702
"1384",33,26,1,2,184,2,2,1,3,0.646939153767584,0.673812531459853
"1385",33,28,1,1,185,1,1,1,5,0.4078709522727,0.368956417298262
"1386",33,28,1,2,186,2,2,1,4,0.625285275175494,0.717065610088322
"1387",33,23,1,2,187,3,2,1,3,0.701864200453283,0.65795404349277
"1388",33,20,1,2,188,2,1,0,3,0.851147110235469,0.863469334627499
"1389",33,39,1,1,189,3,1,1,3,0.461211605550907,0.469954042561971
"1390",33,24,1,2,190,3,1,0,1,1.29645881960563,1.28821589068192
"1391",33,30,1,1,191,3,2,0,1,1.69696549239949,1.76749397239948
"1392",33,39,1,1,192,2,1,1,3,0.539964408361715,0.481191771801277
"1393",33,27,1,1,193,1,1,1,5,0.445390645007942,0.396126653923673
"1394",33,26,1,1,194,1,1,1,5,0.432588549880784,0.364523569967695
"1395",33,28,1,1,195,1,2,0,3,0.467318836835562,0.479454386569935
"1396",33,28,1,2,196,3,2,1,2,0.805016605248516,0.81223186187357
"1397",33,23,1,1,197,3,1,1,3,1.04315181247888,0.998994305376361
"1398",33,20,1,1,198,3,1,1,3,0.436175798426128,0.291280532686644
"1399",33,39,1,2,199,1,2,1,4,0.47544054782972,0.521185236718365
"1400",33,24,1,1,200,2,2,0,2,0.575493437862023,0.634907701685941
"1401",33,30,1,2,201,1,2,1,4,0.380527825972698,0.334545116199335
"1402",33,39,1,2,202,2,1,0,3,0.570459587986407,0.528201680657103
"1403",33,27,1,2,203,2,1,0,3,0.559406249030752,0.555503477056814
"1404",33,26,1,2,204,3,2,1,2,0.795751047705518,0.712647746595152
"1405",33,28,1,2,205,3,1,0,2,1.13068522105833,1.1061577334503
"1406",33,28,1,2,206,1,1,0,4,0.565075948781136,0.489483226864423
"1407",33,23,1,1,207,2,1,1,3,0.684665921028052,0.598621539680225
"1408",33,20,1,2,208,3,2,1,3,0.503349729997344,0.610176575129957
"1409",33,39,1,1,209,1,1,1,4,0.422547274889436,0.407261517528014
"1410",33,24,1,2,210,2,1,0,3,0.631522306765621,0.609080549138075
"1411",33,30,1,1,211,3,2,0,1,1.10262531090463,1.03799414978916
"1412",33,39,1,1,212,3,1,1,3,0.872333036901519,0.989763805079152
"1413",33,27,1,2,213,3,1,0,2,1.42331540532892,1.45073939605654
"1414",33,26,1,1,214,2,1,1,4,0.65564242631386,0.652076410496972
"1415",33,28,1,2,215,2,2,1,3,0.440235804843131,0.319879932341635
"1416",33,28,1,2,216,3,2,1,2,0.846737791667472,0.775692748685064
"1417",33,23,1,1,217,3,2,0,2,0.525265493380573,0.524107307657761
"1418",33,20,1,1,218,1,1,1,5,0.452427643183957,0.456976167028059
"1419",33,39,1,1,219,3,1,1,3,0.796243338738657,0.819457682584957
"1420",33,24,1,1,220,3,1,1,2,0.647625598746846,0.701073759338076
"1421",33,30,1,2,221,3,2,1,3,0.932314521979763,0.895791112234011
"1422",33,39,1,2,222,3,2,1,3,0.826222329706148,0.745193796252435
"1423",33,27,1,2,223,3,1,0,2,1.50041405317018,1.48467644265818
"1424",33,26,1,1,224,3,2,0,1,0.893109666635535,1.04556531346256
"1425",33,28,1,2,225,1,2,1,4,0.496711990621619,0.409997945032099
"1426",33,28,1,1,226,3,2,0,1,1.39465460889423,1.37933894758559
"1427",33,23,1,2,227,3,2,1,2,0.994266412297564,0.986607841696352
"1428",33,20,1,2,228,1,2,1,5,0.404226953081684,0.355268816632513
"1429",33,39,1,2,229,1,1,0,4,0.550149623532308,0.477127123421705
"1430",33,24,1,1,230,1,1,1,4,0.398603488837811,0.393216446629911
"1431",33,30,1,1,231,1,1,1,4,0.338619016807892,0.371395268685126
"1432",33,39,1,1,232,3,1,1,3,0.332211090966876,0.377490925804456
"1433",33,27,1,1,233,1,1,1,4,0.392201372061315,0.434977380346814
"1434",33,26,1,2,234,1,1,0,4,0.500421252926998,0.562119606072938
"1435",33,28,1,2,235,1,2,1,4,0.424534089934572,0.403492370575995
"1436",33,28,1,1,236,2,1,1,4,0.722141995152055,0.710715041166099
"1437",33,23,1,1,237,2,2,0,2,0.650905561572903,0.706509625549424
"1438",33,20,1,2,238,3,1,0,1,0.862635117827833,0.904630086492463
"1439",33,39,1,1,239,3,1,1,2,0.742380325030151,0.750049593193788
"1440",33,24,1,1,240,1,1,1,4,0.367343316149777,0.311005225316578
"1441",32,19,2,1,1,1,1,1,4,0.49211196592877,0.434685788692559
"1442",32,38,2,2,2,1,1,0,4,0.487524588155821,0.448959381825679
"1443",32,36,2,2,3,2,1,0,3,0.596380615498146,0.478712730247321
"1444",32,29,2,1,4,2,1,1,3,0.464652646530901,0.423050654227958
"1445",32,25,2,2,5,2,2,1,4,0.629388757229841,0.614514569670497
"1446",32,40,2,1,6,1,1,1,4,0.324584157697032,0.416014559471266
"1447",32,21,2,2,7,2,1,0,3,0.832472891230381,0.840487738903315
"1448",32,39,2,1,8,3,2,0,2,1.21321700125276,1.24501391140876
"1449",32,39,2,1,9,3,2,0,2,1.18291021832085,1.20562169934068
"1450",32,18,2,1,10,1,1,1,4,0.408498643571215,0.416200561027249
"1451",32,19,2,2,11,1,2,1,4,0.485151575114491,0.537670511586675
"1452",32,38,2,2,12,3,2,1,3,1.14447127257834,1.11432247573461
"1453",32,36,2,1,13,1,1,1,5,0.345985180347945,0.375719303153078
"1454",32,29,2,1,14,3,1,1,2,0.622795509252622,0.623812379865749
"1455",32,25,2,1,15,3,2,0,2,0.782944294158759,0.690138999661379
"1456",32,40,2,1,16,2,2,0,3,0.745151564731257,0.685343524295398
"1457",32,21,2,2,17,2,1,0,3,0.409097117345826,0.35847437484095
"1458",32,39,2,1,18,2,2,0,3,0.648852764507545,0.64218403736048
"1459",32,39,2,1,19,2,2,0,3,0.80744236157462,0.805890783971957
"1460",32,18,2,2,20,2,2,1,4,0.654798546761276,0.73784154842617
"1461",32,19,2,1,21,2,2,0,3,0.884342192771345,0.918675844990974
"1462",32,38,2,2,22,1,2,1,5,0.421952191969796,0.474494598357128
"1463",32,36,2,1,23,2,1,1,3,0.63541289975444,0.541410075803731
"1464",32,29,2,1,24,2,1,1,4,0.924558682533897,0.909490164049322
"1465",32,25,2,2,25,2,1,0,3,0.484013188117247,0.509556157184741
"1466",32,40,2,1,26,3,2,0,2,0.72590229379553,0.672059717452541
"1467",32,21,2,2,27,1,2,1,5,0.385178078348745,0.458802038646143
"1468",32,39,2,2,28,3,1,0,1,0.97347459258685,1.00808859929645
"1469",32,39,2,1,29,3,1,1,3,0.855385529584948,0.871098156526048
"1470",32,18,2,2,30,3,1,0,2,0.800079534245245,0.725109603178995
"1471",32,19,2,2,31,1,2,1,4,0.408415187635004,0.471000628029147
"1472",32,38,2,2,32,1,2,1,5,0.424533427262516,0.401365754557191
"1473",32,36,2,2,33,3,2,1,2,0.918892168339094,0.908802165096038
"1474",32,29,2,2,34,3,1,0,1,1.5182063002981,1.5380113885003
"1475",32,25,2,1,35,3,2,0,1,1.7288698478846,1.75904817092958
"1476",32,40,2,2,36,1,1,0,4,0.438336122243132,0.490945224785013
"1477",32,21,2,1,37,2,1,1,4,0.745315900481243,0.745154168040314
"1478",32,39,2,1,38,3,2,0,2,0.872425156835112,0.832235305056676
"1479",32,39,2,2,39,3,2,1,3,0.571038090178029,0.579136041393354
"1480",32,18,2,1,40,1,1,1,5,0.43938914200412,0.456203024386373
"1481",32,19,2,2,41,1,2,1,5,0.415664550274912,0.438301034095547
"1482",32,38,2,2,42,1,2,1,4,0.299359407574732,0.216864651202347
"1483",32,36,2,2,43,2,1,0,2,0.754741664364313,0.706202746982385
"1484",32,29,2,1,44,3,1,1,2,0.481865125260725,0.466602181659163
"1485",32,25,2,1,45,2,1,1,4,0.757547206621879,0.799901175226393
"1486",32,40,2,2,46,1,1,0,3,0.630747462033534,0.574721499731156
"1487",32,21,2,2,47,3,1,0,2,0.905173518313178,0.996664372499707
"1488",32,39,2,1,48,1,1,1,4,0.424537272752669,0.438479090868215
"1489",32,39,2,2,49,2,2,1,4,0.597233801973253,0.496731557617961
"1490",32,18,2,1,50,3,1,1,3,0.823745147445505,0.888398619616233
"1491",32,19,2,1,51,2,1,1,4,0.602257876151254,0.605584986074163
"1492",32,38,2,1,52,1,1,1,5,0.38657116796708,0.33622023139716
"1493",32,36,2,1,53,1,1,1,4,0.297674414381796,0.235259472963798
"1494",32,29,2,2,54,2,1,0,3,0.734626702383375,0.730871967865083
"1495",32,25,2,1,55,2,1,1,3,0.698865797422859,0.767113907918236
"1496",32,40,2,1,56,3,1,1,3,0.664943791531782,0.694406799095998
"1497",32,21,2,2,57,3,1,0,1,1.38534268333615,1.33632851753053
"1498",32,39,2,1,58,2,2,0,3,0.864094805639991,0.970714727382271
"1499",32,39,2,2,59,1,2,1,4,0.484711327407388,0.452463337708762
"1500",32,18,2,2,60,2,2,1,4,0.418051429101828,0.450575108706478
"1501",32,19,2,1,61,1,1,1,4,0.405643319748384,0.419579141448019
"1502",32,38,2,1,62,1,1,1,4,0.422675057137365,0.491841725347857
"1503",32,36,2,1,63,1,1,1,4,0.446567003482187,0.35305638411374
"1504",32,29,2,2,64,1,1,0,3,0.489005292178669,0.519766637197555
"1505",32,25,2,1,65,2,1,1,4,0.756500889489768,0.801732601554723
"1506",32,40,2,2,66,1,2,1,4,0.486894949040257,0.530346993291701
"1507",32,21,2,1,67,3,2,0,1,0.422128317270966,0.40887959283574
"1508",32,39,2,1,68,3,2,0,1,1.17638048730759,1.20337469065152
"1509",32,39,2,1,69,2,1,1,3,0.591643971300094,0.589364335205075
"1510",32,18,2,2,70,1,2,1,4,0.364328729795011,0.336071067857006
"1511",32,19,2,2,71,1,2,1,5,0.394072439028947,0.409729124809299
"1512",32,38,2,2,72,1,2,1,5,0.374282085579852,0.453175135127442
"1513",32,36,2,1,73,2,1,1,3,0.432054976902697,0.457851263629868
"1514",32,29,2,2,74,3,2,1,3,0.960850308060891,1.04587649524529
"1515",32,25,2,1,75,3,2,0,2,0.684601826228545,0.653403962542388
"1516",32,40,2,2,76,3,2,1,2,0.827001901428084,0.816567341148124
"1517",32,21,2,1,77,3,2,0,1,1.33811152707547,1.30265554653008
"1518",32,39,2,1,78,1,1,1,5,0.308828313534298,0.334425006362002
"1519",32,39,2,1,79,3,2,0,2,0.934830652759042,0.947268463391496
"1520",32,18,2,2,80,1,1,0,4,0.582030522826694,0.56540246933305
"1521",32,19,2,1,81,1,1,1,4,0.372103986114586,0.277735872547882
"1522",32,38,2,2,82,1,2,1,5,0.354613646398865,0.369322570275354
"1523",32,36,2,2,83,3,1,0,2,1.14183684117544,1.1259408265906
"1524",32,29,2,1,84,2,2,0,3,0.618097500707221,0.586141387935056
"1525",32,25,2,1,85,1,1,1,4,0.424321413860114,0.501315488717411
"1526",32,40,2,1,86,2,1,1,3,0.587965147129918,0.591960083361935
"1527",32,21,2,2,87,1,1,0,3,0.444618970293951,0.556898012687989
"1528",32,39,2,2,88,2,2,1,3,0.449086374325616,0.39296478393527
"1529",32,39,2,1,89,3,1,1,3,0.890930301111909,1.01384024126157
"1530",32,18,2,1,90,1,1,1,4,0.310618287157155,0.282437705336053
"1531",32,19,2,2,91,1,2,1,5,0.486996731899838,0.433249704519404
"1532",32,38,2,2,92,1,1,0,3,0.537018106653947,0.524932451333591
"1533",32,36,2,1,93,1,2,0,3,0.46976709933371,0.489454806372234
"1534",32,29,2,2,94,3,1,0,1,0.6837261679313,0.708431763584117
"1535",32,25,2,2,95,3,2,1,3,0.680317765623458,0.667238406032351
"1536",32,40,2,2,96,3,1,0,1,0.951412229986025,1.00731672455296
"1537",32,21,2,1,97,2,1,1,3,0.688472536472239,0.572830097784445
"1538",32,39,2,1,98,3,1,1,3,0.944659573933995,0.938223663818142
"1539",32,39,2,1,99,2,2,0,3,0.389377648601543,0.422409163334418
"1540",32,18,2,2,100,1,2,1,5,0.311383658088479,0.395915052292342
"1541",32,19,2,2,101,1,2,1,4,0.441379890433592,0.515583753008514
"1542",32,38,2,1,102,2,2,0,3,0.353757389308774,0.320076405255166
"1543",32,36,2,2,103,3,2,1,2,0.567740007117538,0.522254906978227
"1544",32,29,2,1,104,1,1,1,4,0.535129605929957,0.564656020524263
"1545",32,25,2,2,105,1,2,1,4,0.376875912937389,0.421216952398953
"1546",32,40,2,1,106,3,2,0,1,0.944756829831547,0.947925117301866
"1547",32,21,2,1,107,2,1,1,3,0.697305350375099,0.714522395470819
"1548",32,39,2,2,108,3,2,1,2,0.384439702446966,0.351745336675223
"1549",32,39,2,2,109,1,2,1,4,0.505040440131888,0.508949879329519
"1550",32,18,2,1,110,3,2,0,1,0.745055426245805,0.76822573295414
"1551",32,19,2,2,111,3,2,1,2,0.683219109381724,0.715416213945654
"1552",32,38,2,2,112,3,2,1,2,0.73325923132454,0.704759187868795
"1553",32,36,2,2,113,2,2,1,3,0.846706472472195,0.77324738746301
"1554",32,29,2,2,114,3,2,1,3,0.458659105192032,0.470482560687034
"1555",32,25,2,2,115,1,2,1,4,0.401174535126927,0.430223224055679
"1556",32,40,2,2,116,1,2,1,4,0.27556649410674,0.236751444287908
"1557",32,21,2,2,117,1,2,1,5,0.302668705364163,0.345899659418074
"1558",32,39,2,1,118,1,1,1,5,0.451701937570799,0.519181139109962
"1559",32,39,2,1,119,1,2,0,4,0.356063989596673,0.381348958488612
"1560",32,18,2,1,120,3,1,1,3,0.737470261224279,0.800041691291047
"1561",32,19,2,2,121,3,2,1,2,0.947005121033172,1.05912577946744
"1562",32,38,2,2,122,2,1,0,3,0.88225270408095,0.935496334668194
"1563",32,36,2,2,123,2,2,1,4,0.552161855329465,0.532902756554209
"1564",32,29,2,1,124,3,2,0,2,0.39375639197688,0.387226333135362
"1565",32,25,2,2,125,2,1,0,3,0.612428352538559,0.600163165501334
"1566",32,40,2,2,126,3,1,0,1,0.860129367341656,0.835073892784332
"1567",32,21,2,1,127,3,2,0,2,0.966080579257314,1.01249250358293
"1568",32,39,2,2,128,1,2,1,5,0.478390743375926,0.401513512957611
"1569",32,39,2,2,129,1,2,1,5,0.267452741227165,0.281537521186184
"1570",32,18,2,2,130,3,1,0,1,0.6584086678609,0.674475728772582
"1571",32,19,2,2,131,3,1,0,1,1.20453197548113,1.27419965345801
"1572",32,38,2,1,132,2,1,1,3,0.480054333397712,0.536579823166472
"1573",32,36,2,1,133,2,1,1,3,0.438255609481593,0.411698742904486
"1574",32,29,2,2,134,3,1,0,2,0.704100912946798,0.726807469050598
"1575",32,25,2,2,135,2,1,0,2,0.782844530523493,0.899665893999257
"1576",32,40,2,1,136,3,2,0,2,0.745393887251566,0.713427183668367
