"","subj_no","age","group","stim","trial","difficulty","resp","corr","conf","RT_day1","RT_day2"
"1",39,22,1,2,1,3,1,0,1,0.949740335793966,0.944563743694431
"2",39,24,1,1,2,1,1,1,5,0.367449445010134,0.331160606106006
"3",39,20,1,2,3,2,1,0,2,0.546207135116186,0.547346061189155
"4",39,38,1,1,4,2,2,0,2,0.651185921748234,0.624448477318276
"5",39,29,1,1,5,3,2,0,1,0.72952950412318,0.640921052553642
"6",39,40,1,2,6,2,1,0,3,0.512539569249714,0.489223467261144
"7",39,32,1,1,7,2,1,1,4,0.516047888003137,0.618626986627065
"8",39,24,1,1,8,2,1,1,3,0.570925253283449,0.594786430252169
"9",39,26,1,2,9,3,1,0,1,1.57959424947864,1.5282890098984
"10",39,21,1,2,10,1,1,0,4,0.739093597942015,0.725948091616687
"11",39,22,1,2,11,1,2,1,5,0.457538816005956,0.412211264181571
"12",39,24,1,1,12,2,1,1,3,0.880946586831079,0.867181812603787
"13",39,20,1,1,13,2,2,0,2,0.727667080355309,0.757927181000715
"14",39,38,1,2,14,3,2,1,2,0.733614942052432,0.824046037985434
"15",39,29,1,1,15,2,2,0,3,0.756772691182408,0.762768137234531
"16",39,40,1,2,16,1,2,1,4,0.385659199843134,0.371673561067705
"17",39,32,1,1,17,1,2,0,3,0.600971278355962,0.635217043570397
"18",39,24,1,1,18,1,1,1,4,0.440726706848644,0.505522197599026
"19",39,26,1,2,19,3,1,0,2,0.90784277879249,0.942150997558305
"20",39,21,1,1,20,1,1,1,4,0.32120444304488,0.278463396396272
"21",39,22,1,2,21,2,1,0,3,0.279841870769446,0.212607256863954
"22",39,24,1,2,22,1,2,1,5,0.461869648102395,0.469376633220459
"23",39,20,1,2,23,3,2,1,3,0.813947417160655,0.830846346502689
"24",39,38,1,2,24,3,1,0,2,0.360797979863474,0.315766328221031
"25",39,29,1,1,25,2,2,0,3,0.636011401312271,0.620020095061822
"26",39,40,1,2,26,2,2,1,3,0.556237767592126,0.511050410941185
"27",39,32,1,2,27,1,1,0,4,0.420881347063569,0.42158826797223
"28",39,24,1,1,28,1,1,1,4,0.377688006176968,0.414322798349997
"29",39,26,1,2,29,3,2,1,3,0.786939937083718,0.71200111864782
"30",39,21,1,2,30,1,1,0,3,0.483694279763128,0.396489975841154
"31",39,22,1,1,31,3,2,0,1,0.641916687632316,0.569914613456554
"32",39,24,1,1,32,2,2,0,3,0.599976164115815,0.554540625140721
"33",39,20,1,2,33,2,2,1,4,0.662336436454254,0.634390751321584
"34",39,38,1,2,34,3,1,0,1,1.15388766382,1.1729344922289
"35",39,29,1,1,35,3,1,1,3,1.27666693533103,1.25035792679909
"36",39,40,1,2,36,3,2,1,2,0.52575104967528,0.463154172128079
"37",39,32,1,2,37,3,2,1,3,1.07893456621411,1.10521732233578
"38",39,24,1,1,38,3,2,0,1,0.655801064772581,0.695378891846253
"39",39,26,1,1,39,2,2,0,2,0.670320957237249,0.728086406709836
"40",39,21,1,2,40,2,1,0,3,0.531586197349691,0.50889492977609
"41",39,22,1,2,41,1,2,1,5,0.548147696843332,0.608033331454088
"42",39,24,1,2,42,1,2,1,5,0.387697673618803,0.310508418519972
"43",39,20,1,1,43,2,1,1,4,0.543657627165519,0.566920437728729
"44",39,38,1,2,44,2,2,1,4,0.915183264530249,0.898971436642317
"45",39,29,1,1,45,2,1,1,4,0.563368318480377,0.592176318887583
"46",39,40,1,1,46,1,1,1,5,0.344996793880131,0.442692218321456
"47",39,32,1,2,47,3,2,1,3,0.452484587034878,0.452848813470016
"48",39,24,1,1,48,1,1,1,5,0.26002355143652,0.232954805647441
"49",39,26,1,2,49,1,2,1,4,0.363280253840575,0.436463302350825
"50",39,21,1,2,50,2,2,1,3,0.710431512143117,0.738101778346042
"51",39,22,1,2,51,3,2,1,2,0.264759131903599,0.274123066950626
"52",39,24,1,2,52,2,2,1,3,0.622771602423335,0.643680444194615
"53",39,20,1,1,53,3,2,0,1,1.01805983161521,1.04545837943194
"54",39,38,1,1,54,1,1,1,4,0.380589031952162,0.353508719815701
"55",39,29,1,1,55,2,1,1,4,0.664849182696846,0.64524900333172
"56",39,40,1,1,56,3,2,0,2,-0.0842846690298584,-0.0690395325999923
"57",39,32,1,2,57,2,2,1,4,0.890410545473037,0.942088533562378
"58",39,24,1,2,58,2,2,1,3,0.815029929619332,0.739491880654941
"59",39,26,1,2,59,1,1,0,4,0.543048837369857,0.539107870425817
"60",39,21,1,1,60,3,2,0,2,1.42504504174874,1.34465945410191
"61",39,22,1,1,61,1,1,1,4,0.239943361201512,0.265852962767993
"62",39,24,1,2,62,3,2,1,2,1.44321740185505,1.42445904319217
"63",39,20,1,1,63,1,1,1,5,0.25359437931768,0.255529426880927
"64",39,38,1,2,64,1,1,0,3,0.267888500209621,0.292620638527192
"65",39,29,1,2,65,2,2,1,4,0.833056483007907,0.809909400868095
"66",39,40,1,2,66,2,2,1,3,0.583208050295472,0.54815077242965
"67",39,32,1,1,67,3,1,1,3,0.781960469075919,0.82186211156696
"68",39,24,1,1,68,3,1,1,2,0.667792525294298,0.712836098507906
"69",39,26,1,1,69,3,2,0,2,0.890563985242881,0.878019856593496
"70",39,21,1,1,70,1,1,1,5,0.557684702004658,0.539138629528463
"71",39,22,1,2,71,3,2,1,2,0.881710471404564,0.953128067242072
"72",39,24,1,1,72,3,1,1,3,0.647780090209352,0.650827661303113
"73",39,20,1,2,73,2,2,1,4,0.47240187934769,0.56724958773827
"74",39,38,1,1,74,1,1,1,5,0.41418514542383,0.397350037982359
"75",39,29,1,1,75,3,2,0,1,1.76908376652643,1.71056480356157
"76",39,40,1,1,76,3,2,0,2,1.11100650964348,1.06935742852007
"77",39,32,1,1,77,2,2,0,3,0.751588571065062,0.788857336381964
"78",39,24,1,1,78,1,1,1,4,0.341452947797893,0.327528559895611
"79",39,26,1,1,79,2,1,1,3,0.791129241863042,0.853108899765074
"80",39,21,1,2,80,2,2,1,4,0.759549023129919,0.803464250764065
"81",39,22,1,1,81,1,1,1,4,0.383701545259267,0.303909613604649
"82",39,24,1,2,82,1,2,1,4,0.34212081557667,0.345498177160737
"83",39,20,1,2,83,3,2,1,2,0.710750510953632,0.696275821617567
"84",39,38,1,1,84,2,1,1,3,0.582129373990787,0.575276151343442
"85",39,29,1,2,85,2,1,0,3,0.52949396236044,0.500879612403357
"86",39,40,1,1,86,3,1,1,2,0.499353097044992,0.420730716322344
"87",39,32,1,2,87,1,2,1,4,0.460376113818138,0.447878609741384
"88",39,24,1,1,88,1,1,1,4,0.400071131497589,0.466931212629609
"89",39,26,1,2,89,2,2,1,3,0.472516764168799,0.461069316650039
"90",39,21,1,1,90,2,2,0,3,0.80530773789967,0.849913435342886
"91",39,22,1,1,91,2,1,1,4,0.709095590117942,0.662413814461372
"92",39,24,1,1,92,1,2,0,3,0.518447866616501,0.475621015841389
"93",39,20,1,1,93,2,2,0,2,0.568091451897096,0.580241551047195
"94",39,38,1,1,94,3,1,1,3,0.379764712611097,0.38625737582119
"95",39,29,1,2,95,1,2,1,4,0.398315257237627,0.453135839057948
"96",39,40,1,2,96,2,1,0,2,0.63319343995738,0.68450066131174
"97",39,32,1,2,97,1,1,0,3,0.48499215384122,0.433295863238141
"98",39,24,1,2,98,1,2,1,4,0.357782306056002,0.435271802900065
"99",39,26,1,2,99,3,1,0,2,1.22698813558911,1.30420549797335
"100",39,21,1,2,100,1,2,1,4,0.353752393191934,0.24079963826571
"101",39,22,1,1,101,1,1,1,5,0.448756883827856,0.441862709942719
"102",39,24,1,1,102,1,2,0,3,0.580502279697842,0.583687316147139
"103",39,20,1,2,103,3,1,0,1,0.386220082935629,0.409573606365001
"104",39,38,1,2,104,3,1,0,2,1.13993829786462,1.09695081990938
"105",39,29,1,2,105,1,2,1,4,0.473016076156963,0.548296839053627
"106",39,40,1,1,106,3,1,1,3,1.53608181667933,1.56102409155834
"107",39,32,1,1,107,1,2,0,4,0.509670348792901,0.447361678449084
"108",39,24,1,1,108,1,1,1,4,0.409945526629698,0.381466655300721
"109",39,26,1,1,109,2,1,1,4,0.585227737150411,0.587370109886662
"110",39,21,1,2,110,1,2,1,4,0.327458228460509,0.346861302214896
"111",39,22,1,1,111,1,2,0,4,0.601810566537648,0.700313754924674
"112",39,24,1,2,112,1,2,1,5,0.390428152711899,0.398041308718676
"113",39,20,1,1,113,3,2,0,2,0.818021306152333,0.736414690210422
"114",39,38,1,1,114,1,1,1,4,0.46463937611661,0.436392140388176
"115",39,29,1,1,115,1,1,1,4,0.403789120460242,0.350302617844782
"116",39,40,1,2,116,3,1,0,1,1.07902374216377,1.00473515472051
"117",39,32,1,1,117,1,1,1,4,0.361092943668962,0.389225667935184
"118",39,24,1,1,118,1,2,0,3,0.36324275903005,0.331172688162182
"119",39,26,1,1,119,2,2,0,3,0.850851179343626,0.83404037087295
"120",39,21,1,2,120,3,2,1,2,0.667672299484494,0.609692522062486
"121",39,22,1,1,121,1,1,1,4,0.35056538041176,0.403236663994929
"122",39,24,1,1,122,2,1,1,4,0.548997037472338,0.602758262194955
"123",39,20,1,2,123,1,2,1,4,0.385501323876487,0.417887235365527
"124",39,38,1,1,124,2,2,0,2,0.953554205404599,0.887950611336677
"125",39,29,1,1,125,2,1,1,4,0.491229891197303,0.47684715368392
"126",39,40,1,2,126,3,1,0,2,1.01335417878278,0.941649730246016
"127",39,32,1,1,127,2,1,1,3,0.624832499646078,0.653089796056127
"128",39,24,1,1,128,2,1,1,3,0.681769961300191,0.68795606506363
"129",39,26,1,2,129,3,1,0,1,1.41341211983704,1.41846017213531
"130",39,21,1,1,130,2,2,0,3,0.92694424067713,0.93334597150682
"131",39,22,1,2,131,3,2,1,3,0.934951552814983,0.922279969122536
"132",39,24,1,2,132,1,2,1,5,0.463737990383301,0.483066188478332
"133",39,20,1,2,133,1,2,1,4,0.33601971637393,0.260756089227576
"134",39,38,1,2,134,2,2,1,3,0.645967488948318,0.73392245207658
"135",39,29,1,1,135,3,1,1,3,0.792639442619726,0.82448800121174
"136",39,40,1,1,136,1,1,1,5,0.390300822183567,0.353578072075117
"137",39,32,1,2,137,2,1,0,3,0.641909905711384,0.578481689626017
"138",39,24,1,1,138,2,1,1,4,0.620310596219187,0.638254981438461
"139",39,26,1,1,139,1,1,1,5,0.320711627186942,0.287807951201053
"140",39,21,1,1,140,3,2,0,1,0.724063443484792,0.705058674509261
"141",39,22,1,2,141,1,2,1,4,0.400247638673815,0.37965711850921
"142",39,24,1,2,142,3,2,1,2,0.777689432254671,0.764439477268241
"143",39,20,1,2,143,2,2,1,3,0.618530290996924,0.591454972658136
"144",39,38,1,2,144,3,1,0,2,0.985855610692637,0.953934400118622
"145",39,29,1,1,145,1,1,1,5,0.467476130682834,0.464728678446926
"146",39,40,1,1,146,3,1,1,2,0.789212528064553,0.79458437408878
"147",39,32,1,1,147,3,1,1,3,0.922865893626945,0.912540672955185
"148",39,24,1,1,148,2,2,0,2,0.751449177589703,0.778173713408116
"149",39,26,1,1,149,2,2,0,2,0.62979633076856,0.532381178962333
"150",39,21,1,2,150,2,1,0,2,0.789334389883294,0.742823591952044
"151",39,22,1,2,151,2,1,0,2,0.622957062205411,0.66093521073129
"152",39,24,1,2,152,2,1,0,2,0.673380680827478,0.699470682130923
"153",39,20,1,2,153,3,2,1,3,0.885280444174964,0.871557130150719
"154",39,38,1,1,154,2,1,1,3,0.497694985312207,0.473652383115914
"155",39,29,1,2,155,3,1,0,2,1.05302015153421,1.01186478843613
"156",39,40,1,1,156,1,2,0,3,0.404484391421301,0.354947153812644
"157",39,32,1,1,157,2,1,1,3,0.574176360465794,0.679588645960654
"158",39,24,1,2,158,2,1,0,2,0.854769074350288,0.739460263844009
"159",39,26,1,2,159,3,2,1,2,0.675503829954037,0.574636313727621
"160",39,21,1,1,160,3,2,0,2,0.642695620576957,0.585062204318458
"161",39,22,1,1,161,3,2,0,1,0.914179437516197,0.903530646558242
"162",39,24,1,1,162,1,2,0,4,0.382400550314179,0.396094397396774
"163",39,20,1,2,163,3,2,1,3,0.696223830864568,0.691383124254594
"164",39,38,1,2,164,3,2,1,2,0.87165885834883,0.841856505479176
"165",39,29,1,1,165,1,1,1,4,0.543252173003429,0.567706727002902
"166",39,40,1,1,166,3,2,0,2,1.07745767327534,1.03537239630224
"167",39,32,1,2,167,1,2,1,5,0.470665329419652,0.409814673025126
"168",39,24,1,1,168,2,2,0,2,0.737443707203521,0.716052465167759
"169",39,26,1,1,169,2,1,1,3,0.361277191576024,0.364679371444241
"170",39,21,1,1,170,3,1,1,3,0.624217325650477,0.642074668102174
"171",39,22,1,2,171,2,1,0,3,0.711596521850361,0.735219326088924
"172",39,24,1,2,172,1,2,1,5,0.49030449136328,0.463794997849774
"173",39,20,1,2,173,2,2,1,4,0.58235592035692,0.561888015536764
"174",39,38,1,2,174,2,1,0,3,0.507842516876777,0.527676870234378
"175",39,29,1,1,175,1,1,1,4,0.425250853125625,0.365679537736959
"176",39,40,1,1,176,1,2,0,4,0.577304597126212,0.484942793912379
"177",39,32,1,2,177,3,2,1,3,1.21127258297934,1.19374081646372
"178",39,24,1,1,178,1,1,1,4,0.356650654503296,0.332808340086444
"179",39,26,1,1,179,2,1,1,3,0.471686128069285,0.558689504362535
"180",39,21,1,1,180,3,1,1,3,0.891583715605894,0.909188146278626
"181",39,22,1,1,181,2,1,1,3,0.624078913233794,0.62137616509058
"182",39,24,1,2,182,1,1,0,4,0.556306005907119,0.599327130331406
"183",39,20,1,2,183,2,2,1,3,0.721998796818935,0.725415939364783
"184",39,38,1,2,184,1,2,1,5,0.399556542077228,0.382554675453279
"185",39,29,1,2,185,3,2,1,3,1.12575582694192,1.20058659553641
"186",39,40,1,1,186,2,2,0,2,0.781753299886758,0.79339148140208
"187",39,32,1,1,187,1,1,1,5,0.378151182249116,0.399934852095846
"188",39,24,1,1,188,1,1,1,5,0.420606970081719,0.515706891401274
"189",39,26,1,1,189,1,1,1,4,0.373987792292391,0.384884582885535
"190",39,21,1,1,190,3,2,0,2,0.13238977490848,0.107396845526961
"191",39,22,1,2,191,2,2,1,4,0.70031405248459,0.75423858028839
"192",39,24,1,2,192,3,2,1,2,0.800412576075231,0.747440450085326
"193",39,20,1,1,193,1,1,1,4,0.288164069097552,0.284858863905912
"194",39,38,1,1,194,3,2,0,2,1.16823966912357,1.25738457729359
"195",39,29,1,2,195,3,2,1,2,0.817649147459717,0.7322247967314
"196",39,40,1,2,196,2,2,1,3,0.868945308785914,0.871652971400015
"197",39,32,1,1,197,3,1,1,3,0.910616696642724,0.908289363449922
"198",39,24,1,2,198,1,1,0,3,0.421671540259015,0.43008767375559
"199",39,26,1,2,199,1,2,1,4,0.248451534426842,0.220635687410783
"200",39,21,1,2,200,3,1,0,2,0.73332983579459,0.711683452487192
"201",39,22,1,1,201,1,1,1,5,0.53248952324841,0.510548673634587
"202",39,24,1,2,202,1,2,1,4,0.175462836645685,0.133188447481098
"203",39,20,1,2,203,2,1,0,2,0.733596334547044,0.781151066134074
"204",39,38,1,2,204,1,2,1,5,0.489074129654703,0.529065205464837
"205",39,29,1,2,205,3,1,0,2,1.47563289301341,1.45801966752401
"206",39,40,1,2,206,2,1,0,3,0.79358657669197,0.888908867880353
"207",39,32,1,1,207,3,1,1,2,0.973605310403628,0.896375620433699
"208",39,24,1,2,208,2,1,0,2,0.579405763090675,0.584472241159354
"209",39,26,1,2,209,2,1,0,3,0.881816677144555,1.02556051366513
"210",39,21,1,2,210,1,2,1,4,0.460377565347727,0.481874766417333
"211",39,22,1,1,211,2,2,0,2,0.882399292921641,0.857049067014367
"212",39,24,1,1,212,3,2,0,2,0.413573271817704,0.449172579108053
"213",39,20,1,1,213,2,1,1,3,0.535614414164735,0.536461629167214
"214",39,38,1,2,214,3,2,1,2,0.682193956667769,0.587447765536378
"215",39,29,1,2,215,3,2,1,3,0.811136576436653,0.735391512061533
"216",39,40,1,1,216,3,1,1,3,0.949572286610579,0.989378518427468
"217",39,32,1,2,217,3,2,1,3,0.839127720969224,0.874124120126407
"218",39,24,1,1,218,1,1,1,5,0.505720684659008,0.499472617472252
"219",39,26,1,1,219,1,2,0,4,0.540666511180643,0.487293590837022
"220",39,21,1,1,220,2,2,0,2,0.876601997980137,0.76837604230963
"221",39,22,1,1,221,1,2,0,4,0.487529646918043,0.49165558483331
"222",39,24,1,2,222,1,2,1,5,0.377551942196173,0.465530363277576
"223",39,20,1,2,223,3,2,1,2,1.31016251624276,1.35272209271318
"224",39,38,1,1,224,1,1,1,5,0.421928349623032,0.454206663525838
"225",39,29,1,2,225,3,1,0,1,1.28769667418668,1.35404841281443
"226",39,40,1,2,226,2,2,1,3,0.565661885531068,0.568555955883134
"227",39,32,1,1,227,2,1,1,4,0.504049998004799,0.570336305279146
"228",39,24,1,1,228,3,2,0,2,1.34214901471,1.33284530780794
"229",39,26,1,2,229,2,2,1,3,0.593093433107348,0.558393286202485
"230",39,21,1,1,230,2,1,1,4,0.729034838231449,0.731806114556478
"231",39,22,1,2,231,3,2,1,3,0.709890509228109,0.749261752721901
"232",39,24,1,2,232,3,2,1,3,0.757861271759882,0.83327288581554
"233",39,20,1,2,233,3,1,0,2,0.675857850948681,0.657008392143045
"234",39,38,1,1,234,3,2,0,1,1.18523543595579,1.14289598158117
"235",39,29,1,2,235,2,1,0,3,0.928648619634437,0.939615950899571
"236",39,40,1,2,236,1,1,0,4,0.798152949324207,0.773918777719682
"237",39,32,1,2,237,2,2,1,4,0.568655302113538,0.517108218323297
"238",39,24,1,2,238,3,2,1,3,0.36302882515315,0.341355429348955
"239",39,26,1,1,239,1,1,1,5,0.474812580952018,0.487511672446316
"240",39,21,1,2,240,3,1,0,2,1.24364169329858,1.20224870308287
"241",38,35,2,1,1,3,2,0,2,1.09418787720599,1.04082437527552
"242",38,30,2,2,2,2,1,0,2,0.56711369049883,0.518552538453806
"243",38,18,2,1,3,2,1,1,4,0.514445290031886,0.449117731903238
"244",38,40,2,1,4,3,2,0,1,0.468165082014559,0.497480464670506
"245",38,19,2,2,5,1,2,1,4,0.471039780613652,0.382496899282726
"246",38,32,2,1,6,3,2,0,2,0.686480446552589,0.752884050668316
"247",38,20,2,2,7,2,1,0,3,0.71529178810001,0.71679203013261
"248",38,26,2,1,8,2,1,1,4,0.693895536427846,0.660052548288375
"249",38,29,2,1,9,1,1,1,5,0.340406289057869,0.256022201433386
"250",38,40,2,2,10,3,2,1,3,0.787773376961765,0.769487754820692
"251",38,35,2,1,11,2,2,0,3,0.831960889685415,0.758061954029549
"252",38,30,2,1,12,3,2,0,1,1.75108157224708,1.80937602731705
"253",38,18,2,2,13,2,1,0,3,0.563868997428743,0.51048734939458
"254",38,40,2,1,14,2,1,1,3,0.852683115151123,0.792627900164107
"255",38,19,2,1,15,2,2,0,2,0.506435924071069,0.381567419103768
"256",38,32,2,2,16,1,2,1,5,0.419550422959587,0.465175305293312
"257",38,20,2,2,17,3,1,0,2,0.693055116732675,0.717790462981589
"258",38,26,2,1,18,1,1,1,5,0.486647223134796,0.457122971834027
"259",38,29,2,1,19,2,2,0,3,0.545958139101797,0.514887435644704
"260",38,40,2,1,20,1,1,1,5,0.370470859362731,0.354745456755375
"261",38,35,2,1,21,3,2,0,1,0.835806139218009,0.858536303554935
"262",38,30,2,1,22,3,1,1,2,0.777597582305142,0.649499926640704
"263",38,18,2,1,23,3,2,0,1,1.16806348937008,1.24150243416987
"264",38,40,2,2,24,3,1,0,2,1.00314577252447,0.966774093343948
"265",38,19,2,2,25,2,1,0,3,0.731505121043786,0.681465941385879
"266",38,32,2,1,26,3,1,1,3,1.04089992418593,0.989414568372029
"267",38,20,2,2,27,1,2,1,5,0.400638195398747,0.403305481747232
"268",38,26,2,2,28,3,2,1,3,0.69587144027099,0.757714485071939
"269",38,29,2,2,29,2,2,1,4,0.589228549366376,0.674521355229411
"270",38,40,2,2,30,3,1,0,1,1.21837117760847,1.3637214660122
"271",38,35,2,1,31,1,1,1,5,0.391970733866284,0.399868331355847
"272",38,30,2,1,32,2,2,0,2,0.617840479817055,0.65877886307291
"273",38,18,2,2,33,3,2,1,3,0.67667227066876,0.586189619627665
"274",38,40,2,2,34,3,1,0,1,0.609411447667281,0.566530570280246
"275",38,19,2,2,35,2,2,1,3,0.680937438537201,0.621816630965216
"276",38,32,2,2,36,2,2,1,4,0.553319067309285,0.555012427543538
"277",38,20,2,1,37,2,1,1,4,0.84453390568702,0.892056648868181
"278",38,26,2,1,38,3,1,1,3,0.651382935420334,0.660585135961082
"279",38,29,2,1,39,1,1,1,5,0.357613257623623,0.411115635892344
"280",38,40,2,2,40,1,2,1,5,0.323099711143345,0.290300114436633
"281",38,35,2,2,41,2,1,0,2,0.983458867136789,1.00710230556611
"282",38,30,2,2,42,3,2,1,2,0.731669988144703,0.702916858054514
"283",38,18,2,2,43,3,2,1,2,0.967905782866483,0.970900258269937
"284",38,40,2,1,44,1,1,1,5,0.385047728145281,0.344126644801376
"285",38,19,2,2,45,1,1,0,3,0.45431291235052,0.450226535438365
"286",38,32,2,2,46,2,2,1,3,0.815594713333826,0.855353289372793
"287",38,20,2,2,47,1,2,1,4,0.455603719354763,0.429599857122763
"288",38,26,2,1,48,1,1,1,4,0.341928985405685,0.313040793497914
"289",38,29,2,2,49,1,2,1,5,0.375289204065056,0.34912660844623
"290",38,40,2,1,50,2,1,1,3,0.578988806493905,0.573439919269624
"291",38,35,2,1,51,2,2,0,3,0.903754501438041,0.924439189237628
"292",38,30,2,1,52,2,1,1,4,0.4758422073879,0.559835084578477
"293",38,18,2,2,53,1,2,1,4,0.336243437007913,0.321918496376501
"294",38,40,2,1,54,2,1,1,4,0.622009687436034,0.635552925522699
"295",38,19,2,1,55,2,2,0,2,0.858605070475987,1.0126457695093
"296",38,32,2,2,56,1,2,1,4,0.336709778167004,0.370424412126892
"297",38,20,2,1,57,2,1,1,3,0.772638179768778,0.772734740931602
"298",38,26,2,1,58,3,1,1,2,0.723194709509738,0.662604085105774
"299",38,29,2,2,59,3,2,1,2,0.482208043129877,0.44597144798241
"300",38,40,2,2,60,2,1,0,2,0.658835676988058,0.651937154845073
"301",38,35,2,2,61,1,1,0,3,0.621411386056078,0.638272245930724
"302",38,30,2,1,62,2,1,1,3,0.467101222369928,0.441664155277104
"303",38,18,2,1,63,2,2,0,3,0.736608698192906,0.662299228819071
"304",38,40,2,2,64,2,2,1,4,0.431805193010469,0.486562416816985
"305",38,19,2,1,65,2,2,0,3,0.584156685670673,0.562959899833417
"306",38,32,2,2,66,1,1,0,4,0.386354489512346,0.324300966097387
"307",38,20,2,1,67,3,1,1,2,0.577527586861841,0.562514695178486
"308",38,26,2,1,68,2,1,1,3,0.83289823503456,0.882375582557746
"309",38,29,2,1,69,1,1,1,5,0.310629351124363,0.237104831820513
"310",38,40,2,1,70,1,1,1,5,0.465525104173571,0.417912891772159
"311",38,35,2,2,71,2,2,1,4,0.697837904920733,0.854013626106221
"312",38,30,2,2,72,2,1,0,3,0.966685337608595,1.00634982084841
"313",38,18,2,2,73,1,2,1,4,0.448742226873072,0.469308793862162
"314",38,40,2,2,74,3,2,1,2,0.956231502910333,0.853458784878714
"315",38,19,2,2,75,3,2,1,2,0.817832886927236,0.922391614277469
"316",38,32,2,1,76,1,1,1,5,0.424145407461425,0.476248374217029
"317",38,20,2,1,77,1,1,1,5,0.466863412549718,0.493214487753042
"318",38,26,2,1,78,2,2,0,3,0.729814386991834,0.759288109311688
"319",38,29,2,2,79,3,2,1,3,0.465822967502168,0.470498323643968
"320",38,40,2,2,80,2,2,1,4,0.454079112152343,0.438931946545984
"321",38,35,2,1,81,3,1,1,2,0.894758018457601,0.934313098389739
"322",38,30,2,2,82,1,2,1,5,0.230287063488341,0.149081793790061
"323",38,18,2,1,83,2,1,1,3,0.634276143020423,0.720770132474032
"324",38,40,2,2,84,1,1,0,3,0.619060597457858,0.579163835766785
"325",38,19,2,1,85,1,1,1,4,0.399054048525238,0.415682757855317
"326",38,32,2,1,86,2,1,1,4,0.579218477779963,0.503922727428761
"327",38,20,2,1,87,1,1,1,4,0.385138915696659,0.338192956385795
"328",38,26,2,2,88,1,2,1,5,0.414924584880405,0.389848260351572
"329",38,29,2,2,89,2,1,0,3,0.794160130451763,0.792139377396759
"330",38,40,2,2,90,1,1,0,3,0.510355609597866,0.515639675576535
"331",38,35,2,2,91,2,2,1,4,0.749980681752321,0.713356944259423
"332",38,30,2,1,92,3,2,0,1,1.02850565713357,1.0390732597256
"333",38,18,2,2,93,3,1,0,2,1.00177287569122,1.03721828312789
"334",38,40,2,1,94,2,1,1,4,0.581750625365736,0.663630114934355
"335",38,19,2,1,95,2,1,1,4,0.711699091153068,0.630209048973149
"336",38,32,2,1,96,2,2,0,3,0.807832106590621,0.807370390810699
"337",38,20,2,1,97,3,1,1,3,0.851819127159899,0.854232017877859
"338",38,26,2,2,98,1,2,1,5,0.413884091707037,0.399544275693096
"339",38,29,2,2,99,1,2,1,4,0.54072689464477,0.484624749252756
"340",38,40,2,2,100,2,2,1,4,0.686787858847252,0.713492812088708
"341",38,35,2,2,101,3,2,1,2,0.800828297180513,0.74072656751865
"342",38,30,2,2,102,1,2,1,5,0.417698536219961,0.442832350118682
"343",38,18,2,2,103,2,1,0,3,0.996346857939368,0.993354261727614
"344",38,40,2,2,104,1,2,1,5,0.496985653153135,0.468212927523515
"345",38,19,2,1,105,3,2,0,1,1.49042727411581,1.43174840835897
"346",38,32,2,1,106,3,2,0,1,0.829698175531758,0.86110443642987
"347",38,20,2,2,107,2,1,0,2,0.443420274220037,0.474488004704579
"348",38,26,2,2,108,1,2,1,4,0.335386232768974,0.380178420874471
"349",38,29,2,2,109,2,2,1,4,0.726266704186753,0.720690404781534
"350",38,40,2,2,110,3,2,1,3,0.811835919411873,0.780357722585706
"351",38,35,2,1,111,1,1,1,5,0.356874840922434,0.285779767803731
"352",38,30,2,1,112,2,2,0,2,0.765719727903286,0.796318885559784
"353",38,18,2,1,113,1,1,1,5,0.419982795830772,0.324993413513844
"354",38,40,2,1,114,2,2,0,3,0.729125605223377,0.793108314310176
"355",38,19,2,1,115,3,2,0,2,1.25234386195389,1.26555233254655
"356",38,32,2,2,116,1,2,1,4,0.413599710179722,0.434310764799577
"357",38,20,2,2,117,1,2,1,5,0.360504165800633,0.322097556334902
"358",38,26,2,2,118,3,1,0,1,0.683043586105045,0.638706366939042
"359",38,29,2,2,119,2,2,1,3,0.559579837895241,0.550661181418356
"360",38,40,2,1,120,3,2,0,1,0.422085680994774,0.43710543089315
"361",38,35,2,2,121,3,2,1,2,1.14393695065108,1.15346453911848
"362",38,30,2,1,122,1,1,1,4,0.474847320130351,0.474714926281052
"363",38,18,2,1,123,3,1,1,3,0.800256534619607,0.835085144834359
"364",38,40,2,1,124,1,1,1,5,0.400982401277173,0.407988842486219
"365",38,19,2,2,125,1,2,1,4,0.481754186900855,0.495993173303548
"366",38,32,2,2,126,1,2,1,4,0.585072784285486,0.630970720289927
"367",38,20,2,1,127,3,1,1,3,1.29491319467041,1.29558991138012
"368",38,26,2,1,128,1,2,0,4,0.498803536211614,0.548862580155492
"369",38,29,2,1,129,3,2,0,1,1.29066714476889,1.3404642774886
"370",38,40,2,2,130,1,2,1,4,0.407926949438157,0.37918602829619
"371",38,35,2,1,131,3,1,1,2,0.950558631788262,0.891543681341444
"372",38,30,2,2,132,3,2,1,3,0.43855814783369,0.544439267868573
"373",38,18,2,2,133,2,2,1,3,0.595744785133968,0.606095352496298
"374",38,40,2,1,134,1,1,1,4,0.472284780663716,0.475765648918101
"375",38,19,2,2,135,1,2,1,4,0.400316075847851,0.361651013431282
"376",38,32,2,2,136,3,2,1,3,0.433658584502505,0.50677017090831
"377",38,20,2,1,137,2,1,1,3,0.557747507799194,0.557898330793154
"378",38,26,2,2,138,1,2,1,4,0.573731877695482,0.601138416414465
"379",38,29,2,2,139,2,2,1,3,0.673102952942635,0.664300407018567
"380",38,40,2,1,140,3,1,1,2,0.706439439199682,0.598673132709858
"381",38,35,2,2,141,2,1,0,3,0.724405529516224,0.711533513076556
"382",38,30,2,2,142,1,2,1,4,0.254055597384352,0.244461466080833
"383",38,18,2,1,143,3,2,0,2,1.25253758363018,1.26175509741132
"384",38,40,2,1,144,1,1,1,5,0.425499653223077,0.45569898894993
"385",38,19,2,1,145,1,1,1,5,0.303315792644517,0.308947731450229
"386",38,32,2,1,146,3,2,0,1,0.779884222599239,0.79425775349943
"387",38,20,2,2,147,3,1,0,2,0.601211374748702,0.527878361284431
"388",38,26,2,1,148,2,1,1,3,0.662117888049798,0.758700501410141
"389",38,29,2,1,149,3,2,0,1,1.16059924153167,1.14108623345909
"390",38,40,2,2,150,1,1,0,3,0.524177934771383,0.499752087771449
"391",38,35,2,1,151,1,1,1,5,0.40440389329934,0.43461596686166
"392",38,30,2,2,152,2,2,1,4,0.557796108559277,0.528534276525495
"393",38,18,2,1,153,3,2,0,2,0.788745927330269,0.899349115663389
"394",38,40,2,2,154,3,1,0,1,1.02656433209198,1.11260626146369
"395",38,19,2,2,155,3,1,0,2,1.65603777005577,1.62095819387739
"396",38,32,2,2,156,2,2,1,4,0.577261374038892,0.507285402043962
"397",38,20,2,1,157,3,1,1,2,0.769280548858253,0.786041927975022
"398",38,26,2,2,158,1,1,0,3,0.67034614737899,0.74084050190124
"399",38,29,2,2,159,3,2,1,2,0.611407343809387,0.580142472510597
"400",38,40,2,1,160,1,1,1,4,0.40759774502219,0.414237555299304
"401",38,35,2,1,161,1,1,1,4,0.523615094591484,0.517584184555163
"402",38,30,2,1,162,3,1,1,3,0.753494183120385,0.561203979889337
"403",38,18,2,1,163,1,1,1,4,0.438603722975763,0.451887110551977
"404",38,40,2,2,164,2,2,1,4,0.50046430645305,0.46879342812722
"405",38,19,2,1,165,1,1,1,4,0.257769044133881,0.233464975088776
"406",38,32,2,2,166,2,2,1,3,0.529280433059291,0.508723417129105
"407",38,20,2,2,167,3,2,1,3,0.946307412701389,0.911530143774554
"408",38,26,2,1,168,1,2,0,4,0.546436121703899,0.479283997399154
"409",38,29,2,1,169,3,1,1,2,1.09741564173509,1.10787836821517
"410",38,40,2,2,170,1,2,1,4,0.517239700978085,0.578108911839553
"411",38,35,2,2,171,2,1,0,3,0.68377114188149,0.721018282502013
"412",38,30,2,1,172,1,1,1,5,0.412138435256218,0.422388429352618
"413",38,18,2,2,173,3,2,1,2,0.935715497663882,0.925457914434307
"414",38,40,2,2,174,1,2,1,4,0.351683536323863,0.454708243073943
"415",38,19,2,1,175,1,2,0,3,0.573755279769464,0.500987270518948
"416",38,32,2,2,176,2,2,1,3,0.56313012364189,0.561414842142063
"417",38,20,2,2,177,3,1,0,2,0.879394009189469,0.925571017585621
"418",38,26,2,1,178,2,1,1,4,0.775089203885953,0.824023989916747
"419",38,29,2,1,179,2,2,0,3,0.708707325340323,0.732455846914876
"420",38,40,2,1,180,2,2,0,2,0.497623599919633,0.481188226129116
"421",38,35,2,1,181,3,1,1,3,0.405059367553834,0.449639991978942
"422",38,30,2,1,182,1,1,1,4,0.336973371132388,0.289249693584701
"423",38,18,2,2,183,1,2,1,4,0.450532825559363,0.484743785982745
"424",38,40,2,2,184,3,2,1,2,0.739218722161625,0.778437498822456
"425",38,19,2,2,185,2,1,0,2,0.757615435271144,0.761110029038483
"426",38,32,2,1,186,1,1,1,4,0.378540968083432,0.403000505762179
"427",38,20,2,2,187,2,2,1,4,0.434665856945268,0.432672955704139
"428",38,26,2,2,188,1,1,0,3,0.587896304158512,0.618699820396809
"429",38,29,2,2,189,2,2,1,4,0.473729069105066,0.474781320287737
"430",38,40,2,1,190,2,1,1,4,0.777202439814591,0.785109101385232
"431",38,35,2,2,191,2,2,1,4,0.608916359091876,0.61357163106287
"432",38,30,2,1,192,3,1,1,2,0.683509999246438,0.697871868380039
"433",38,18,2,1,193,1,1,1,5,0.575632239879651,0.555930460304691
"434",38,40,2,1,194,1,2,0,4,0.561540481734983,0.549020766651867
"435",38,19,2,1,195,1,1,1,4,0.447912874640844,0.468016083632806
"436",38,32,2,2,196,2,1,0,3,0.783418511369224,0.81650411763386
"437",38,20,2,1,197,1,1,1,5,0.312358406637157,0.401604932968476
"438",38,26,2,1,198,3,2,0,1,1.02850082635877,0.996391987715699
"439",38,29,2,2,199,3,1,0,2,0.46554924724826,0.437498504607145
"440",38,40,2,2,200,2,2,1,3,0.721769429185844,0.641842458869797
"441",38,35,2,2,201,1,2,1,5,0.227639469804211,0.229776694037969
"442",38,30,2,1,202,3,1,1,2,0.905551203427398,0.92402966028381
"443",38,18,2,1,203,2,1,1,3,0.647620293428615,0.64761167575217
"444",38,40,2,2,204,1,2,1,5,0.40645978081655,0.483529772077908
"445",38,19,2,1,205,3,1,1,2,1.02120821327181,0.964204572952438
"446",38,32,2,2,206,2,2,1,3,0.645342419219619,0.663690067269792
"447",38,20,2,2,207,3,1,0,1,1.0296557572936,0.970682534976851
"448",38,26,2,2,208,2,2,1,3,0.70125001310911,0.707248638734384
"449",38,29,2,1,209,2,1,1,3,0.632145094684498,0.632855079769472
"450",38,40,2,2,210,2,2,1,4,0.816543836508865,0.805268338318655
"451",38,35,2,2,211,1,1,0,3,0.55526700392269,0.650270443256228
"452",38,30,2,1,212,2,1,1,3,0.526969241740765,0.480116493311743
"453",38,18,2,1,213,3,1,1,3,0.571364069885736,0.512060551669261
"454",38,40,2,1,214,1,2,0,3,0.634941859396013,0.644722532736328
"455",38,19,2,1,215,2,2,0,3,0.695207643941592,0.602452599975089
"456",38,32,2,1,216,1,1,1,5,0.392708156788388,0.416934358089522
"457",38,20,2,2,217,3,1,0,2,0.709362865561926,0.72324739791083
"458",38,26,2,2,218,3,1,0,2,1.70129127351782,1.70940658727594
"459",38,29,2,2,219,3,2,1,2,0.909903173120357,0.939118260216522
"460",38,40,2,1,220,1,1,1,4,0.330222693415,0.316633768947623
"461",38,35,2,1,221,1,1,1,5,0.348839440794421,0.275114488101933
"462",38,30,2,2,222,3,1,0,2,0.952975073681622,0.898686534750066
"463",38,18,2,1,223,3,2,0,1,0.37994283455586,0.409414813370046
"464",38,40,2,2,224,2,1,0,2,0.865117424472712,0.810332797882024
"465",38,19,2,2,225,1,2,1,4,0.315630053729012,0.344830637505476
"466",38,32,2,1,226,3,1,1,2,0.418424436761749,0.361984235990556
"467",38,20,2,2,227,2,1,0,3,0.483907847844852,0.438452883928297
"468",38,26,2,2,228,3,2,1,2,0.681814217065905,0.688273459499241
"469",38,29,2,1,229,3,2,0,1,0.822152166555405,0.859710283892271
"470",38,40,2,2,230,2,1,0,2,0.670549547421134,0.710314053836523
"471",38,35,2,1,231,3,1,1,2,0.835188621572339,0.875617121578553
"472",38,30,2,2,232,3,1,0,2,1.30806418453452,1.30619271067176
"473",38,18,2,2,233,1,2,1,5,0.487316075437552,0.524503577069087
"474",38,40,2,1,234,3,2,0,1,1.38543652787027,1.4826678243734
"475",38,19,2,2,235,2,2,1,3,0.684960461132135,0.55357548783259
"476",38,32,2,1,236,3,2,0,1,1.37702747377288,1.32713883196993
"477",38,20,2,1,237,3,1,1,3,0.797220964837485,0.803512890287958
"478",38,26,2,1,238,2,1,1,3,0.557027758141039,0.51620828205276
"479",38,29,2,1,239,1,1,1,4,0.468411905239468,0.423622893730418
"480",38,40,2,2,240,3,1,0,2,1.19473449595667,1.30719241081184
"481",37,37,1,1,1,1,2,0,4,0.535689363047999,0.587531809689706
"482",37,30,1,1,2,3,1,1,2,0.866974064852549,0.968221016217616
"483",37,22,1,2,3,2,2,1,3,0.630141976036159,0.669629805442774
"484",37,34,1,2,4,2,1,0,3,0.734317163301792,0.771647907059175
"485",37,25,1,1,5,3,2,0,1,1.09471655207592,1.09420923184316
"486",37,31,1,2,6,3,1,0,1,1.26339427376859,1.28542704386576
"487",37,32,1,1,7,2,2,0,2,0.548845835206557,0.576709220346146
"488",37,27,1,2,8,1,2,1,5,0.345619657026066,0.357676548634417
"489",37,24,1,2,9,2,2,1,4,0.515530533582872,0.537217135687749
"490",37,32,1,1,10,1,2,0,3,0.454102937103909,0.536648904242083
"491",37,37,1,2,11,3,1,0,2,0.735271805085009,0.682106068124555
"492",37,30,1,2,12,3,2,1,2,0.80372625677469,0.879217628783562
"493",37,22,1,2,13,1,1,0,3,0.430436331322993,0.470125117325301
"494",37,34,1,1,14,1,1,1,5,0.197035815321929,0.296267578204391
"495",37,25,1,1,15,3,1,1,2,0.691538439170556,0.709555402174851
"496",37,31,1,2,16,2,1,0,3,0.854776273693643,0.838825334242443
"497",37,32,1,2,17,3,1,0,2,0.996240954731658,1.10350753801817
"498",37,27,1,1,18,2,1,1,3,0.466810505674536,0.435829213586041
"499",37,24,1,1,19,2,1,1,3,0.596888669686041,0.625723279524308
"500",37,32,1,2,20,1,1,0,4,0.449703052380777,0.348515362395163
"501",37,37,1,2,21,2,2,1,3,0.603377132363835,0.575214924993185
"502",37,30,1,2,22,3,2,1,2,0.578355046177074,0.568679908189904
"503",37,22,1,1,23,3,2,0,2,0.581163638104702,0.599224243510925
"504",37,34,1,2,24,2,1,0,2,0.584355682828795,0.660397946322924
"505",37,25,1,1,25,1,1,1,5,0.318588752575343,0.393810503843244
"506",37,31,1,1,26,3,2,0,1,0.862360427882105,0.96917559620381
"507",37,32,1,2,27,2,2,1,4,0.641328942703006,0.686883807722571
"508",37,27,1,1,28,2,2,0,2,0.786338812992039,0.833896735563877
"509",37,24,1,1,29,1,2,0,4,0.482227700988103,0.449634293379352
"510",37,32,1,2,30,3,1,0,1,1.67363935079056,1.63230070391116
"511",37,37,1,1,31,1,1,1,5,0.453422782608249,0.424702215650884
"512",37,30,1,2,32,1,2,1,4,0.434277754763535,0.451653815742923
"513",37,22,1,2,33,2,1,0,3,0.566618412652843,0.495812919187365
"514",37,34,1,1,34,1,2,0,3,0.667949405405269,0.784890589907882
"515",37,25,1,1,35,2,1,1,3,0.820683398263492,0.824869803244049
"516",37,31,1,1,36,2,1,1,4,0.62241142671747,0.704617322066876
"517",37,32,1,1,37,3,1,1,2,1.16319153064409,1.187038663978
"518",37,27,1,2,38,1,2,1,5,0.486936105678701,0.534308399401346
"519",37,24,1,1,39,1,2,0,3,0.52399576874716,0.513146180903236
"520",37,32,1,2,40,2,2,1,3,0.71025330756343,0.772098327161953
"521",37,37,1,1,41,1,1,1,4,0.371967847166467,0.416110567255705
"522",37,30,1,2,42,2,2,1,3,0.69282032410012,0.734400017846357
"523",37,22,1,1,43,1,1,1,5,0.478862115185337,0.392681973303958
"524",37,34,1,2,44,3,2,1,2,0.750173478788268,0.740916628634354
"525",37,25,1,2,45,1,2,1,5,0.36897580101013,0.363313200507391
"526",37,31,1,1,46,3,2,0,2,0.697583364344715,0.624358508617237
"527",37,32,1,2,47,1,2,1,4,0.335233175743462,0.338352095382719
"528",37,27,1,1,48,3,1,1,2,0.608653959305385,0.605665855541599
"529",37,24,1,2,49,3,2,1,2,1.06004176042569,1.08558087670701
"530",37,32,1,2,50,1,2,1,5,0.60130731224041,0.5945376458706
"531",37,37,1,2,51,3,2,1,3,1.13034841157696,1.11185775012843
"532",37,30,1,2,52,2,2,1,4,0.702531772807055,0.714560592021279
"533",37,22,1,1,53,1,1,1,5,0.519009300971163,0.46636016669287
"534",37,34,1,2,54,2,2,1,4,0.637249405223738,0.62239042813151
"535",37,25,1,2,55,3,1,0,1,0.798774324026769,0.819872162248711
"536",37,31,1,2,56,2,2,1,4,0.647508377156716,0.468661964836123
"537",37,32,1,2,57,3,2,1,2,0.809240182962995,0.725353256570278
"538",37,27,1,1,58,3,1,1,2,0.628268904805837,0.574148423065754
"539",37,24,1,2,59,1,2,1,5,0.297419354112018,0.336077213563575
"540",37,32,1,1,60,3,1,1,2,1.01840377405811,1.05900093974443
"541",37,37,1,1,61,2,1,1,3,0.644888321148661,0.63165477229848
"542",37,30,1,2,62,1,1,0,3,0.397936880070274,0.386395173495468
"543",37,22,1,2,63,3,2,1,3,1.03969521338697,1.06116723638023
"544",37,34,1,1,64,1,1,1,4,0.473824886535866,0.508079638964181
"545",37,25,1,2,65,1,2,1,4,0.373451728613897,0.281618955333682
"546",37,31,1,2,66,3,2,1,2,0.586847955952889,0.551756308109633
"547",37,32,1,2,67,2,1,0,2,0.574922801661923,0.516231459017944
"548",37,27,1,2,68,3,1,0,2,1.24607478274113,1.25115091244004
"549",37,24,1,1,69,3,2,0,2,0.812382471869141,0.799109044111622
"550",37,32,1,2,70,1,1,0,3,0.61668058086035,0.588949749255723
"551",37,37,1,1,71,1,1,1,4,0.312059894364149,0.23045520632917
"552",37,30,1,2,72,3,1,0,2,0.501316016958032,0.578756541655392
"553",37,22,1,2,73,2,1,0,3,0.762887190122156,0.713504987451684
"554",37,34,1,1,74,2,1,1,3,0.535383098091451,0.500180981718365
"555",37,25,1,2,75,1,2,1,4,0.370573418433255,0.344751230906847
"556",37,31,1,2,76,1,2,1,4,0.244689418314046,0.28313236441783
"557",37,32,1,1,77,3,2,0,2,1.13085328806805,1.08709908538023
"558",37,27,1,2,78,2,2,1,4,0.496688726860291,0.542933149011321
"559",37,24,1,1,79,3,2,0,2,0.60220440205498,0.616277926943163
"560",37,32,1,2,80,2,1,0,2,0.661587525106209,0.684136022033536
"561",37,37,1,1,81,3,1,1,3,0.429318361207479,0.416381872023814
"562",37,30,1,1,82,1,1,1,5,0.358264118873595,0.27728345068803
"563",37,22,1,1,83,3,2,0,1,0.846081669601324,0.826079858672761
"564",37,34,1,1,84,2,1,1,3,0.764754811865881,0.679664936348736
"565",37,25,1,1,85,2,2,0,3,0.73883670220326,0.74628115351015
"566",37,31,1,1,86,3,1,1,2,1.06059903578303,1.02621809570252
"567",37,32,1,2,87,2,2,1,4,0.604632363222522,0.553202297619787
"568",37,27,1,2,88,1,2,1,5,0.399047177791435,0.403979912688913
"569",37,24,1,2,89,2,2,1,4,0.461637130120512,0.387965934620267
"570",37,32,1,2,90,3,1,0,1,0.866058949610162,0.889395668468662
"571",37,37,1,1,91,3,1,1,3,1.00089710797708,0.95177504725868
"572",37,30,1,1,92,3,2,0,2,0.467094227466963,0.448600526509716
"573",37,22,1,2,93,2,2,1,3,0.750030718363302,0.776284924589739
"574",37,34,1,1,94,2,1,1,3,0.463995785386539,0.438408602910632
"575",37,25,1,2,95,1,2,1,5,0.342961836631616,0.294373967630774
"576",37,31,1,1,96,2,1,1,4,0.800588544786563,0.857709843044559
"577",37,32,1,2,97,3,1,0,1,0.649422028798224,0.633865630295116
"578",37,27,1,1,98,1,1,1,5,0.427069659472232,0.406922033698803
"579",37,24,1,2,99,3,1,0,1,0.621075592457833,0.68920631916436
"580",37,32,1,1,100,1,1,1,5,0.534724822438445,0.523157768587852
"581",37,37,1,1,101,2,2,0,2,0.671127559167707,0.641273446745151
"582",37,30,1,1,102,3,1,1,2,0.679777737609367,0.771549603852888
"583",37,22,1,1,103,3,2,0,2,0.825698886488711,0.785883192089233
"584",37,34,1,2,104,2,2,1,3,0.721063432030628,0.748141086405737
"585",37,25,1,1,105,1,1,1,5,0.347730893048544,0.312818667249126
"586",37,31,1,1,106,1,1,1,5,0.283592673110861,0.285382987152036
"587",37,32,1,1,107,1,1,1,5,0.544635631276349,0.622953224369995
"588",37,27,1,1,108,1,1,1,5,0.276512890317581,0.299699811272972
"589",37,24,1,2,109,1,2,1,5,0.375193453565202,0.356728246027508
"590",37,32,1,2,110,2,2,1,3,0.478531657775246,0.634338112708053
"591",37,37,1,2,111,3,2,1,2,0.814428764506078,0.771822478259719
"592",37,30,1,2,112,3,1,0,1,0.984595328020009,0.95506242277383
"593",37,22,1,2,113,2,2,1,3,0.556125084012508,0.494313751464182
"594",37,34,1,1,114,3,2,0,1,1.30747051098183,1.24690354116422
"595",37,25,1,2,115,1,2,1,5,0.428139787700153,0.413876552072366
"596",37,31,1,1,116,2,2,0,3,0.891696977502469,0.939609263834783
"597",37,32,1,2,117,1,1,0,4,0.556141624617925,0.699810655808753
"598",37,27,1,1,118,1,1,1,5,0.354498317675463,0.362039885588586
"599",37,24,1,2,119,1,1,0,4,0.399761780072803,0.445500769233476
"600",37,32,1,2,120,2,2,1,4,0.375813889279209,0.358982437719998
"601",37,37,1,2,121,1,1,0,3,0.584349866189951,0.544457128328082
"602",37,30,1,2,122,1,2,1,5,0.480307020920408,0.40575872951462
"603",37,22,1,1,123,1,1,1,5,0.322375079265364,0.316984944969074
"604",37,34,1,1,124,3,2,0,2,1.22900114292843,1.13513382097186
"605",37,25,1,2,125,2,2,1,3,0.650522183284781,0.640569264978831
"606",37,31,1,1,126,2,1,1,4,0.59692950190877,0.645529445489416
"607",37,32,1,2,127,2,2,1,4,0.664752766906823,0.668903091882078
"608",37,27,1,1,128,1,1,1,5,0.280303177377431,0.226832063713715
"609",37,24,1,2,129,1,1,0,3,0.398967567473609,0.35463308164801
"610",37,32,1,2,130,2,1,0,3,0.584800056389712,0.545833519223107
"611",37,37,1,2,131,2,2,1,3,0.608969257587454,0.565814916482051
"612",37,30,1,1,132,2,2,0,2,0.914241223894714,0.92940739739557
"613",37,22,1,1,133,1,2,0,4,0.325793106271552,0.448848587654295
"614",37,34,1,1,134,2,1,1,4,0.429153256562347,0.477697780018028
"615",37,25,1,2,135,1,1,0,4,0.553255540379412,0.564200915765313
"616",37,31,1,2,136,2,1,0,3,1.08569438565299,1.10757911647647
"617",37,32,1,2,137,2,1,0,3,0.850338740438168,0.824448732070885
"618",37,27,1,1,138,1,1,1,4,0.397459504597513,0.314600965481125
"619",37,24,1,2,139,1,2,1,5,0.446609113244986,0.459571658019758
"620",37,32,1,1,140,1,1,1,5,0.459916316201322,0.48758292098764
"621",37,37,1,2,141,3,2,1,3,0.834172069102087,0.757305350331326
"622",37,30,1,1,142,2,1,1,3,0.839128809391488,0.746572996128039
"623",37,22,1,2,143,2,2,1,3,0.559244374255638,0.576932794700191
"624",37,34,1,1,144,3,1,1,3,0.762137189634887,0.770683428903739
"625",37,25,1,1,145,2,2,0,3,1.05617273654784,1.10460829569033
"626",37,31,1,1,146,2,2,0,3,0.654209981070138,0.639999277999097
"627",37,32,1,1,147,2,1,1,4,0.691929552550057,0.737370147250633
"628",37,27,1,1,148,3,1,1,3,0.625259223337055,0.696464856101828
"629",37,24,1,1,149,3,2,0,1,0.82683940730954,0.793797427468339
"630",37,32,1,2,150,2,2,1,4,0.598397675328359,0.647447203462416
"631",37,37,1,1,151,3,1,1,2,0.818558950224187,0.801083040914166
"632",37,30,1,2,152,3,1,0,2,0.948654754435837,0.92154982236739
"633",37,22,1,2,153,3,1,0,1,1.32168883434551,1.38256438998686
"634",37,34,1,1,154,2,2,0,2,0.927851296152378,0.985286756453917
"635",37,25,1,1,155,3,1,1,3,0.791587718264644,0.756618192558904
"636",37,31,1,1,156,2,1,1,3,0.471077149927986,0.438877309339894
"637",37,32,1,2,157,2,2,1,3,0.606725230038449,0.571585620117898
"638",37,27,1,1,158,2,1,1,4,0.498211689653805,0.452157664762322
"639",37,24,1,2,159,1,1,0,3,0.61952722018329,0.629932675679692
"640",37,32,1,1,160,1,2,0,4,0.494130267804333,0.551892887295168
"641",37,37,1,2,161,3,1,0,2,0.447632055341797,0.512854147416958
"642",37,30,1,2,162,1,1,0,3,0.528534900916007,0.607832128600379
"643",37,22,1,2,163,1,2,1,4,0.45613724194928,0.505290567669427
"644",37,34,1,1,164,3,1,1,3,0.648523117433106,0.625583994161089
"645",37,25,1,2,165,1,1,0,3,0.439638634980526,0.511909590104021
"646",37,31,1,2,166,2,1,0,3,0.665911232939487,0.672031209615978
"647",37,32,1,1,167,1,1,1,5,0.394654064501868,0.33072001656807
"648",37,27,1,1,168,3,1,1,2,0.854639121782266,0.861367579484957
"649",37,24,1,1,169,1,1,1,5,0.400349692093666,0.415490389248908
"650",37,32,1,2,170,3,2,1,3,1.18912900472639,1.20786680660691
"651",37,37,1,2,171,1,2,1,4,0.370829522685924,0.313872927846419
"652",37,30,1,1,172,2,1,1,3,0.780803243298943,0.757618847158374
"653",37,22,1,1,173,2,1,1,4,0.810544878882852,0.888210649911842
"654",37,34,1,2,174,3,2,1,2,0.613991301720701,0.589147088003612
"655",37,25,1,1,175,2,1,1,4,0.713837024272648,0.703631296467806
"656",37,31,1,2,176,2,1,0,3,0.484026986148987,0.356910869917946
"657",37,32,1,1,177,2,2,0,3,0.629938680713501,0.677418437745052
"658",37,27,1,2,178,3,2,1,3,0.951471857958849,0.965458552617363
"659",37,24,1,1,179,1,1,1,4,0.40820340363223,0.47102507504515
"660",37,32,1,1,180,2,1,1,4,0.613458389092424,0.563472478381921
"661",37,37,1,2,181,3,2,1,2,0.75079990461457,0.805768220174514
"662",37,30,1,1,182,3,2,0,1,0.421380866552695,0.380504209916804
"663",37,22,1,2,183,3,2,1,2,0.744677017388219,0.73632125683284
"664",37,34,1,2,184,1,1,0,3,0.737796838188141,0.701383969540291
"665",37,25,1,2,185,2,1,0,3,0.441521770201325,0.461177609943148
"666",37,31,1,1,186,2,2,0,2,0.483613061308716,0.530589026787904
"667",37,32,1,1,187,1,1,1,4,0.541671209739176,0.63086044218034
"668",37,27,1,1,188,1,1,1,5,0.353062593415975,0.433185808338247
"669",37,24,1,2,189,1,1,0,3,0.525203759187547,0.509043206780032
"670",37,32,1,1,190,2,1,1,4,0.537298119538587,0.487097627955043
"671",37,37,1,1,191,1,1,1,5,0.260975948867698,0.235913456007193
"672",37,30,1,1,192,3,2,0,1,0.88545981278954,0.753384823086229
"673",37,22,1,1,193,1,1,1,4,0.349818372935538,0.363397462997229
"674",37,34,1,1,194,3,1,1,2,1.08495764903128,1.0811919611974
"675",37,25,1,2,195,3,2,1,2,0.928959713121908,0.98860915338744
"676",37,31,1,2,196,1,2,1,4,0.417642545795436,0.468479712446771
"677",37,32,1,2,197,3,2,1,2,0.567154107203999,0.586816462287122
"678",37,27,1,1,198,1,1,1,4,0.414377791183781,0.411981280853254
"679",37,24,1,1,199,1,1,1,5,0.237382984219054,0.306263496628636
"680",37,32,1,2,200,3,2,1,2,0.847325021505828,0.822609376081548
"681",37,37,1,2,201,3,1,0,2,0.920611406467795,0.985012110968883
"682",37,30,1,1,202,1,1,1,5,0.437526013032899,0.454856540559346
"683",37,22,1,1,203,3,1,1,3,0.79785243294567,0.793423993709336
"684",37,34,1,2,204,1,2,1,4,0.544105568759805,0.561981048601009
"685",37,25,1,2,205,3,1,0,1,0.855064861219109,0.794813353418596
"686",37,31,1,2,206,2,2,1,3,0.436720370715539,0.448744266005939
"687",37,32,1,2,207,3,1,0,1,0.58640767880392,0.629948483638662
"688",37,27,1,2,208,1,2,1,4,0.26145492183896,0.266377083469147
"689",37,24,1,1,209,1,1,1,4,0.475363729482271,0.511688195589851
"690",37,32,1,1,210,2,2,0,2,0.605682586177209,0.540769687814969
"691",37,37,1,2,211,1,2,1,4,0.314163132238985,0.352230940354134
"692",37,30,1,1,212,1,2,0,4,0.526953345194653,0.429622904495188
"693",37,22,1,2,213,3,1,0,2,0.707405309596392,0.673215917182171
"694",37,34,1,1,214,2,2,0,2,0.629173747024974,0.610633626752176
"695",37,25,1,1,215,3,2,0,2,1.13528532044792,1.15894092842244
"696",37,31,1,1,216,3,2,0,2,1.33298783579734,1.30631306160938
"697",37,32,1,1,217,2,2,0,2,0.498595881844928,0.444813369807068
"698",37,27,1,1,218,2,2,0,3,0.613327637521786,0.554036164686261
"699",37,24,1,1,219,3,2,0,2,0.57382759412022,0.627698756865722
"700",37,32,1,1,220,3,2,0,2,1.07184730008484,1.09570321091011
"701",37,37,1,2,221,2,1,0,3,0.454391021808057,0.370891242912042
"702",37,30,1,1,222,2,1,1,3,0.571503115405369,0.61014180697279
"703",37,22,1,1,223,1,1,1,5,0.273340987468704,0.279261115902263
"704",37,34,1,2,224,2,1,0,3,0.739255658763061,0.6739265077685
"705",37,25,1,1,225,1,1,1,4,0.517250161575583,0.466465694052746
"706",37,31,1,2,226,1,2,1,5,0.315598403177183,0.328604635029407
"707",37,32,1,2,227,3,1,0,2,1.25406046016979,1.1603968027718
"708",37,27,1,2,228,1,2,1,5,0.399732092193071,0.494924750614141
"709",37,24,1,2,229,3,2,1,2,0.800728922121372,0.825542805729389
"710",37,32,1,2,230,3,1,0,2,0.895482405397017,1.01383213351815
"711",37,37,1,2,231,2,2,1,4,0.566866363055318,0.584015958226787
"712",37,30,1,1,232,3,1,1,3,0.523001313253294,0.422373930178766
"713",37,22,1,1,233,1,2,0,4,0.7353315825044,0.758966651764338
"714",37,34,1,2,234,2,1,0,3,0.612027203783374,0.612316318953067
"715",37,25,1,1,235,3,2,0,1,0.586943817917839,0.536943312927101
"716",37,31,1,2,236,2,1,0,2,0.83344226322247,0.791164337500959
"717",37,32,1,1,237,2,1,1,3,0.476882144882218,0.471291872668349
"718",37,27,1,2,238,3,1,0,1,0.670405106057534,0.689539921754669
"719",37,24,1,1,239,2,1,1,3,0.706481538425465,0.772767869681631
"720",37,32,1,1,240,3,1,1,3,0.39586676669232,0.334735046770089
"721",36,26,2,2,1,3,1,0,2,1.44438219437467,1.45627016779736
"722",36,33,2,2,2,3,1,0,1,0.777333124763364,0.798847844666414
"723",36,36,2,1,3,1,1,1,5,0.417243950238109,0.43056000455663
"724",36,38,2,1,4,2,2,0,2,0.567783620258538,0.452490401001056
"725",36,20,2,1,5,3,1,1,2,0.880494515797074,0.843450425025079
"726",36,25,2,1,6,1,1,1,4,0.480484837805842,0.557545509207577
"727",36,30,2,1,7,2,1,1,4,0.458862633538872,0.483170624525699
"728",36,34,2,1,8,1,1,1,5,0.385329337826242,0.40405539848215
"729",36,25,2,1,9,1,1,1,4,0.459510219052626,0.528670540145022
"730",36,25,2,2,10,2,2,1,3,0.719898735411692,0.814259146446661
"731",36,26,2,1,11,1,1,1,4,0.441128196417968,0.372477616990056
"732",36,33,2,1,12,1,1,1,4,0.252670942400529,0.226785180374372
"733",36,36,2,2,13,3,1,0,2,1.0613762995301,1.04404554387967
"734",36,38,2,2,14,3,2,1,2,0.776993631339825,0.706993849314212
"735",36,20,2,2,15,1,2,1,4,0.373541743037525,0.412825913377479
"736",36,25,2,2,16,3,1,0,2,1.20172773654992,1.30281591378207
"737",36,30,2,1,17,2,2,0,2,0.54885833410904,0.555034325408523
"738",36,34,2,2,18,2,1,0,2,0.482383670320327,0.454619822937789
"739",36,25,2,2,19,1,2,1,5,0.435067986566422,0.481535524752707
"740",36,25,2,2,20,2,2,1,4,0.575591934494035,0.598034624579209
"741",36,26,2,1,21,1,1,1,5,0.544017690798884,0.511884262891749
"742",36,33,2,2,22,2,2,1,3,0.475395170104552,0.413931283336999
"743",36,36,2,1,23,1,1,1,4,0.420261350976578,0.359807626756099
"744",36,38,2,1,24,1,1,1,4,0.348421104025054,0.353891228155157
"745",36,20,2,1,25,3,1,1,3,0.906711942328336,0.913798105732556
"746",36,25,2,1,26,2,1,1,4,0.51978168207008,0.572063786626482
"747",36,30,2,2,27,3,1,0,2,1.07181730714709,1.08085646354044
"748",36,34,2,1,28,2,1,1,3,0.715156506390561,0.758542234651143
"749",36,25,2,2,29,1,2,1,4,0.595335845515656,0.593182691265215
"750",36,25,2,1,30,2,1,1,4,0.643636163029019,0.650938144835621
"751",36,26,2,1,31,3,2,0,1,0.821944521165,0.783348877974619
"752",36,33,2,1,32,3,1,1,3,0.828141095723054,0.853159747844978
"753",36,36,2,1,33,2,1,1,4,0.797102511332196,0.809129682079173
"754",36,38,2,2,34,2,2,1,3,0.709024911429861,0.786699537279401
"755",36,20,2,1,35,2,1,1,4,0.630579508923672,0.619683601137067
"756",36,25,2,2,36,1,2,1,4,0.378671838048699,0.267365056053582
"757",36,30,2,1,37,3,1,1,2,0.918526055919952,0.965886171277609
"758",36,34,2,2,38,1,2,1,4,0.386571753199309,0.438053551226207
"759",36,25,2,1,39,1,1,1,4,0.353021661939557,0.338153424418419
"760",36,25,2,1,40,3,1,1,2,0.96452190768864,0.964497400161362
"761",36,26,2,2,41,3,1,0,1,1.79667010242327,1.69751761772166
"762",36,33,2,1,42,1,1,1,5,0.469846142933704,0.495930459922831
"763",36,36,2,1,43,2,2,0,3,0.694675588618393,0.758879780210395
"764",36,38,2,1,44,3,2,0,2,0.523497285093137,0.454334495683032
"765",36,20,2,2,45,3,1,0,2,1.54678517631125,1.48600988411207
"766",36,25,2,2,46,1,2,1,4,0.305631176210326,0.276052352809312
"767",36,30,2,2,47,1,2,1,5,0.319127965043206,0.27487556166164
"768",36,34,2,1,48,1,2,0,4,0.679835501803549,0.649032998142658
"769",36,25,2,2,49,1,2,1,4,0.382381403964077,0.32511369224266
"770",36,25,2,2,50,3,2,1,3,0.648213647601458,0.697940984835191
"771",36,26,2,2,51,3,2,1,3,0.939840197741165,0.970847378385628
"772",36,33,2,1,52,2,1,1,4,0.560244230729796,0.575857789680724
"773",36,36,2,1,53,2,2,0,2,0.656165139518389,0.572310284479742
"774",36,38,2,1,54,2,2,0,2,0.789020692389765,0.730355400165924
"775",36,20,2,1,55,2,1,1,3,0.597038561417596,0.610529592821319
"776",36,25,2,2,56,1,2,1,4,0.362721398133562,0.218833509899469
"777",36,30,2,1,57,2,2,0,2,0.736139227523386,0.698496193095411
"778",36,34,2,2,58,2,1,0,3,0.730948662237973,0.725086225125689
"779",36,25,2,1,59,2,2,0,2,0.685072024248797,0.578917539639216
"780",36,25,2,1,60,2,1,1,4,0.383079049092827,0.429760931059213
"781",36,26,2,2,61,3,1,0,1,1.1248412767833,1.05979520300976
"782",36,33,2,2,62,2,1,0,2,0.854776957829709,0.895386995331475
"783",36,36,2,1,63,2,2,0,3,0.663118013100724,0.682362776751906
"784",36,38,2,1,64,2,2,0,3,0.648134670089033,0.638607037103295
"785",36,20,2,2,65,3,1,0,1,0.903368994304056,0.871519777557903
"786",36,25,2,2,66,2,1,0,2,0.861080631377576,0.853641329264505
"787",36,30,2,2,67,2,2,1,4,0.573141733907164,0.64144528729935
"788",36,34,2,2,68,3,2,1,3,0.948284494281626,0.93907967946515
"789",36,25,2,2,69,1,2,1,5,0.297495164856116,0.326249524569839
"790",36,25,2,1,70,3,2,0,2,0.694030386832948,0.617293717585273
"791",36,26,2,2,71,2,2,1,3,0.496500456145984,0.560735099056658
"792",36,33,2,2,72,1,1,0,3,0.430513817046191,0.376899320816322
"793",36,36,2,2,73,1,2,1,4,0.425241528823928,0.422884783784676
"794",36,38,2,2,74,3,1,0,1,1.43053318372868,1.49668741239012
"795",36,20,2,2,75,2,2,1,4,0.601296105037658,0.585404768960324
"796",36,25,2,1,76,2,1,1,4,0.58347328559465,0.525262698857065
"797",36,30,2,1,77,3,1,1,3,1.06698966463813,1.07668564885824
"798",36,34,2,2,78,2,2,1,3,0.531617814600574,0.563381334540871
"799",36,25,2,1,79,3,1,1,3,0.816336220067053,0.881245294165749
"800",36,25,2,2,80,2,2,1,3,0.555160411173569,0.492439092282049
"801",36,26,2,2,81,3,2,1,2,1.12469013298701,1.08478830404348
"802",36,33,2,1,82,3,2,0,2,0.813825071578967,0.746682607788029
"803",36,36,2,2,83,1,2,1,5,0.371671379888892,0.340024892026054
"804",36,38,2,2,84,3,2,1,2,0.491264929967653,0.428112934517699
"805",36,20,2,2,85,3,1,0,1,0.998872028078948,1.03320602653294
"806",36,25,2,2,86,1,2,1,5,0.361314490930342,0.40345105405517
"807",36,30,2,1,87,3,1,1,3,0.950871016451564,0.904367560143785
"808",36,34,2,2,88,1,2,1,4,0.365051991048666,0.269316721019671
"809",36,25,2,2,89,2,2,1,3,0.387602771704518,0.337240931212342
"810",36,25,2,2,90,1,2,1,4,0.439638492308576,0.417275877152356
"811",36,26,2,2,91,1,2,1,4,0.42632210033754,0.469759596629589
"812",36,33,2,1,92,3,1,1,3,0.606752508743525,0.579465198352524
"813",36,36,2,1,93,2,1,1,3,0.732914774774581,0.689201872356088
"814",36,38,2,2,94,3,2,1,2,0.605178691746936,0.588606205486019
"815",36,20,2,2,95,3,1,0,1,1.40981926689056,1.40206390179649
"816",36,25,2,1,96,3,2,0,2,1.18635116317813,1.2492854890813
"817",36,30,2,1,97,2,1,1,4,0.477874210905608,0.465540109497811
"818",36,34,2,1,98,3,2,0,2,0.901228145154839,0.859225365815224
"819",36,25,2,1,99,2,1,1,4,0.373084415196582,0.435611896845618
"820",36,25,2,2,100,2,1,0,3,0.719810864775701,0.636726507202261
"821",36,26,2,2,101,1,2,1,5,0.408836224301973,0.365940302188527
"822",36,33,2,2,102,2,2,1,3,0.681316967385798,0.607460207393794
"823",36,36,2,1,103,2,2,0,3,0.643183059792401,0.70878200239693
"824",36,38,2,2,104,3,1,0,2,1.49403837354226,1.54598121649648
"825",36,20,2,2,105,1,2,1,4,0.400114918729627,0.414873377660194
"826",36,25,2,2,106,2,1,0,2,0.561851175801438,0.475189395231613
"827",36,30,2,2,107,2,2,1,3,0.797279625982176,0.742032776423613
"828",36,34,2,2,108,3,1,0,2,1.11883203000331,1.14833873146963
"829",36,25,2,2,109,2,2,1,3,0.542726385630864,0.494514228589522
"830",36,25,2,1,110,2,1,1,3,0.791515016826866,0.75717069059318
"831",36,26,2,2,111,2,2,1,4,0.506738636433584,0.516744660687398
"832",36,33,2,2,112,1,2,1,4,0.589374919227204,0.601869089611111
"833",36,36,2,2,113,1,2,1,4,0.633105257892417,0.73121850796261
"834",36,38,2,1,114,3,1,1,2,0.72092919176752,0.811433739574811
"835",36,20,2,1,115,2,1,1,4,0.521730504225408,0.496404704377566
"836",36,25,2,2,116,2,2,1,3,0.702489932309847,0.724973769565256
"837",36,30,2,1,117,1,2,0,3,0.379044390384271,0.439757760396179
"838",36,34,2,1,118,3,1,1,2,0.708114193929769,0.768246166339814
"839",36,25,2,2,119,3,1,0,2,0.806070486187005,0.771281980687382
"840",36,25,2,2,120,2,2,1,4,0.708903022514335,0.77462674056617
"841",36,26,2,1,121,3,1,1,3,1.0417564239244,0.97402957219383
"842",36,33,2,2,122,2,2,1,4,0.680032796313848,0.762697730036341
"843",36,36,2,2,123,3,2,1,3,0.840354999535985,0.914842472309509
"844",36,38,2,1,124,1,1,1,4,0.435063041568246,0.465950413836197
"845",36,20,2,2,125,2,2,1,3,0.572608418062288,0.499766803540785
"846",36,25,2,2,126,2,1,0,2,0.72037890317778,0.628105355331554
"847",36,30,2,1,127,1,1,1,5,0.441163289990179,0.393058659949371
"848",36,34,2,1,128,3,2,0,1,0.565491253937888,0.623163437629611
"849",36,25,2,1,129,3,2,0,2,1.20886085386694,1.2736215087945
"850",36,25,2,1,130,2,2,0,2,0.929256031765244,0.960856053701667
"851",36,26,2,2,131,3,2,1,2,0.76775835144892,0.827779095440948
"852",36,33,2,2,132,1,2,1,5,0.263158832163554,0.296269004444347
"853",36,36,2,1,133,2,1,1,3,0.600409887387073,0.583530773534886
"854",36,38,2,1,134,1,1,1,5,0.429235667009976,0.478276243509761
"855",36,20,2,2,135,1,2,1,5,0.353491604092301,0.261366407158296
"856",36,25,2,2,136,2,2,1,3,0.507867564610759,0.568205163080487
"857",36,30,2,1,137,3,1,1,2,1.00236712902885,0.859327293115668
"858",36,34,2,2,138,2,1,0,2,0.625984169293256,0.721405265401734
"859",36,25,2,1,139,3,2,0,1,0.718214900685672,0.702937432886207
"860",36,25,2,2,140,2,1,0,3,0.61881561071324,0.610061755988173
"861",36,26,2,1,141,1,1,1,5,0.318647965480188,0.374069251684487
"862",36,33,2,2,142,1,2,1,4,0.358605953710711,0.330694559240325
"863",36,36,2,1,143,3,1,1,3,1.10191132235999,1.09395340411676
"864",36,38,2,2,144,1,2,1,4,0.447417454653032,0.400179816669332
"865",36,20,2,1,145,3,1,1,3,0.552218536135873,0.577725044419701
"866",36,25,2,1,146,2,1,1,3,0.657313173113384,0.646573559647744
"867",36,30,2,2,147,1,2,1,4,0.450718096858755,0.389117516962457
"868",36,34,2,1,148,3,2,0,2,0.917162942889837,0.952517684228832
"869",36,25,2,2,149,2,2,1,3,0.711228740513915,0.766627896529796
"870",36,25,2,2,150,2,2,1,3,0.492529597612614,0.411263729650639
"871",36,26,2,1,151,3,2,0,1,1.20065808346192,1.26159769300623
"872",36,33,2,2,152,1,1,0,3,0.408585001757756,0.411090352016961
"873",36,36,2,1,153,1,1,1,5,0.403613551969942,0.396290336349957
"874",36,38,2,1,154,2,1,1,3,0.407774745757082,0.380563733185413
"875",36,20,2,1,155,3,2,0,2,0.979984383856747,1.00282931614862
"876",36,25,2,1,156,1,1,1,5,0.533272046296592,0.557752942778443
"877",36,30,2,1,157,2,1,1,3,0.787955944654596,0.770417255885365
"878",36,34,2,2,158,1,2,1,4,0.408401916708039,0.461846668426925
"879",36,25,2,1,159,1,2,0,4,0.537829190495416,0.51030997212751
"880",36,25,2,2,160,3,2,1,2,0.787223168066571,0.794814694729102
"881",36,26,2,1,161,3,2,0,1,0.754320171657879,0.686913916368601
"882",36,33,2,1,162,1,1,1,4,0.338192375949098,0.398096930193476
"883",36,36,2,2,163,1,2,1,4,0.578120640083285,0.591777848575326
"884",36,38,2,1,164,2,1,1,3,0.522801417300243,0.518015282078304
"885",36,20,2,1,165,2,1,1,4,0.537222156470174,0.577129375635676
"886",36,25,2,1,166,3,1,1,2,0.989107935777019,0.997607159720692
"887",36,30,2,1,167,1,2,0,4,0.326958094719858,0.338639109668556
"888",36,34,2,2,168,3,1,0,1,1.37562999701248,1.44275166041768
"889",36,25,2,2,169,1,2,1,5,0.312938467634928,0.216945349046745
"890",36,25,2,1,170,3,2,0,2,0.98433136137784,1.00176656063221
"891",36,26,2,1,171,3,2,0,2,1.27937554735551,1.27261053711514
"892",36,33,2,2,172,1,2,1,5,0.498004824063483,0.492238233113122
"893",36,36,2,1,173,3,1,1,2,1.06172113494666,1.03781557925012
"894",36,38,2,1,174,2,1,1,4,0.441317605940013,0.443660131222379
"895",36,20,2,2,175,2,1,0,2,0.875299191569569,0.949941516931075
"896",36,25,2,2,176,1,2,1,4,0.266233219809936,0.223288029309355
"897",36,30,2,2,177,1,2,1,5,0.318685243172185,0.378561069944032
"898",36,34,2,1,178,2,1,1,4,0.585916283464324,0.647228315892972
"899",36,25,2,1,179,1,2,0,4,0.363352475276231,0.344899875171287
"900",36,25,2,2,180,3,1,0,1,1.00317709560753,1.05562186789445
"901",36,26,2,1,181,3,2,0,1,0.509340631069836,0.531645354813349
"902",36,33,2,1,182,2,1,1,4,0.665873412160373,0.656260431110417
"903",36,36,2,1,183,3,2,0,1,0.843840726707459,0.902915416262277
"904",36,38,2,1,184,3,1,1,2,0.786595305446762,0.82185135175386
"905",36,20,2,2,185,1,1,0,3,0.598101501829155,0.639356326944895
"906",36,25,2,1,186,1,1,1,5,0.364051980542178,0.300441073156929
"907",36,30,2,2,187,1,2,1,4,0.562235966326335,0.604485751404575
"908",36,34,2,2,188,3,1,0,1,1.14657512045671,1.14287590306187
"909",36,25,2,2,189,3,2,1,3,0.745614681763837,0.705499251708538
"910",36,25,2,2,190,1,2,1,5,0.366265691680681,0.396780118996565
"911",36,26,2,2,191,2,1,0,2,0.696223283567444,0.697326166362636
"912",36,33,2,1,192,3,1,1,2,0.918483063625128,0.971673867714023
"913",36,36,2,2,193,2,2,1,4,0.618318779293685,0.583619472537222
"914",36,38,2,1,194,1,1,1,4,0.440191560830309,0.410042082061485
"915",36,20,2,2,195,3,1,0,1,1.21230734128571,1.22522883950432
"916",36,25,2,1,196,2,1,1,3,0.487989680447466,0.477985226406916
"917",36,30,2,2,197,3,1,0,2,0.252279114091158,0.240802761668147
"918",36,34,2,2,198,3,2,1,3,1.04897413897877,0.946038372066697
"919",36,25,2,2,199,1,2,1,4,0.370987959181691,0.398617038845648
"920",36,25,2,2,200,3,1,0,1,0.481488851666814,0.504045545779618
"921",36,26,2,1,201,1,1,1,4,0.35976840066476,0.37502244740947
"922",36,33,2,2,202,3,2,1,2,1.00601054416315,1.02548599998702
"923",36,36,2,2,203,1,2,1,5,0.498519915965656,0.590535304604109
"924",36,38,2,1,204,3,1,1,3,0.739820811430696,0.725190644559021
"925",36,20,2,1,205,2,1,1,4,0.739360155827369,0.77380878373047
"926",36,25,2,1,206,3,1,1,2,0.817569041887754,0.808170282568882
"927",36,30,2,1,207,2,2,0,2,0.62295162088892,0.751859335516369
"928",36,34,2,2,208,2,2,1,3,0.223167111372211,0.157347924751544
"929",36,25,2,1,209,1,1,1,5,0.370468161451606,0.442675296804366
"930",36,25,2,1,210,3,2,0,2,1.34725513517565,1.42438843993956
"931",36,26,2,1,211,2,2,0,3,0.732684685244507,0.695483609547493
"932",36,33,2,1,212,1,2,0,3,0.467303588661881,0.476284632319552
"933",36,36,2,1,213,1,1,1,4,0.178095836985664,0.216072017160403
"934",36,38,2,1,214,1,2,0,4,0.550888977956984,0.576909769050549
"935",36,20,2,1,215,2,1,1,3,0.339512914904851,0.316144879967846
"936",36,25,2,2,216,1,2,1,4,0.381916148466058,0.34894588449987
"937",36,30,2,2,217,1,2,1,4,0.388429602206146,0.389354662500437
"938",36,34,2,1,218,3,2,0,1,1.20174735985187,1.24587743357853
"939",36,25,2,2,219,2,2,1,3,0.566382069365121,0.645553863838856
"940",36,25,2,2,220,1,1,0,4,0.533314086205229,0.496908006567863
"941",36,26,2,1,221,2,1,1,3,0.564542749958929,0.569155823635209
"942",36,33,2,1,222,2,1,1,3,0.386660673505462,0.429917137341515
"943",36,36,2,1,223,1,2,0,3,0.572491606900743,0.640582322414635
"944",36,38,2,1,224,3,1,1,2,0.855581303327229,0.844768645683358
"945",36,20,2,2,225,2,1,0,2,0.518163920011862,0.434907918609489
"946",36,25,2,2,226,1,1,0,3,0.479825819552925,0.543494745461345
"947",36,30,2,1,227,1,1,1,5,0.452076440135513,0.46125431560426
"948",36,34,2,2,228,1,2,1,4,0.358213783788231,0.401749562576505
"949",36,25,2,2,229,3,2,1,2,0.817433261363325,0.845292946211769
"950",36,25,2,2,230,3,2,1,2,0.905758237604476,0.940108381249748
"951",36,26,2,1,231,3,1,1,2,1.06686175048121,0.985199398731107
"952",36,33,2,2,232,1,2,1,4,0.32803937284682,0.329174388012965
"953",36,36,2,1,233,1,1,1,4,0.459122923754416,0.380206839975742
"954",36,38,2,2,234,2,2,1,3,0.710848936883884,0.755947955817887
"955",36,20,2,1,235,1,2,0,3,0.569546809747284,0.536940463840178
"956",36,25,2,2,236,1,2,1,4,0.347261277384259,0.374257970907758
"957",36,30,2,1,237,3,1,1,3,0.762011525827978,0.814509635531906
"958",36,34,2,1,238,1,1,1,4,0.444125203765341,0.423946247363529
"959",36,25,2,2,239,2,2,1,4,0.591703990304294,0.622634472418272
"960",36,25,2,2,240,3,2,1,3,0.589289756437223,0.569548013441783
"961",35,37,1,2,1,3,1,0,2,1.30691968744846,1.36316833661832
"962",35,20,1,2,2,2,2,1,3,0.807279771038463,0.793770061258197
"963",35,21,1,1,3,2,1,1,4,0.420450578354669,0.444378226838473
"964",35,29,1,2,4,3,1,0,2,0.579376374823765,0.601913922138944
"965",35,32,1,2,5,2,2,1,4,0.386813603807034,0.420546041072689
"966",35,29,1,2,6,1,2,1,5,0.470733235146772,0.471607689469395
"967",35,27,1,1,7,2,1,1,3,0.569223439341118,0.512677250569906
"968",35,38,1,2,8,2,2,1,3,0.574641987614115,0.657953494622781
"969",35,19,1,2,9,1,1,0,4,0.566708286551707,0.465766344910079
"970",35,20,1,1,10,1,1,1,4,0.456052151559176,0.509347580731209
"971",35,37,1,1,11,1,1,1,4,0.399187875603037,0.471592097441115
"972",35,20,1,2,12,1,2,1,4,0.416419605612039,0.498526286562011
"973",35,21,1,1,13,3,1,1,3,1.18596608461551,1.17528490495698
"974",35,29,1,2,14,2,2,1,4,0.516354654056665,0.48376602917984
"975",35,32,1,1,15,3,1,1,3,0.984156721296883,0.926018473908962
"976",35,29,1,1,16,2,1,1,3,0.598716099063493,0.566497178703806
"977",35,27,1,1,17,1,1,1,4,0.40910341483555,0.441794805147049
"978",35,38,1,1,18,3,2,0,2,1.2054865691098,1.22356319754534
"979",35,19,1,1,19,1,1,1,5,0.349863936187949,0.329084664928051
"980",35,20,1,1,20,2,1,1,3,0.60075335114478,0.544889636196588
"981",35,37,1,2,21,2,2,1,4,0.585485517669292,0.585591425733099
"982",35,20,1,2,22,1,2,1,4,0.483574038986678,0.451731821454846
"983",35,21,1,2,23,2,1,0,3,0.657733996822693,0.671077565406167
"984",35,29,1,2,24,2,2,1,3,0.772057556597235,0.729938869651769
"985",35,32,1,1,25,2,1,1,4,0.672470234158475,0.600310948611825
"986",35,29,1,1,26,3,2,0,2,0.990662995693119,0.976528396937483
"987",35,27,1,2,27,3,2,1,3,0.719429854950764,0.672857320887935
"988",35,38,1,1,28,3,2,0,2,0.489549188773767,0.442576926248394
"989",35,19,1,2,29,2,2,1,3,0.710611710489344,0.606007729843344
"990",35,20,1,1,30,2,1,1,3,0.574806932759125,0.50385456560974
"991",35,37,1,1,31,1,2,0,3,0.661095253795125,0.701164971545202
"992",35,20,1,1,32,1,2,0,4,0.469629696544448,0.423733677775557
"993",35,21,1,2,33,2,2,1,4,0.7462545493047,0.720273683326301
"994",35,29,1,1,34,2,1,1,4,0.741129411774196,0.730896068569261
"995",35,32,1,1,35,1,1,1,4,0.414262439688354,0.363076327565632
"996",35,29,1,1,36,3,2,0,1,0.944484762749787,0.909671719494473
"997",35,27,1,2,37,1,2,1,5,0.335669157772771,0.310541188969296
"998",35,38,1,2,38,1,2,1,5,0.287564914246673,0.320764529218523
"999",35,19,1,2,39,2,1,0,3,0.644760213610548,0.607388450657004
"1000",35,20,1,1,40,1,1,1,4,0.328658692488244,0.279779771236244
"1001",35,37,1,2,41,2,1,0,2,0.678891840439049,0.675521443207575
"1002",35,20,1,1,42,3,1,1,3,0.683957265002333,0.7220278920392
"1003",35,21,1,1,43,1,2,0,3,0.49440062703277,0.468073511225466
"1004",35,29,1,1,44,2,2,0,2,0.768063588569113,0.751004536919726
"1005",35,32,1,1,45,3,2,0,2,1.07996058085842,1.05509631536156
"1006",35,29,1,2,46,2,2,1,3,0.305605468869365,0.23942553067669
"1007",35,27,1,1,47,3,1,1,3,0.664598965399309,0.633769516553846
"1008",35,38,1,2,48,1,2,1,5,0.449895567242183,0.523561710089671
"1009",35,19,1,1,49,1,1,1,4,0.44798436978464,0.535466689879355
"1010",35,20,1,1,50,2,1,1,3,0.486677407938011,0.455579220690765
"1011",35,37,1,1,51,3,1,1,3,1.15156949003739,1.17976036584904
"1012",35,20,1,2,52,1,2,1,5,0.218080273996944,0.237869682868815
"1013",35,21,1,1,53,3,2,0,1,0.38919631853727,0.318070770959682
"1014",35,29,1,1,54,3,2,0,1,0.967139581468924,1.02102460975467
"1015",35,32,1,1,55,3,2,0,2,0.66908690578674,0.676737373570158
"1016",35,29,1,1,56,1,1,1,5,0.571167826112896,0.562781073104337
"1017",35,27,1,1,57,2,2,0,3,0.669945555826694,0.644237375462673
"1018",35,38,1,2,58,1,1,0,3,0.483927478558668,0.513566565851751
"1019",35,19,1,1,59,3,2,0,2,0.532611474699969,0.43265879297108
"1020",35,20,1,2,60,2,2,1,4,0.680956517075562,0.710422066874413
"1021",35,37,1,2,61,2,1,0,2,0.620925960682547,0.577837295343011
"1022",35,20,1,1,62,2,1,1,4,0.436788774401315,0.500107724548851
"1023",35,21,1,2,63,1,2,1,5,0.438936173232182,0.40756014086959
"1024",35,29,1,2,64,1,2,1,5,0.528670297124348,0.488648445088137
"1025",35,32,1,2,65,1,2,1,4,0.29131591467776,0.286358495065523
"1026",35,29,1,1,66,3,2,0,1,0.72324493928395,0.757472515294574
"1027",35,27,1,1,67,1,1,1,4,0.400949650932521,0.393357517407756
"1028",35,38,1,1,68,3,2,0,2,0.255419180827432,0.286403746337242
"1029",35,19,1,1,69,3,2,0,2,1.07144621957891,0.965877852965188
"1030",35,20,1,2,70,3,2,1,2,0.951583833796697,0.984839144194551
"1031",35,37,1,1,71,2,2,0,3,0.78454938606898,0.823994411557188
"1032",35,20,1,2,72,1,2,1,5,0.285740092141651,0.316239996275132
"1033",35,21,1,2,73,2,2,1,3,0.499504237121901,0.563311898333203
"1034",35,29,1,1,74,3,2,0,1,1.19060941354693,1.17369291368332
"1035",35,32,1,2,75,1,2,1,4,0.410707324777061,0.40182280840315
"1036",35,29,1,2,76,1,2,1,5,0.361367938651277,0.390881599223299
"1037",35,27,1,2,77,1,1,0,4,0.54783606928703,0.551361818172025
"1038",35,38,1,2,78,3,2,1,3,0.955978028810966,0.991567058836773
"1039",35,19,1,1,79,1,1,1,5,0.415813541516587,0.401484048764641
"1040",35,20,1,1,80,2,2,0,2,0.716409941493036,0.75405877890386
"1041",35,37,1,1,81,2,2,0,2,0.678822799263116,0.687053870849807
"1042",35,20,1,2,82,2,1,0,2,0.748953793360687,0.874337800490838
"1043",35,21,1,1,83,1,2,0,3,0.654238439759297,0.702243529934955
"1044",35,29,1,2,84,2,1,0,3,0.760334663654637,0.8113504455403
"1045",35,32,1,1,85,2,1,1,4,0.671307973324457,0.625731616424635
"1046",35,29,1,2,86,3,1,0,1,1.90453081498776,1.91558268213451
"1047",35,27,1,2,87,3,2,1,2,0.625014665719615,0.620090801790672
"1048",35,38,1,2,88,3,1,0,1,0.934301773387172,0.932374598258752
"1049",35,19,1,1,89,2,1,1,3,0.51481814953533,0.435999526175215
"1050",35,20,1,1,90,2,1,1,4,0.651407724868503,0.781297682827426
"1051",35,37,1,1,91,2,2,0,3,0.691597246593023,0.570056421426216
"1052",35,20,1,2,92,3,2,1,2,0.554892637490321,0.605258823258654
"1053",35,21,1,2,93,3,2,1,3,0.812392960573359,0.812302793436782
"1054",35,29,1,2,94,2,1,0,3,0.234563946835665,0.287045119095029
"1055",35,32,1,1,95,3,2,0,1,0.56586199607769,0.562467555470236
"1056",35,29,1,2,96,1,2,1,4,0.421346926967242,0.366181833237513
"1057",35,27,1,2,97,1,2,1,4,0.39341015177314,0.451670153710849
"1058",35,38,1,2,98,3,1,0,2,1.32294656803026,1.3478282625025
"1059",35,19,1,1,99,3,1,1,3,0.595157926542399,0.600580983733351
"1060",35,20,1,1,100,3,2,0,1,1.32963532055132,1.32964839919943
"1061",35,37,1,1,101,1,2,0,3,0.614413467486733,0.673303143158139
"1062",35,20,1,2,102,1,2,1,5,0.523647526335436,0.510177664054991
"1063",35,21,1,1,103,1,1,1,5,0.59420095888688,0.634043326426013
"1064",35,29,1,2,104,1,2,1,4,0.469282312419029,0.444291494419407
"1065",35,32,1,2,105,2,2,1,3,0.590480912342589,0.650524045270905
"1066",35,29,1,1,106,3,2,0,1,0.925255858127849,0.934979860790258
"1067",35,27,1,2,107,1,2,1,4,0.382976822891451,0.427061225046363
"1068",35,38,1,2,108,1,2,1,5,0.403108302680248,0.418020382054081
"1069",35,19,1,2,109,2,2,1,4,0.620066204701291,0.625423322371166
"1070",35,20,1,1,110,3,1,1,2,0.561911893298119,0.59377504505259
"1071",35,37,1,2,111,2,1,0,3,0.473854815872558,0.488825136518238
"1072",35,20,1,1,112,1,1,1,4,0.332835089651746,0.290708675853599
"1073",35,21,1,2,113,2,2,1,4,0.664953773156632,0.693986854389758
"1074",35,29,1,1,114,2,1,1,3,0.527214327631442,0.477641680991145
"1075",35,32,1,2,115,2,2,1,4,0.490848572848061,0.509244731113154
"1076",35,29,1,1,116,3,2,0,1,0.961138099978711,0.908397467392378
"1077",35,27,1,1,117,1,2,0,4,0.638409353663599,0.678690999927683
"1078",35,38,1,2,118,3,1,0,2,0.862954100943784,0.817694452324712
"1079",35,19,1,1,119,1,2,0,3,0.412520821380917,0.361503191832771
"1080",35,20,1,2,120,1,2,1,5,0.444409838740405,0.496843776251045
"1081",35,37,1,2,121,2,1,0,2,0.531767682142207,0.585310191099718
"1082",35,20,1,1,122,2,1,1,4,0.542018771773794,0.520004816217718
"1083",35,21,1,2,123,1,1,0,3,0.395690753666691,0.441020923193861
"1084",35,29,1,2,124,3,2,1,2,0.66043407773386,0.706651154724235
"1085",35,32,1,1,125,1,1,1,4,0.276013391808819,0.296046643393673
"1086",35,29,1,1,126,2,1,1,4,0.619151666003396,0.532626532308917
"1087",35,27,1,2,127,1,1,0,4,0.567149646250762,0.461873815668849
"1088",35,38,1,1,128,3,1,1,2,0.685805766526395,0.641952892252408
"1089",35,19,1,1,129,2,1,1,3,0.661348003515163,0.601198100893024
"1090",35,20,1,2,130,2,2,1,4,0.58749265138521,0.507649880397488
"1091",35,37,1,2,131,2,2,1,3,0.677094986449478,0.675819632651442
"1092",35,20,1,2,132,1,2,1,5,0.297835767057444,0.277608094525927
"1093",35,21,1,2,133,3,2,1,2,0.863014811374057,0.84147689014147
"1094",35,29,1,2,134,1,2,1,5,0.540614683150432,0.5998319772837
"1095",35,32,1,2,135,3,1,0,2,0.122288912489827,0.240504941642595
"1096",35,29,1,2,136,2,2,1,4,0.464877471467615,0.538257285599463
"1097",35,27,1,1,137,3,1,1,3,0.662073089574597,0.617655975496005
"1098",35,38,1,1,138,1,1,1,5,0.431449209709721,0.402740934754092
"1099",35,19,1,1,139,3,1,1,3,0.826009619806694,0.862442641822628
"1100",35,20,1,1,140,1,1,1,5,0.47485003982994,0.484699750915057
"1101",35,37,1,1,141,3,1,1,2,0.856120731694572,0.858492713814816
"1102",35,20,1,1,142,1,1,1,5,0.446085092776593,0.461673235812873
"1103",35,21,1,2,143,1,1,0,3,0.531915217382211,0.539907245819594
"1104",35,29,1,1,144,3,2,0,1,0.939669670951374,0.935258807597341
"1105",35,32,1,1,145,2,1,1,4,0.833656890039411,0.802228890783569
"1106",35,29,1,2,146,3,1,0,1,0.799257730424807,0.836922277937979
"1107",35,27,1,2,147,3,2,1,3,0.557252459893453,0.542131444963634
"1108",35,38,1,2,148,2,2,1,3,0.626416173413518,0.534201875170044
"1109",35,19,1,1,149,2,1,1,3,0.436165774734981,0.45728533070507
"1110",35,20,1,2,150,3,2,1,2,0.769198531021325,0.704842981313161
"1111",35,37,1,2,151,1,2,1,5,0.34096216796804,0.325587431372276
"1112",35,20,1,2,152,3,1,0,2,1.0181623375401,1.02409009823946
"1113",35,21,1,2,153,3,1,0,2,0.747381259436444,0.753047010762777
"1114",35,29,1,1,154,3,2,0,2,1.24405840462306,1.28319666838641
"1115",35,32,1,1,155,2,1,1,4,0.506799791584699,0.538047505390729
"1116",35,29,1,1,156,1,2,0,4,0.577234851315281,0.606045636294952
"1117",35,27,1,1,157,3,2,0,2,0.913753015759215,0.951976170289047
"1118",35,38,1,1,158,2,2,0,3,0.442220847519458,0.442749793204567
"1119",35,19,1,2,159,1,1,0,3,0.337249674353728,0.365470943630097
"1120",35,20,1,1,160,2,1,1,4,0.561086823034941,0.652034873067954
"1121",35,37,1,1,161,2,1,1,4,0.741489729144653,0.67135275584418
"1122",35,20,1,2,162,2,2,1,4,0.529827371955904,0.547331854745405
"1123",35,21,1,2,163,2,2,1,3,0.578718218353139,0.611764373427947
"1124",35,29,1,2,164,2,2,1,4,0.606049348498558,0.618717221760681
"1125",35,32,1,1,165,1,2,0,4,0.636488868586773,0.619775092813696
"1126",35,29,1,1,166,1,1,1,4,0.294797256030041,0.332657174776709
"1127",35,27,1,1,167,1,1,1,5,0.404889102380581,0.44077103584547
"1128",35,38,1,1,168,1,1,1,4,0.276880960924923,0.200930808814374
"1129",35,19,1,1,169,1,1,1,4,0.396103233947918,0.482306005118799
"1130",35,20,1,2,170,3,1,0,1,0.336793797110622,0.211043621209732
"1131",35,37,1,2,171,2,2,1,4,0.641179542667325,0.530540377037059
"1132",35,20,1,2,172,1,2,1,4,0.41972907429698,0.403346152182611
"1133",35,21,1,1,173,3,1,1,2,0.980945251833991,1.02589455685691
"1134",35,29,1,2,174,3,2,1,3,0.992157913263128,0.94238980109326
"1135",35,32,1,1,175,3,2,0,2,1.48446807597847,1.50828735209363
"1136",35,29,1,2,176,3,2,1,3,0.787081638850795,0.703295778895366
"1137",35,27,1,2,177,1,2,1,4,0.420644966666492,0.474691237151927
"1138",35,38,1,2,178,2,1,0,3,0.662888676391009,0.622455754456947
"1139",35,19,1,2,179,1,2,1,5,0.37390524364708,0.427811253596028
"1140",35,20,1,1,180,1,2,0,3,0.487319217208423,0.50887416711512
"1141",35,37,1,2,181,1,2,1,4,0.539839996308094,0.608339554553801
"1142",35,20,1,1,182,2,2,0,2,0.646684906243153,0.743719621347133
"1143",35,21,1,2,183,1,2,1,4,0.344757418740546,0.349841858295926
"1144",35,29,1,1,184,3,2,0,2,1.0410822867016,1.13763331789894
"1145",35,32,1,2,185,1,2,1,5,0.402040523047065,0.461021045541408
"1146",35,29,1,2,186,2,2,1,3,0.551532258254478,0.469685424980481
"1147",35,27,1,1,187,1,1,1,4,0.398446051837276,0.372337679262777
"1148",35,38,1,2,188,1,2,1,4,0.346552092357144,0.278282536509735
"1149",35,19,1,1,189,3,2,0,2,1.20778979069932,1.11603470182548
"1150",35,20,1,2,190,2,2,1,3,0.523018952130206,0.420669334484434
"1151",35,37,1,1,191,3,2,0,1,0.774424357975567,0.926295487283639
"1152",35,20,1,1,192,3,2,0,2,0.92883712400636,0.892008188566134
"1153",35,21,1,2,193,3,2,1,2,0.909171614842617,0.8174024460796
"1154",35,29,1,2,194,2,2,1,4,0.445334440181712,0.42254125276132
"1155",35,32,1,2,195,1,2,1,4,0.318661606230191,0.344616321631527
"1156",35,29,1,2,196,2,1,0,3,0.603933978868566,0.673442712495287
"1157",35,27,1,1,197,3,2,0,2,1.14687435355583,1.08629986200591
"1158",35,38,1,2,198,3,1,0,1,1.10826503024122,1.14612113845483
"1159",35,19,1,1,199,3,1,1,3,0.634590545969409,0.598764073522928
"1160",35,20,1,1,200,3,1,1,3,0.803317988034669,0.720842222653089
"1161",35,37,1,1,201,1,1,1,4,0.367669259688287,0.35899802063064
"1162",35,20,1,2,202,1,2,1,5,0.43807557472654,0.513601885461119
"1163",35,21,1,1,203,1,1,1,5,0.468693961117769,0.412578417353912
"1164",35,29,1,1,204,1,1,1,5,0.471109152451492,0.506118014714044
"1165",35,32,1,2,205,3,2,1,2,0.389497910659502,0.402139698680358
"1166",35,29,1,1,206,3,1,1,2,0.565510613988519,0.677944385216168
"1167",35,27,1,2,207,3,2,1,3,0.687306688164631,0.70959408600267
"1168",35,38,1,1,208,1,1,1,5,0.413146540587672,0.394942848565917
"1169",35,19,1,1,209,3,1,1,3,1.1007267167655,1.00026170729926
"1170",35,20,1,1,210,2,1,1,4,0.520028704917291,0.492412013102701
"1171",35,37,1,2,211,3,1,0,2,0.806954800421767,0.834565669427231
"1172",35,20,1,2,212,2,2,1,4,0.63304264938047,0.678265984023674
"1173",35,21,1,2,213,3,1,0,1,1.62841838085335,1.65044293123761
"1174",35,29,1,2,214,1,2,1,4,0.420383203445603,0.370893213373835
"1175",35,32,1,1,215,1,2,0,3,0.401564819994578,0.436764861111213
"1176",35,29,1,2,216,3,2,1,2,0.809712619708667,0.815358349018289
"1177",35,27,1,1,217,1,1,1,4,0.399069954861358,0.401920725965737
"1178",35,38,1,2,218,3,1,0,2,1.0825661047178,1.05570347961557
"1179",35,19,1,1,219,2,1,1,4,0.41402498712418,0.409529254569668
"1180",35,20,1,2,220,1,2,1,4,0.325835416869908,0.328195862353085
"1181",35,37,1,2,221,2,1,0,2,0.833475506383638,0.87497548825883
"1182",35,20,1,1,222,2,1,1,3,0.470495358026067,0.386230386790342
"1183",35,21,1,2,223,3,1,0,1,1.49153121242036,1.53112263720465
"1184",35,29,1,2,224,2,2,1,4,0.628341800270119,0.683270885382763
"1185",35,32,1,1,225,2,1,1,4,0.414600888685497,0.339918176666153
"1186",35,29,1,1,226,2,2,0,3,0.851711905746604,0.883820601284659
"1187",35,27,1,2,227,3,2,1,2,0.692919487101225,0.659844241088648
"1188",35,38,1,2,228,2,2,1,4,0.698334172239934,0.659932229303625
"1189",35,19,1,2,229,3,2,1,3,0.803644764891769,0.85324583880193
"1190",35,20,1,2,230,3,1,0,1,1.22781757288985,1.24231403660823
"1191",35,37,1,2,231,1,2,1,4,0.455426746124596,0.475120255550104
"1192",35,20,1,1,232,2,1,1,4,0.617998315921633,0.57529239322271
"1193",35,21,1,1,233,3,2,0,2,0.291351392537106,0.328610274441227
"1194",35,29,1,2,234,3,2,1,3,1.20371754807139,1.16733777867708
"1195",35,32,1,2,235,2,2,1,3,0.526043199699896,0.490764546296263
"1196",35,29,1,1,236,2,1,1,3,0.622074629381673,0.679200746948278
"1197",35,27,1,1,237,2,1,1,4,0.590817902681957,0.523340585271528
"1198",35,38,1,1,238,3,2,0,1,1.22068998045054,1.16080823932524
"1199",35,19,1,1,239,1,1,1,5,0.405561222109739,0.392101165351897
"1200",35,20,1,1,240,2,1,1,3,0.523635655529169,0.537866786366485
"1201",34,19,2,1,1,1,1,1,4,0.478193285325443,0.48714568395728
"1202",34,30,2,1,2,2,1,1,3,0.612660452842999,0.587451638037285
"1203",34,37,2,2,3,2,2,1,3,0.830534535057132,0.837158001786943
"1204",34,29,2,1,4,3,1,1,2,0.995351495792964,0.94263017429073
"1205",34,26,2,2,5,2,2,1,3,0.631134804517438,0.621535535494859
"1206",34,21,2,1,6,3,2,0,1,0.82408023217358,0.794767160990758
"1207",34,20,2,1,7,1,1,1,4,0.506466772683101,0.518571936260853
"1208",34,35,2,2,8,1,1,0,3,0.642630358731463,0.650413718698759
"1209",34,24,2,1,9,1,1,1,5,0.370253960557938,0.230332178844482
"1210",34,32,2,1,10,3,2,0,2,1.19460232911141,1.16610245517126
"1211",34,19,2,1,11,2,1,1,3,0.665388083728624,0.71330703668882
"1212",34,30,2,1,12,1,2,0,3,0.795931587195264,0.69511531375646
"1213",34,37,2,2,13,3,1,0,2,1.0078778365657,0.989698420116381
"1214",34,29,2,2,14,2,1,0,3,0.801494851756182,0.858222358640854
"1215",34,26,2,1,15,3,2,0,2,1.25315802035363,1.18914750363814
"1216",34,21,2,2,16,2,1,0,2,0.905370932285862,0.85963137286315
"1217",34,20,2,2,17,1,2,1,4,0.382723678947547,0.34090505636812
"1218",34,35,2,1,18,3,1,1,3,0.689225269814596,0.733540599557291
"1219",34,24,2,1,19,3,1,1,3,0.73335172219711,0.740686916672385
"1220",34,32,2,1,20,3,2,0,2,1.08075549519567,1.11839393197543
"1221",34,19,2,1,21,3,1,1,2,0.810970242482888,0.808081163117626
"1222",34,30,2,2,22,2,2,1,3,0.611953794292673,0.73334657073137
"1223",34,37,2,2,23,1,2,1,4,0.517193632240681,0.516683252315607
"1224",34,29,2,1,24,1,1,1,5,0.402802875377147,0.320209370287283
"1225",34,26,2,1,25,1,2,0,3,0.712345967146838,0.767672211723778
"1226",34,21,2,2,26,3,1,0,1,0.44433805541745,0.450239555851457
"1227",34,20,2,1,27,1,1,1,4,0.315643189059662,0.345903903583049
"1228",34,35,2,2,28,3,1,0,2,0.661356375998398,0.675922267183518
"1229",34,24,2,2,29,2,2,1,4,0.611678136104677,0.626519974046099
"1230",34,32,2,2,30,3,2,1,3,0.507784637608345,0.68979593001103
"1231",34,19,2,2,31,1,2,1,4,0.390176367287046,0.369983925517738
"1232",34,30,2,1,32,1,1,1,5,0.414802925314136,0.311795712869306
"1233",34,37,2,1,33,2,2,0,3,0.911611551819429,0.915778651376958
"1234",34,29,2,1,34,2,2,0,3,0.571907685428059,0.532030898986798
"1235",34,26,2,1,35,1,2,0,3,0.695863924343489,0.636184245105845
"1236",34,21,2,2,36,2,1,0,2,0.63033116658177,0.652909707094291
"1237",34,20,2,2,37,3,1,0,2,0.985963256836394,0.983580395120907
"1238",34,35,2,2,38,3,1,0,1,1.69610220865424,1.70057907589145
"1239",34,24,2,2,39,2,1,0,2,0.719644882159312,0.741353377766951
"1240",34,32,2,2,40,2,2,1,3,0.616648164548709,0.585841411490769
"1241",34,19,2,2,41,2,2,1,4,0.619201541108388,0.548348456316381
"1242",34,30,2,2,42,2,1,0,3,0.69824262992831,0.695068632326669
"1243",34,37,2,1,43,2,2,0,3,0.859934319541645,0.848577354121126
"1244",34,29,2,2,44,2,2,1,4,0.461179263688353,0.46038380035549
"1245",34,26,2,2,45,1,2,1,4,0.450675744184668,0.408792679522581
"1246",34,21,2,2,46,1,2,1,5,0.397524176528799,0.37365117814624
"1247",34,20,2,2,47,3,2,1,2,1.16368108765702,1.24768636326095
"1248",34,35,2,1,48,1,1,1,4,0.480299844181401,0.515168621722919
"1249",34,24,2,2,49,3,1,0,1,1.36148062157893,1.39726211826303
"1250",34,32,2,2,50,3,2,1,3,0.504613187697632,0.52899077033947
"1251",34,19,2,2,51,3,2,1,2,0.682136199172324,0.631929798322674
"1252",34,30,2,1,52,1,1,1,4,0.219144210438124,0.253846050093776
"1253",34,37,2,2,53,3,1,0,2,1.60889681383135,1.57679692198178
"1254",34,29,2,2,54,2,1,0,3,0.572014032128772,0.640592649713111
"1255",34,26,2,1,55,3,2,0,1,1.10599126573985,1.14141453816376
"1256",34,21,2,1,56,3,2,0,2,0.693907857541567,0.794600862528894
"1257",34,20,2,1,57,2,1,1,3,0.377150874878265,0.363532397166446
"1258",34,35,2,2,58,1,2,1,4,0.459427717572293,0.408557654497061
"1259",34,24,2,2,59,3,1,0,2,1.0838354362245,1.02014514463793
"1260",34,32,2,1,60,3,2,0,2,1.03255962746937,1.04054133481289
"1261",34,19,2,2,61,3,1,0,1,1.38651122382945,1.41186453179479
"1262",34,30,2,2,62,2,2,1,3,0.667180400068465,0.654035680025284
"1263",34,37,2,2,63,3,1,0,1,1.27900752203533,1.19140603180876
"1264",34,29,2,1,64,1,1,1,5,0.439997304431621,0.34316111932168
"1265",34,26,2,1,65,3,2,0,1,0.464395662846437,0.414212551113594
"1266",34,21,2,1,66,3,1,1,2,0.868942287175137,0.906985066324187
"1267",34,20,2,2,67,2,1,0,3,0.853766789007134,0.876171982038043
"1268",34,35,2,1,68,1,1,1,4,0.352591743352959,0.493000482539402
"1269",34,24,2,1,69,3,2,0,2,0.963907520439821,0.861733998926077
"1270",34,32,2,1,70,2,1,1,3,0.516617067321602,0.562703690215557
"1271",34,19,2,1,71,1,2,0,3,0.529075891659273,0.549022593926311
"1272",34,30,2,1,72,1,1,1,4,0.353157454194036,0.360627230643058
"1273",34,37,2,1,73,2,2,0,2,0.693913853504575,0.682977987028098
"1274",34,29,2,2,74,3,2,1,3,1.02656127956748,1.07328570671195
"1275",34,26,2,1,75,3,2,0,1,1.48438915263909,1.33784797628666
"1276",34,21,2,2,76,1,1,0,3,0.639793651742215,0.619682097777327
"1277",34,20,2,1,77,1,2,0,4,0.556369388293135,0.617074479576742
"1278",34,35,2,1,78,1,1,1,5,0.489464090766255,0.460484601254446
"1279",34,24,2,2,79,1,2,1,5,0.529350819631574,0.487453295593312
"1280",34,32,2,2,80,1,1,0,3,0.579534154807506,0.603676594297993
"1281",34,19,2,1,81,1,1,1,4,0.549839375866312,0.489099135430835
"1282",34,30,2,1,82,3,2,0,1,0.839786836570975,0.839494734256455
"1283",34,37,2,1,83,2,1,1,4,0.643756758821411,0.666041965156507
"1284",34,29,2,1,84,2,2,0,3,0.577009403439776,0.500603233967323
"1285",34,26,2,1,85,2,2,0,3,0.583256815574733,0.614437978699129
"1286",34,21,2,2,86,3,2,1,3,0.622649356094157,0.656909239177792
"1287",34,20,2,2,87,3,2,1,2,0.665489589205926,0.626586682404905
"1288",34,35,2,2,88,1,2,1,5,0.344107946539425,0.286485932542164
"1289",34,24,2,1,89,3,2,0,2,1.25075502765146,1.23269894119931
"1290",34,32,2,1,90,2,1,1,4,0.580083519228806,0.593815289693183
"1291",34,19,2,1,91,1,2,0,4,0.506174139158274,0.520387869370452
"1292",34,30,2,2,92,3,1,0,2,1.57332292916347,1.52301612383107
"1293",34,37,2,1,93,3,1,1,2,1.01943839324674,0.986295753067673
"1294",34,29,2,1,94,2,2,0,3,0.543997067722763,0.629472863194037
"1295",34,26,2,1,95,2,2,0,3,0.617699373752191,0.604747686818889
"1296",34,21,2,2,96,2,1,0,3,0.722230314838,0.830264984459459
"1297",34,20,2,2,97,1,2,1,4,0.403280996041852,0.351866619122567
"1298",34,35,2,1,98,2,1,1,3,0.521268470222979,0.525914824853801
"1299",34,24,2,2,99,1,2,1,5,0.19758441812219,0.195671900573913
"1300",34,32,2,1,100,2,1,1,3,0.689618059693388,0.697470595425107
"1301",34,19,2,2,101,3,1,0,2,1.38256543359455,1.37886633862439
"1302",34,30,2,1,102,1,1,1,5,0.369394593929311,0.338663787147675
"1303",34,37,2,2,103,3,2,1,2,0.633560906296036,0.585679873218667
"1304",34,29,2,1,104,3,2,0,2,1.49966732096111,1.53079529420689
"1305",34,26,2,1,105,1,2,0,3,0.695444438666612,0.757965938251164
"1306",34,21,2,2,106,3,1,0,2,1.19193867858299,1.17838369519711
"1307",34,20,2,2,107,3,2,1,3,0.717610794819272,0.741821982069115
"1308",34,35,2,2,108,3,2,1,3,0.766391983473768,0.804932358111122
"1309",34,24,2,2,109,1,2,1,4,0.432090810926178,0.429303999071601
"1310",34,32,2,1,110,1,2,0,4,0.514610107841054,0.632194683957235
"1311",34,19,2,2,111,1,2,1,4,0.447448715915862,0.444538146704389
"1312",34,30,2,2,112,2,1,0,3,0.746602361823154,0.782868896424863
"1313",34,37,2,2,113,1,1,0,4,0.766248080541978,0.806380531794453
"1314",34,29,2,1,114,1,1,1,4,0.424134152269189,0.417761995089984
"1315",34,26,2,2,115,2,2,1,3,0.556594980281113,0.546403571857783
"1316",34,21,2,2,116,2,1,0,3,0.7066242429954,0.738302861432684
"1317",34,20,2,2,117,3,1,0,1,1.42423941298856,1.37121719478499
"1318",34,35,2,1,118,2,2,0,3,0.637587536540611,0.609054181408022
"1319",34,24,2,2,119,1,1,0,4,0.696864835551205,0.684703073804222
"1320",34,32,2,1,120,3,2,0,1,1.40422569786917,1.42938548546846
"1321",34,19,2,2,121,3,2,1,2,1.0280264980735,1.06536826478117
"1322",34,30,2,1,122,2,1,1,3,0.349073487701838,0.3631121872002
"1323",34,37,2,1,123,1,1,1,4,0.339509112303229,0.344802463178127
"1324",34,29,2,1,124,2,1,1,3,0.558959146875393,0.621172230741876
"1325",34,26,2,1,125,3,2,0,1,0.311878364711389,0.379624408905069
"1326",34,21,2,2,126,2,1,0,3,0.732147468345544,0.763768397404382
"1327",34,20,2,1,127,2,2,0,2,0.729496112071637,0.693030012136704
"1328",34,35,2,2,128,1,2,1,5,0.411391893443732,0.436057018416305
"1329",34,24,2,2,129,2,2,1,3,0.706721008132861,0.707441061604277
"1330",34,32,2,2,130,3,2,1,3,0.967708027615723,0.981708486988868
"1331",34,19,2,2,131,2,1,0,3,0.666653020921411,0.627804228976783
"1332",34,30,2,1,132,2,1,1,4,0.66241117208959,0.700129792021604
"1333",34,37,2,1,133,3,2,0,1,0.961344646902885,0.959436395320991
"1334",34,29,2,2,134,1,2,1,4,0.424302270593412,0.473312498667439
"1335",34,26,2,2,135,3,2,1,2,0.750776710023974,0.756695898452528
"1336",34,21,2,2,136,2,2,1,4,0.646352539693996,0.672771163896925
"1337",34,20,2,2,137,2,1,0,3,0.705846411310446,0.646695433210524
"1338",34,35,2,1,138,1,1,1,4,0.267480220342737,0.305288733405466
"1339",34,24,2,2,139,3,1,0,2,1.62647815100987,1.54640921196055
"1340",34,32,2,1,140,2,1,1,3,0.384752093368538,0.364818749917677
"1341",34,19,2,2,141,2,2,1,3,0.704047176589927,0.641229607981068
"1342",34,30,2,2,142,2,2,1,3,0.572467172202551,0.617196971455059
"1343",34,37,2,2,143,1,2,1,4,0.379386460076618,0.364798671007491
"1344",34,29,2,2,144,1,2,1,4,0.416845501073087,0.433618248600007
"1345",34,26,2,1,145,1,1,1,4,0.390187873459638,0.413040570620366
"1346",34,21,2,2,146,3,2,1,3,0.847213533700829,0.84168984739506
"1347",34,20,2,2,147,2,2,1,3,0.687744635882134,0.723180381866971
"1348",34,35,2,1,148,1,2,0,4,0.546176471348428,0.560678141217135
"1349",34,24,2,2,149,2,2,1,4,0.770269073193735,0.715177415151114
"1350",34,32,2,2,150,1,2,1,5,0.408182906426601,0.421465301052632
"1351",34,19,2,2,151,3,2,1,2,0.991050699854485,1.04821599652851
"1352",34,30,2,1,152,2,1,1,3,0.517680036438836,0.550272503818032
"1353",34,37,2,2,153,3,2,1,2,0.949170268883787,1.02601922320034
"1354",34,29,2,2,154,1,2,1,5,0.454180212482288,0.384852360957978
"1355",34,26,2,1,155,1,1,1,5,0.292516235622812,0.248601015462761
"1356",34,21,2,2,156,3,2,1,3,0.664109561333358,0.673381517754128
"1357",34,20,2,2,157,2,2,1,4,0.551959910777212,0.58187201842419
"1358",34,35,2,1,158,2,2,0,2,0.283258921539029,0.269334457334734
"1359",34,24,2,2,159,2,2,1,3,0.613439995050471,0.655426691991008
"1360",34,32,2,2,160,2,1,0,2,0.549659200634151,0.586862727603438
"1361",34,19,2,2,161,1,2,1,4,0.389606218476397,0.366037447671009
"1362",34,30,2,1,162,1,2,0,4,0.628553634864223,0.624319020962913
"1363",34,37,2,1,163,2,2,0,2,0.858922151067255,0.822944312073529
"1364",34,29,2,1,164,1,1,1,4,0.23050496898681,0.243106810979359
"1365",34,26,2,1,165,2,1,1,3,0.447567919960448,0.401907238353906
"1366",34,21,2,1,166,2,2,0,3,0.536771374507837,0.515450926951831
"1367",34,20,2,2,167,2,1,0,2,0.479371814515973,0.496165486350206
"1368",34,35,2,2,168,1,2,1,5,0.411944679629934,0.446493579208426
"1369",34,24,2,1,169,1,1,1,5,0.33371224765349,0.277935487705113
"1370",34,32,2,1,170,3,1,1,2,1.01573023100716,1.0191161330647
"1371",34,19,2,1,171,1,2,0,3,0.505089570138616,0.520314930457276
"1372",34,30,2,1,172,2,1,1,3,0.526160741767251,0.48761508433423
"1373",34,37,2,2,173,2,2,1,3,0.628957645628248,0.626876779983988
"1374",34,29,2,1,174,2,2,0,2,0.529664231024843,0.487747376310193
"1375",34,26,2,2,175,2,1,0,3,0.677470356764474,0.759118813652467
"1376",34,21,2,1,176,3,2,0,2,1.14205669700319,1.19440939001863
"1377",34,20,2,2,177,2,1,0,3,0.729039458343815,0.677832192754376
"1378",34,35,2,1,178,2,1,1,3,0.828158028077301,0.847779008170144
"1379",34,24,2,1,179,2,2,0,3,0.213561007451721,0.15591858592728
"1380",34,32,2,1,180,1,1,1,5,0.579080264105021,0.630348145851886
"1381",34,19,2,1,181,1,1,1,4,0.346841504864607,0.35657807596038
"1382",34,30,2,1,182,1,1,1,4,0.310846806626862,0.290151582202931
"1383",34,37,2,1,183,2,1,1,4,0.500296078225555,0.471406494537179
"1384",34,29,2,1,184,2,1,1,4,0.585495348704184,0.620523889199986
"1385",34,26,2,2,185,3,1,0,2,0.884540713922852,0.817398582459141
"1386",34,21,2,1,186,1,1,1,5,0.421213947121693,0.396575458100453
"1387",34,20,2,1,187,3,1,1,2,0.775936254347997,0.71841196249883
"1388",34,35,2,1,188,1,1,1,5,0.436052393865494,0.378656301769213
"1389",34,24,2,2,189,2,2,1,4,0.689856601737055,0.739710996846521
"1390",34,32,2,1,190,1,1,1,4,0.492218238962083,0.45677819720291
"1391",34,19,2,2,191,1,1,0,4,0.49787147122153,0.563691413858223
"1392",34,30,2,1,192,3,2,0,2,1.40700757020204,1.38406763049676
"1393",34,37,2,1,193,3,1,1,2,1.07390944439464,1.11185402288916
"1394",34,29,2,1,194,1,1,1,5,0.283059371282204,0.278324871138108
"1395",34,26,2,2,195,2,2,1,4,0.716978963649018,0.598588230898703
"1396",34,21,2,1,196,1,2,0,3,0.453971748045138,0.526241856224952
"1397",34,20,2,1,197,1,1,1,4,0.380868512303115,0.338488795555264
"1398",34,35,2,2,198,1,2,1,4,0.47589693080899,0.525187491076933
"1399",34,24,2,1,199,2,2,0,3,0.572171217184552,0.655318000822462
"1400",34,32,2,2,200,3,1,0,2,0.810356029529405,0.699236378579841
"1401",34,19,2,1,201,1,1,1,5,0.326712060673792,0.281829045219818
"1402",34,30,2,1,202,1,2,0,3,0.641705146282654,0.679052909767687
"1403",34,37,2,2,203,2,2,1,4,0.593814511737253,0.695661469451618
"1404",34,29,2,1,204,2,1,1,4,0.688445426910073,0.571214056896015
"1405",34,26,2,2,205,1,2,1,5,0.494521884814405,0.450985859562219
"1406",34,21,2,1,206,3,2,0,2,1.06006944803414,1.12991390537421
"1407",34,20,2,1,207,3,2,0,1,0.882091725403763,0.863781022160542
"1408",34,35,2,2,208,2,1,0,2,0.74381288049773,0.75416107445734
"1409",34,24,2,1,209,2,2,0,3,0.74899344293872,0.743741568250198
"1410",34,32,2,1,210,3,2,0,2,1.23985939170446,1.25706163684154
"1411",34,19,2,2,211,3,2,1,2,0.603418594853061,0.600548616806706
"1412",34,30,2,2,212,3,2,1,2,1.08192196079568,1.09709222666312
"1413",34,37,2,2,213,2,1,0,3,0.506233031960275,0.452786929278747
"1414",34,29,2,2,214,3,1,0,1,1.12931695260973,1.06665256881013
"1415",34,26,2,2,215,3,2,1,3,0.801621648332555,0.773644962136821
"1416",34,21,2,1,216,3,2,0,1,0.900388400117167,0.869243693837674
"1417",34,20,2,1,217,3,1,1,3,0.927717628645557,0.925639065432403
"1418",34,35,2,2,218,1,1,0,3,0.45814649521535,0.556626544284031
"1419",34,24,2,1,219,2,1,1,3,0.546367812966918,0.509540698655856
"1420",34,32,2,2,220,1,2,1,5,0.260964758162183,0.162673907681705
"1421",34,19,2,1,221,2,1,1,4,0.61368956416215,0.66039297559213
"1422",34,30,2,2,222,3,2,1,3,0.756744321511267,0.764855941243137
"1423",34,37,2,2,223,3,2,1,3,0.76831041858485,0.776183324910766
"1424",34,29,2,2,224,3,1,0,1,0.517264180299208,0.435732800044117
"1425",34,26,2,2,225,2,1,0,3,0.676352671151858,0.732959073625061
"1426",34,21,2,2,226,2,2,1,3,0.634838117239348,0.685051784896728
"1427",34,20,2,2,227,1,2,1,5,0.40651894404379,0.462945958630362
"1428",34,35,2,1,228,3,1,1,2,0.526156598531302,0.514853626105471
"1429",34,24,2,2,229,3,2,1,2,0.978919376599781,1.08030483900396
"1430",34,32,2,2,230,3,2,1,3,0.696488789478448,0.704164076090553
"1431",34,19,2,1,231,3,2,0,2,1.24245996207404,1.23628661779526
"1432",34,30,2,1,232,3,2,0,1,0.788531104390565,0.821499565282781
"1433",34,37,2,1,233,1,1,1,5,0.408906439229989,0.580868254463755
"1434",34,29,2,2,234,1,2,1,4,0.350296113618044,0.333129525989683
"1435",34,26,2,1,235,1,1,1,4,0.386722201216784,0.418630263857269
"1436",34,21,2,2,236,1,2,1,5,0.399471346113954,0.353138639625089
"1437",34,20,2,1,237,3,2,0,1,0.555512416102424,0.596887084191731
"1438",34,35,2,2,238,1,2,1,4,0.487410400697667,0.569017628388839
"1439",34,24,2,2,239,1,2,1,4,0.3910483901827,0.363670549520075
"1440",34,32,2,1,240,3,2,0,2,0.300813794583504,0.316865089839506
"1441",33,30,1,2,1,1,1,0,3,0.499203479299172,0.45496595397586
"1442",33,39,1,2,2,3,1,0,1,0.718465216133718,0.754909969771603
"1443",33,27,1,2,3,3,1,0,2,0.712877576358449,0.68753726378674
"1444",33,26,1,1,4,2,1,1,3,0.638059045214233,0.568655417371757
"1445",33,28,1,1,5,2,1,1,4,0.388788685970838,0.318750109926897
"1446",33,28,1,1,6,3,2,0,2,1.28143106316824,1.36271854388214
"1447",33,23,1,1,7,1,1,1,5,0.364590822424005,0.355009401839583
"1448",33,20,1,2,8,1,2,1,5,0.531267123081828,0.530133708728847
"1449",33,39,1,1,9,1,1,1,5,0.413005143839451,0.35323731535483
"1450",33,24,1,1,10,1,1,1,5,0.397411291826959,0.372845294049824
"1451",33,30,1,2,11,1,2,1,4,0.408349324675142,0.427422798409913
"1452",33,39,1,2,12,2,2,1,3,0.603131049963991,0.617888956275961
"1453",33,27,1,2,13,2,1,0,3,0.929040541162604,1.06862544065998
"1454",33,26,1,2,14,2,2,1,3,0.49225815792384,0.541652309230528
"1455",33,28,1,1,15,2,2,0,2,0.62371412213334,0.562753097665618
"1456",33,28,1,1,16,3,2,0,2,1.59919308986112,1.70741364142515
"1457",33,23,1,2,17,3,2,1,2,0.956992262074069,0.97164273597305
"1458",33,20,1,1,18,3,1,1,3,0.629024818976091,0.573114548796289
"1459",33,39,1,1,19,2,1,1,3,0.425631084935034,0.424045201508454
"1460",33,24,1,1,20,2,2,0,2,0.614479878409873,0.592024782291467
"1461",33,30,1,2,21,2,2,1,4,0.639657183187489,0.628054022710678
"1462",33,39,1,2,22,3,1,0,2,0.294674591350386,0.333250185209583
"1463",33,27,1,1,23,1,1,1,4,0.254902577951548,0.299796348480143
"1464",33,26,1,2,24,3,1,0,1,0.684675748151994,0.716970448076428
"1465",33,28,1,1,25,1,1,1,4,0.457142297252093,0.481094748909932
"1466",33,28,1,2,26,3,1,0,1,1.10036002375514,1.163628235123
"1467",33,23,1,2,27,2,1,0,2,0.766901199016665,0.7880921518293
"1468",33,20,1,1,28,3,1,1,3,1.01194809551028,1.03773928702381
"1469",33,39,1,1,29,2,1,1,4,0.647886517381621,0.656170890775976
"1470",33,24,1,1,30,1,1,1,5,0.367043546058779,0.366560297432075
"1471",33,30,1,2,31,3,2,1,3,0.523837148560999,0.472621418521134
"1472",33,39,1,2,32,3,2,1,2,0.999651442814619,0.956095965994236
"1473",33,27,1,1,33,2,2,0,3,0.567194620864472,0.65708778199769
"1474",33,26,1,2,34,1,2,1,5,0.278649884788089,0.270068931259902
"1475",33,28,1,1,35,2,1,1,4,0.674562480671737,0.630357559247527
"1476",33,28,1,1,36,2,2,0,3,0.510121235008656,0.484925063756577
"1477",33,23,1,2,37,1,2,1,5,0.495835449720162,0.530693748487802
"1478",33,20,1,1,38,2,2,0,3,0.674277336577287,0.697761744497267
"1479",33,39,1,1,39,2,1,1,3,0.704584263933371,0.699537944575969
"1480",33,24,1,2,40,3,1,0,2,0.967032401362217,0.940438898685029
"1481",33,30,1,1,41,1,2,0,3,0.597980958004714,0.527666658660683
"1482",33,39,1,1,42,1,1,1,4,0.49097446771777,0.47918939738245
"1483",33,27,1,1,43,1,1,1,5,0.460971640902722,0.490560510463163
"1484",33,26,1,2,44,1,2,1,5,0.468242001363164,0.461119673521148
"1485",33,28,1,1,45,3,2,0,1,1.54143485992828,1.5840190036199
"1486",33,28,1,2,46,1,2,1,4,0.398777299028842,0.31884334534436
"1487",33,23,1,2,47,2,1,0,2,0.49156955273965,0.480624620604857
"1488",33,20,1,2,48,1,2,1,5,0.361378869767874,0.455985443020514
"1489",33,39,1,1,49,1,1,1,5,0.39292092719705,0.425444679665552
"1490",33,24,1,2,50,1,1,0,3,0.672081456565006,0.740040799175996
"1491",33,30,1,1,51,2,2,0,2,0.898517889976085,0.878027544862303
"1492",33,39,1,1,52,3,2,0,1,1.01785723503963,1.01427681354275
"1493",33,27,1,1,53,1,1,1,5,0.399102085065749,0.370586243419942
"1494",33,26,1,2,54,3,1,0,2,1.1654317368235,1.1940766526745
"1495",33,28,1,2,55,2,2,1,3,0.675087902379142,0.767788669316915
"1496",33,28,1,1,56,2,1,1,3,0.55827261146542,0.558702025570443
"1497",33,23,1,2,57,2,1,0,3,0.786836799338706,0.837112053633368
"1498",33,20,1,1,58,2,2,0,3,0.546441991128313,0.58193190946667
"1499",33,39,1,1,59,3,2,0,1,0.710387107154669,0.679247026137613
"1500",33,24,1,2,60,2,1,0,3,0.73215217810054,0.630641733846513
"1501",33,30,1,1,61,2,1,1,3,0.339922585360122,0.299914717681981
"1502",33,39,1,2,62,3,2,1,2,0.8131665942524,0.74944180570383
"1503",33,27,1,1,63,3,2,0,1,1.12101913570461,1.14720639299923
"1504",33,26,1,2,64,2,2,1,3,0.645591937260502,0.562217788293446
"1505",33,28,1,2,65,1,2,1,4,0.529566809119113,0.522432426595819
"1506",33,28,1,2,66,2,2,1,3,0.59746616861012,0.602519986040093
"1507",33,23,1,1,67,2,1,1,3,0.68525923963126,0.62265590516743
"1508",33,20,1,1,68,1,1,1,4,0.380876641246709,0.364359425503715
"1509",33,39,1,2,69,3,2,1,2,1.13166627304495,1.08954041162196
"1510",33,24,1,2,70,1,2,1,5,0.44883961638462,0.504119950412321
"1511",33,30,1,1,71,2,1,1,4,0.662412943445667,0.61448462000925
"1512",33,39,1,2,72,1,2,1,4,0.319179731907513,0.239599216627158
"1513",33,27,1,1,73,2,1,1,3,0.783263426881186,0.808813422775784
"1514",33,26,1,1,74,1,2,0,4,0.73584952979103,0.756200444585236
"1515",33,28,1,1,75,1,1,1,4,0.463926725543503,0.555385082951463
"1516",33,28,1,1,76,1,1,1,5,0.376752749366141,0.391300959522742
"1517",33,23,1,2,77,1,2,1,5,0.475545425099945,0.455385047510632
"1518",33,20,1,2,78,3,1,0,1,0.851099786985925,0.903620888118048
"1519",33,39,1,1,79,3,1,1,3,0.586357018848674,0.593580132664142
"1520",33,24,1,2,80,1,2,1,5,0.27700277716985,0.25087931411558
"1521",33,30,1,2,81,2,2,1,3,0.683410760811313,0.601693503886613
"1522",33,39,1,2,82,2,2,1,4,0.67980994534713,0.644828949672337
"1523",33,27,1,2,83,3,1,0,1,0.825609318780461,0.76608957299677
"1524",33,26,1,1,84,1,1,1,4,0.431249851383877,0.438920685871207
"1525",33,28,1,2,85,1,2,1,5,0.246425094803644,0.245650769656062
"1526",33,28,1,1,86,3,1,1,3,1.17525162508077,1.1201431727415
"1527",33,23,1,2,87,1,2,1,5,0.346724700092606,0.36562036835758
"1528",33,20,1,1,88,1,2,0,3,0.850906471153634,0.944790591388683
"1529",33,39,1,2,89,2,1,0,3,0.437948637414969,0.423147801641171
"1530",33,24,1,2,90,2,1,0,2,0.502472628313437,0.495705427312147
"1531",33,30,1,2,91,2,2,1,4,0.463348246351142,0.486256333869396
"1532",33,39,1,1,92,3,2,0,2,1.17980005602699,1.2140765889189
"1533",33,27,1,2,93,3,1,0,1,0.528882955279424,0.545209086609324
"1534",33,26,1,1,94,3,1,1,2,0.65397506812979,0.688829278015422
"1535",33,28,1,2,95,3,1,0,1,1.30940224844696,1.34004041068298
"1536",33,28,1,2,96,1,1,0,4,0.61966111779767,0.580262193179765
"1537",33,23,1,1,97,1,2,0,4,0.510466994984941,0.492516582164689
"1538",33,20,1,2,98,3,2,1,2,1.00112055659177,0.993266617148257
"1539",33,39,1,2,99,3,1,0,1,0.536137391695862,0.536257724785452
"1540",33,24,1,2,100,1,2,1,4,0.398353664449987,0.461593699946323
"1541",33,30,1,2,101,2,2,1,3,0.668470748306152,0.612486291272564
"1542",33,39,1,1,102,3,1,1,3,1.11640569804571,1.1300810538541
"1543",33,27,1,1,103,3,2,0,1,1.20874140504095,1.2562729682395
"1544",33,26,1,1,104,1,1,1,5,0.386094184309653,0.388601720316812
"1545",33,28,1,2,105,2,1,0,2,0.666521862989615,0.727262799814871
"1546",33,28,1,1,106,1,1,1,4,0.414421130284952,0.422311836147886
"1547",33,23,1,2,107,3,2,1,2,0.840495240670868,0.833469365302527
"1548",33,20,1,1,108,2,2,0,2,0.598741879800504,0.549916413585199
"1549",33,39,1,2,109,3,1,0,2,1.04285934303782,0.944920625552571
"1550",33,24,1,1,110,2,2,0,2,0.930987425954782,0.921285754578318
"1551",33,30,1,1,111,3,1,1,2,0.754556434059745,0.800341800378009
"1552",33,39,1,2,112,1,2,1,5,0.342290162854275,0.311624101937498
"1553",33,27,1,1,113,2,1,1,4,0.520263573395818,0.576682192164484
"1554",33,26,1,2,114,2,1,0,2,0.687246427954514,0.747278440567336
"1555",33,28,1,1,115,3,1,1,3,0.868123735361235,0.838870797664629
"1556",33,28,1,2,116,3,1,0,2,1.19187896833893,1.29074596735998
"1557",33,23,1,2,117,3,1,0,1,0.766000419739293,0.787473004604773
"1558",33,20,1,1,118,1,2,0,4,0.449704301134905,0.491614750279105
"1559",33,39,1,1,119,2,1,1,3,0.618634128490603,0.591368958074899
"1560",33,24,1,1,120,1,1,1,5,0.48171828642484,0.596086163136162
"1561",33,30,1,1,121,1,1,1,4,0.40011135941095,0.50046744244508
"1562",33,39,1,2,122,1,1,0,4,0.707337918941106,0.692553963443498
"1563",33,27,1,2,123,2,1,0,2,0.703024218226723,0.740050948948475
"1564",33,26,1,1,124,3,1,1,3,0.844939957731007,0.744497973593594
"1565",33,28,1,1,125,1,2,0,3,0.700425901020485,0.707584476800873
"1566",33,28,1,2,126,3,1,0,1,0.522405793988654,0.529767506339813
"1567",33,23,1,2,127,3,1,0,1,0.818420117631852,0.827881166893166
"1568",33,20,1,1,128,2,1,1,3,0.56690051399224,0.609137650995144
"1569",33,39,1,1,129,2,2,0,2,0.702472775060766,0.727477772619763
"1570",33,24,1,2,130,1,2,1,5,0.291377297580335,0.347611479092481
"1571",33,30,1,1,131,2,1,1,4,0.593856568712124,0.585097865424289
"1572",33,39,1,2,132,1,2,1,4,0.325091565872607,0.354182917851758
"1573",33,27,1,2,133,1,2,1,5,0.41731833531595,0.413158589051665
"1574",33,26,1,2,134,2,2,1,4,0.505193309381631,0.471883460016865
"1575",33,28,1,1,135,2,1,1,4,0.561100485163768,0.574390477830728
"1576",33,28,1,2,136,2,1,0,3,0.494268141188243,0.524076245133105
