"","subj_no","age","group","stim","trial","difficulty","resp","corr","conf","RT_day1","RT_day2"
"1",4,23,2,1,1,1,1,1,5,0.493059492341796,0.475547735689903
"2",4,33,2,2,2,2,2,1,3,0.508186495220846,0.535755839483012
"3",4,32,2,1,3,3,2,0,2,1.09907422160386,1.06980943261466
"4",4,19,2,2,4,2,2,1,4,0.641546990021829,0.614455252508825
"5",4,23,2,2,5,1,2,1,5,0.400291167808732,0.342776904098199
"6",4,36,2,1,6,2,2,0,2,0.78613241756159,0.799686836830033
"7",4,22,2,2,7,1,1,0,3,0.603933555524593,0.680323105680719
"8",4,39,2,2,8,3,2,1,3,0.785700173341339,0.758474364850145
"9",4,24,2,2,9,1,2,1,5,0.518701588664621,0.471551662367027
"10",4,18,2,2,10,1,2,1,4,0.483270925811658,0.565815060600028
"11",4,23,2,1,11,2,1,1,3,0.502232076550323,0.479462612175568
"12",4,33,2,1,12,1,1,1,5,0.450338531020307,0.495084628014577
"13",4,32,2,2,13,1,2,1,4,0.359020147283582,0.34126241273695
"14",4,19,2,2,14,3,1,0,2,1.19019516953236,1.10825239326248
"15",4,23,2,2,15,2,2,1,4,0.41890378592393,0.46510932366848
"16",4,36,2,2,16,3,1,0,1,0.40217651654556,0.416677887256716
"17",4,22,2,2,17,3,2,1,2,0.516735701791263,0.472224283705265
"18",4,39,2,2,18,2,2,1,3,0.605880598077586,0.605278067101887
"19",4,24,2,1,19,2,2,0,2,0.612726290975285,0.645761964854031
"20",4,18,2,1,20,2,2,0,2,0.731863290613291,0.730050483637115
"21",4,23,2,2,21,1,2,1,5,0.357266768919558,0.402677143040663
"22",4,33,2,2,22,2,2,1,4,0.689941719568779,0.689127743730584
"23",4,32,2,1,23,3,1,1,2,0.679002627078985,0.703952020115721
"24",4,19,2,1,24,1,1,1,4,0.308161245582246,0.362486938187832
"25",4,23,2,1,25,3,1,1,3,0.939725964724026,0.889394023844498
"26",4,36,2,2,26,3,1,0,1,1.06892862375964,1.13443435108534
"27",4,22,2,1,27,1,1,1,5,0.50812087801479,0.525405203801369
"28",4,39,2,1,28,3,2,0,2,1.03893272255093,1.07193449888705
"29",4,24,2,1,29,3,1,1,2,1.03496571441792,1.01447318834251
"30",4,18,2,1,30,2,2,0,2,0.510535554006608,0.518075298820716
"31",4,23,2,1,31,2,2,0,3,0.609053735414593,0.612361047851339
"32",4,33,2,2,32,2,1,0,2,0.907089848814579,0.91631113260056
"33",4,32,2,1,33,1,1,1,4,0.434343178888927,0.42828493180325
"34",4,19,2,2,34,2,2,1,4,0.73650864739854,0.690583098879329
"35",4,23,2,1,35,3,1,1,2,0.619684261014196,0.608216187049042
"36",4,36,2,1,36,1,1,1,4,0.384352093136771,0.362150207534625
"37",4,22,2,2,37,1,2,1,4,0.406550540985545,0.446083806516051
"38",4,39,2,2,38,3,1,0,1,1.257440299831,1.28560974379952
"39",4,24,2,1,39,1,1,1,5,0.377676502223165,0.345642201168023
"40",4,18,2,1,40,3,1,1,2,1.16874897815793,1.08813570021719
"41",4,23,2,2,41,3,1,0,1,0.703646653378025,0.79254226445669
"42",4,33,2,2,42,3,2,1,2,0.861390804517252,0.873947466027094
"43",4,32,2,2,43,2,2,1,4,0.4185329734219,0.426641435910263
"44",4,19,2,1,44,3,2,0,1,1.28813364557597,1.29052263939696
"45",4,23,2,1,45,1,1,1,4,0.455189357964039,0.49117586706906
"46",4,36,2,1,46,1,2,0,3,0.547913448000562,0.517991455880471
"47",4,22,2,1,47,2,2,0,3,0.528336240452268,0.543370017244572
"48",4,39,2,1,48,3,1,1,2,0.643372427036263,0.546171637436487
"49",4,24,2,1,49,1,1,1,4,0.418109215522329,0.553100126836385
"50",4,18,2,2,50,2,1,0,3,0.65615891661251,0.593827381444142
"51",4,23,2,1,51,3,2,0,1,1.09691663077072,1.10871382124721
"52",4,33,2,1,52,1,1,1,4,0.468090256828403,0.417881592832251
"53",4,32,2,2,53,1,2,1,4,0.328566681128091,0.278151705185172
"54",4,19,2,1,54,1,1,1,4,0.437113708278437,0.479846358057746
"55",4,23,2,2,55,2,2,1,3,0.447605335198972,0.456786808528096
"56",4,36,2,2,56,2,1,0,3,0.778194950945166,0.775002196748435
"57",4,22,2,2,57,3,1,0,2,0.830127399032492,0.851376625677924
"58",4,39,2,2,58,2,1,0,3,0.85260925265047,0.871892826171425
"59",4,24,2,1,59,2,2,0,3,0.960342209634626,1.04572786888269
"60",4,18,2,2,60,1,2,1,5,0.464468044280097,0.462111073356031
"61",4,23,2,2,61,1,2,1,4,0.416255146370529,0.491790752057711
"62",4,33,2,1,62,3,2,0,2,1.28105690985566,1.40267962257755
"63",4,32,2,2,63,3,2,1,3,0.722821908872166,0.799771257533838
"64",4,19,2,2,64,3,1,0,1,0.735291423560101,0.731788395725015
"65",4,23,2,2,65,1,2,1,4,0.44539641329608,0.39278637733631
"66",4,36,2,1,66,3,2,0,2,1.49065403622773,1.52824036190405
"67",4,22,2,1,67,2,2,0,3,0.764230100880609,0.737758320320551
"68",4,39,2,2,68,3,1,0,1,0.86766375902215,0.824161152111226
"69",4,24,2,1,69,1,1,1,5,0.429500980126736,0.474002356497448
"70",4,18,2,2,70,1,2,1,5,0.426484532949475,0.450504868206811
"71",4,23,2,1,71,3,1,1,2,0.894954516368553,0.880647207955712
"72",4,33,2,1,72,2,1,1,3,0.63655690121233,0.581593670968113
"73",4,32,2,2,73,1,2,1,5,0.297083894226456,0.284307145200347
"74",4,19,2,2,74,2,2,1,3,0.546218983241007,0.632869920221016
"75",4,23,2,2,75,3,2,1,3,0.819553247571662,0.869039909896498
"76",4,36,2,2,76,2,1,0,2,0.788943807953898,0.752178653495422
"77",4,22,2,2,77,3,2,1,3,0.703037688927713,0.733353080149044
"78",4,39,2,1,78,2,1,1,4,0.52959835376312,0.519936395067107
"79",4,24,2,2,79,2,2,1,4,0.607846741046853,0.591287918768435
"80",4,18,2,1,80,2,2,0,3,0.781378016103843,0.865755901989234
"81",4,23,2,2,81,3,2,1,2,0.724598655137244,0.733917709941544
"82",4,33,2,1,82,1,2,0,4,0.63103301945531,0.683101052828216
"83",4,32,2,2,83,3,1,0,1,0.865360702847624,0.910380569224
"84",4,19,2,2,84,2,2,1,4,0.482495276582385,0.551450644660177
"85",4,23,2,2,85,3,2,1,3,1.12069305814603,1.17436823741466
"86",4,36,2,2,86,3,2,1,3,0.652938694292451,0.650113845131499
"87",4,22,2,1,87,1,1,1,5,0.484042217157347,0.465162563824828
"88",4,39,2,1,88,3,2,0,1,0.908912358221723,0.90568291035768
"89",4,24,2,1,89,1,2,0,3,0.705728163059789,0.724118243554525
"90",4,18,2,1,90,2,2,0,2,0.710951708658909,0.674390118568908
"91",4,23,2,2,91,3,1,0,1,0.932880809545341,0.875388490091641
"92",4,33,2,2,92,1,1,0,3,0.585276848155333,0.558684811157375
"93",4,32,2,1,93,2,2,0,2,0.714668769708262,0.674767476042489
"94",4,19,2,2,94,1,2,1,5,0.403236711096532,0.339039822488578
"95",4,23,2,1,95,1,2,0,4,0.570331696743496,0.602659150119209
"96",4,36,2,1,96,3,2,0,1,0.844578118777999,0.752368391982212
"97",4,22,2,2,97,2,2,1,4,0.565102758592696,0.599215439891676
"98",4,39,2,2,98,3,2,1,2,0.874843086470974,0.880617144819152
"99",4,24,2,1,99,3,1,1,2,0.548772813965618,0.580704632201911
"100",4,18,2,1,100,2,1,1,4,0.699597702664625,0.813543791960388
"101",4,23,2,1,101,3,1,1,3,0.86718609042508,0.839713049697442
"102",4,33,2,1,102,1,1,1,5,0.294682939629946,0.308021000343416
"103",4,32,2,1,103,1,1,1,5,0.345670266193498,0.300095513841669
"104",4,19,2,2,104,2,2,1,3,0.541712691398525,0.619083827141649
"105",4,23,2,2,105,1,2,1,4,0.376750108826039,0.320121666120873
"106",4,36,2,2,106,3,1,0,1,1.17092429971094,1.19229189793409
"107",4,22,2,1,107,3,1,1,3,1.14757411676463,1.15663421190547
"108",4,39,2,2,108,1,2,1,5,0.385196545186964,0.320714321282869
"109",4,24,2,1,109,1,1,1,4,0.28686220620728,0.269704694826291
"110",4,18,2,2,110,3,1,0,2,1.55963690048573,1.69419061466013
"111",4,23,2,2,111,2,2,1,3,0.653820757000878,0.639053300445402
"112",4,33,2,2,112,2,2,1,4,0.638170023353393,0.716294849587002
"113",4,32,2,1,113,3,1,1,2,1.05364191418261,1.10979799684351
"114",4,19,2,2,114,1,2,1,5,0.387238811868593,0.490653690331073
"115",4,23,2,2,115,3,2,1,3,0.617048883193952,0.594641363904074
"116",4,36,2,1,116,3,1,1,3,0.559543533429837,0.567529551099347
"117",4,22,2,2,117,3,2,1,3,0.983766266199238,1.06428803434807
"118",4,39,2,2,118,3,2,1,2,0.860155211800376,0.828968350458579
"119",4,24,2,2,119,3,1,0,1,1.50589808549094,1.56514612258111
"120",4,18,2,1,120,1,1,1,4,0.458069088675148,0.460100735635576
"121",4,23,2,1,121,1,1,1,5,0.239333730284652,0.267321375961834
"122",4,33,2,1,122,1,1,1,5,0.397297963946282,0.410944390821146
"123",4,32,2,2,123,2,2,1,4,0.79768253909286,0.829196265520827
"124",4,19,2,2,124,2,2,1,3,0.610136321663396,0.645141791738406
"125",4,23,2,1,125,1,1,1,4,0.307409273798329,0.386683219013625
"126",4,36,2,1,126,1,1,1,4,0.384507844502957,0.400942386559026
"127",4,22,2,1,127,1,1,1,5,0.370614430122024,0.426947933749455
"128",4,39,2,1,128,1,1,1,4,0.394364080818131,0.356913676535832
"129",4,24,2,1,129,1,2,0,4,0.604766476292415,0.529937806121594
"130",4,18,2,1,130,2,1,1,4,0.59038912774789,0.606874276633551
"131",4,23,2,2,131,2,2,1,4,0.85223308966151,0.816317220926838
"132",4,33,2,2,132,1,2,1,5,0.390213910945422,0.435795571344051
"133",4,32,2,2,133,3,1,0,1,1.29815228478199,1.3571613727838
"134",4,19,2,2,134,2,1,0,2,0.53057493107361,0.512756155099744
"135",4,23,2,1,135,2,2,0,2,0.874125817027124,0.876898804488519
"136",4,36,2,1,136,2,1,1,3,0.386792482711055,0.35883330572944
"137",4,22,2,1,137,2,2,0,2,0.623032602634279,0.593079671852248
"138",4,39,2,1,138,2,1,1,3,0.758708099140172,0.740042923466194
"139",4,24,2,2,139,3,2,1,3,1.14952962836823,1.1442880784344
"140",4,18,2,1,140,2,1,1,4,0.590062935863335,0.668573731213185
"141",4,23,2,1,141,1,1,1,5,0.495252592491944,0.508716703079771
"142",4,33,2,1,142,2,2,0,3,0.715584478553918,0.71034941615921
"143",4,32,2,2,143,1,2,1,5,0.369429974078904,0.376416200031324
"144",4,19,2,1,144,3,2,0,2,1.39813959645861,1.44623304995289
"145",4,23,2,1,145,2,1,1,3,0.447783291567479,0.354618229139662
"146",4,36,2,2,146,2,1,0,3,0.650233602403229,0.637136126232852
"147",4,22,2,2,147,2,2,1,4,0.475199493307558,0.570075014442527
"148",4,39,2,1,148,2,1,1,4,0.76675577319161,0.667061499359729
"149",4,24,2,1,149,3,2,0,1,0.523577937100125,0.545596164048284
"150",4,18,2,1,150,1,2,0,3,0.541970467561438,0.524799610155706
"151",4,23,2,1,151,1,1,1,4,0.460824221490738,0.504643637974206
"152",4,33,2,2,152,1,2,1,4,0.213849077507494,0.163274605097888
"153",4,32,2,2,153,2,1,0,3,0.831593535854761,0.917416981357678
"154",4,19,2,1,154,1,1,1,4,0.349045668366253,0.375195807817573
"155",4,23,2,1,155,3,2,0,1,1.3614341032861,1.35522859151416
"156",4,36,2,1,156,3,2,0,1,1.10250397389565,1.02394246185246
"157",4,22,2,2,157,1,2,1,5,0.415918627297235,0.404265321714116
"158",4,39,2,1,158,1,1,1,5,0.304437367326916,0.201320719277704
"159",4,24,2,1,159,1,2,0,4,0.550279133423089,0.578617204924235
"160",4,18,2,1,160,3,1,1,3,0.854822184929961,0.805168102766946
"161",4,23,2,2,161,3,1,0,2,0.952624102216871,1.009334777686
"162",4,33,2,1,162,3,1,1,3,0.557981880620452,0.515295058396551
"163",4,32,2,2,163,2,2,1,3,0.717222128923915,0.707933914411875
"164",4,19,2,1,164,3,1,1,3,0.754836707422732,0.770024425033121
"165",4,23,2,1,165,2,1,1,3,0.498871923634617,0.457535834623652
"166",4,36,2,1,166,2,2,0,2,0.647271346276361,0.65765553692039
"167",4,22,2,1,167,1,2,0,4,0.59609684253768,0.680096585614981
"168",4,39,2,2,168,3,1,0,2,1.38230221290322,1.43143770423359
"169",4,24,2,1,169,1,2,0,4,0.347842578316282,0.377962787048358
"170",4,18,2,2,170,2,2,1,3,0.650394741828384,0.634490299109595
"171",4,23,2,2,171,2,2,1,4,0.485367687439109,0.539641262345116
"172",4,33,2,1,172,2,1,1,3,0.429744712048388,0.494404897669325
"173",4,32,2,1,173,1,1,1,4,0.375100614317169,0.359338870472633
"174",4,19,2,2,174,3,1,0,2,0.843628255241617,0.797575590267916
"175",4,23,2,2,175,2,2,1,3,0.567650765860671,0.557426567496581
"176",4,36,2,2,176,2,2,1,4,0.654943341927571,0.667315897496758
"177",4,22,2,2,177,3,1,0,1,1.00286537899472,1.00913879550729
"178",4,39,2,2,178,2,2,1,3,0.574906914413448,0.516636947157659
"179",4,24,2,1,179,2,2,0,2,0.907675004352652,0.852745354425477
"180",4,18,2,1,180,3,2,0,1,1.4883739070058,1.42725854119703
"181",4,23,2,2,181,2,1,0,3,0.883512018150736,0.888668469636206
"182",4,33,2,1,182,1,1,1,4,0.515641589940911,0.521599422477588
"183",4,32,2,1,183,1,1,1,4,0.28469303352535,0.286517394348375
"184",4,19,2,2,184,2,1,0,2,0.923966244228594,0.916414485818079
"185",4,23,2,1,185,1,1,1,4,0.366075842570725,0.304708852219068
"186",4,36,2,1,186,2,1,1,4,0.703228540750736,0.749992128304195
"187",4,22,2,2,187,1,2,1,4,0.443548097954318,0.502437463846129
"188",4,39,2,1,188,3,2,0,2,0.829880278542415,0.78872689721609
"189",4,24,2,2,189,2,1,0,2,0.799775082861504,0.816089644980583
"190",4,18,2,2,190,1,2,1,4,0.312969362565482,0.33639075472388
"191",4,23,2,1,191,3,1,1,2,0.994920620855312,1.07846198627766
"192",4,33,2,1,192,2,1,1,3,0.504846443673416,0.571209056849611
"193",4,32,2,2,193,2,1,0,3,0.698053277710992,0.65796091086242
"194",4,19,2,1,194,1,1,1,4,0.450413252384449,0.471919254442002
"195",4,23,2,2,195,2,1,0,2,0.310345168315838,0.356206091310836
"196",4,36,2,2,196,3,2,1,2,0.916612036141817,0.91731020521011
"197",4,22,2,1,197,3,2,0,2,1.00235323206018,0.863192055509001
"198",4,39,2,2,198,2,2,1,4,0.432925960737887,0.334939527245175
"199",4,24,2,2,199,1,1,0,3,0.619433697011807,0.627180236736799
"200",4,18,2,2,200,1,2,1,5,0.321810165369894,0.372457197373907
"201",4,23,2,1,201,1,1,1,4,0.578628948279867,0.6272990946782
"202",4,33,2,1,202,3,1,1,2,0.775739986774015,0.792915109922757
"203",4,32,2,2,203,3,1,0,2,1.3300089858608,1.29349060686272
"204",4,19,2,1,204,1,1,1,4,0.38786463887778,0.351229526193975
"205",4,23,2,2,205,3,1,0,1,0.509437590212385,0.508787689664129
"206",4,36,2,2,206,3,2,1,2,0.463694476174856,0.411536110409532
"207",4,22,2,2,207,1,2,1,5,0.420133826690357,0.394706992558243
"208",4,39,2,2,208,3,2,1,2,1.2343202304516,1.22284715414114
"209",4,24,2,1,209,1,1,1,4,0.439416398190795,0.387493826929434
"210",4,18,2,1,210,3,2,0,1,1.35075300227871,1.36490174366025
"211",4,23,2,2,211,3,1,0,2,0.793405861664403,0.843905566208711
"212",4,33,2,2,212,1,2,1,4,0.570481720520781,0.600431530830746
"213",4,32,2,1,213,2,1,1,4,0.481935190560069,0.514591845521256
"214",4,19,2,1,214,2,2,0,3,0.629674273988714,0.611234641889552
"215",4,23,2,2,215,1,2,1,4,0.465489363943663,0.442977943936098
"216",4,36,2,2,216,1,2,1,5,0.432093872610027,0.466805062109156
"217",4,22,2,1,217,3,1,1,2,0.572176251450721,0.607703732410595
"218",4,39,2,2,218,3,1,0,1,0.823789831016542,0.816968614085588
"219",4,24,2,2,219,1,2,1,5,0.571843884147531,0.595095744144473
"220",4,18,2,2,220,2,2,1,4,0.793845683425315,0.812921087532356
"221",4,23,2,1,221,1,1,1,5,0.428958756304172,0.369464245612381
"222",4,33,2,2,222,2,1,0,2,0.721860054653853,0.728731164183817
"223",4,32,2,1,223,3,1,1,2,0.829366249708231,0.76585982142467
"224",4,19,2,2,224,3,2,1,2,0.784356253331482,0.776477777366933
"225",4,23,2,2,225,2,2,1,4,0.463574099544235,0.422856347624474
"226",4,36,2,1,226,2,2,0,2,0.717838118421432,0.660965216280324
"227",4,22,2,1,227,1,1,1,5,0.403255124031344,0.450594054775468
"228",4,39,2,1,228,1,1,1,5,0.332265875385501,0.342479125889202
"229",4,24,2,2,229,3,1,0,1,0.97784019499481,0.885993236794069
"230",4,18,2,2,230,2,2,1,4,0.536221710973099,0.562789611709342
"231",4,23,2,2,231,1,1,0,4,0.59797009856196,0.604439382017763
"232",4,33,2,1,232,3,1,1,2,0.536455273248092,0.559248774250867
"233",4,32,2,1,233,1,1,1,5,0.441928159530741,0.441471232016175
"234",4,19,2,1,234,3,2,0,1,1.12184352326999,1.15414414155687
"235",4,23,2,1,235,3,2,0,1,0.760702645197494,0.700983655165556
"236",4,36,2,2,236,2,1,0,2,0.808364942285382,0.769112206656813
"237",4,22,2,2,237,2,2,1,3,0.624703279889963,0.662791426762995
"238",4,39,2,1,238,2,2,0,2,0.676383215680137,0.677081983682956
"239",4,24,2,2,239,2,1,0,2,0.845335145131511,0.870283634951325
"240",4,18,2,2,240,3,2,1,3,1.09082847278444,1.00414714993908
"241",3,32,1,2,1,1,2,1,4,0.342558966151848,0.312363450087014
"242",3,26,1,2,2,2,1,0,2,1.03855331857995,1.10379387487088
"243",3,23,1,2,3,3,2,1,2,0.733121448622747,0.841750438783056
"244",3,28,1,1,4,3,1,1,3,0.857857171963613,0.869086127935827
"245",3,36,1,1,5,3,2,0,2,1.35506722910056,1.40067812086634
"246",3,30,1,1,6,3,2,0,1,1.13761797054414,1.10820612807686
"247",3,34,1,2,7,2,2,1,4,0.520482237580037,0.441771061911938
"248",3,25,1,2,8,2,2,1,3,0.779047567180796,0.823526698990733
"249",3,36,1,1,9,1,1,1,4,0.488848012361237,0.499023012983835
"250",3,36,1,2,10,2,1,0,3,0.527954196284212,0.533907984259772
"251",3,32,1,2,11,1,2,1,5,0.287084887475486,0.211232892045638
"252",3,26,1,2,12,1,2,1,5,0.518676098970211,0.427845198369344
"253",3,23,1,2,13,3,1,0,2,0.872160098013974,0.946263343674727
"254",3,28,1,1,14,1,1,1,4,0.301707956624345,0.327113335401165
"255",3,36,1,1,15,3,1,1,2,1.09507085507465,1.12314549325953
"256",3,30,1,2,16,2,2,1,3,0.445587858262692,0.46144605698835
"257",3,34,1,1,17,3,2,0,2,1.44942523819206,1.42743661504844
"258",3,25,1,1,18,2,2,0,2,0.696058063784727,0.749509851749257
"259",3,36,1,1,19,3,1,1,2,1.062568526486,1.03963839056328
"260",3,36,1,2,20,3,2,1,2,0.696600831997187,0.710404642938316
"261",3,32,1,1,21,3,2,0,1,0.815638037695072,0.752796715192608
"262",3,26,1,2,22,1,2,1,4,0.486975704460307,0.491449755548595
"263",3,23,1,1,23,1,1,1,4,0.469068891945899,0.427902445162226
"264",3,28,1,2,24,2,2,1,4,0.708913062135858,0.780456350422954
"265",3,36,1,2,25,1,2,1,4,0.5644399352517,0.580686344838376
"266",3,30,1,2,26,1,2,1,4,0.259410134491047,0.219662746088071
"267",3,34,1,2,27,2,1,0,3,0.682398249245773,0.610816109876611
"268",3,25,1,1,28,3,1,1,2,0.929027743693385,0.876897150228444
"269",3,36,1,1,29,3,2,0,2,1.25695572462372,1.28960939954184
"270",3,36,1,1,30,2,2,0,2,0.454359761456062,0.485378506799102
"271",3,32,1,2,31,1,2,1,4,0.467781703276702,0.473898954550444
"272",3,26,1,1,32,2,1,1,3,0.469972511441298,0.444003405469066
"273",3,23,1,2,33,2,1,0,2,0.684119628518303,0.735661349207784
"274",3,28,1,2,34,1,1,0,4,0.704346620465226,0.702491318116631
"275",3,36,1,1,35,3,1,1,3,1.04903070508362,1.06428571781062
"276",3,30,1,1,36,2,2,0,3,0.792837389866524,0.830873058560802
"277",3,34,1,2,37,1,1,0,4,0.631451028445914,0.537793525062936
"278",3,25,1,2,38,1,2,1,4,0.534991508505425,0.435496281404505
"279",3,36,1,2,39,2,1,0,3,0.667250836135581,0.656520559706276
"280",3,36,1,1,40,3,1,1,3,0.617608935491446,0.613313163610767
"281",3,32,1,2,41,2,2,1,4,0.547688973590983,0.549317273527866
"282",3,26,1,1,42,2,2,0,3,0.84032924915304,0.985742041445044
"283",3,23,1,2,43,3,2,1,2,0.591173426622665,0.587616004057483
"284",3,28,1,2,44,3,1,0,1,1.36716374293745,1.38616117244945
"285",3,36,1,2,45,2,2,1,3,0.745375539172682,0.801799193612238
"286",3,30,1,2,46,3,2,1,2,0.688851490681365,0.840478646433994
"287",3,34,1,2,47,1,2,1,5,0.426863379506846,0.444725019984955
"288",3,25,1,1,48,1,1,1,5,0.476407732386773,0.445305421712444
"289",3,36,1,1,49,2,2,0,2,0.704162074221743,0.705292912407448
"290",3,36,1,1,50,1,1,1,4,0.38160634071562,0.444284554087223
"291",3,32,1,1,51,1,1,1,4,0.503442391707304,0.444446101000893
"292",3,26,1,1,52,1,2,0,3,0.50969350039678,0.451681025026093
"293",3,23,1,2,53,3,2,1,3,1.09607225663796,1.06932398407913
"294",3,28,1,1,54,1,1,1,5,0.389225645810161,0.448999830497416
"295",3,36,1,1,55,1,1,1,5,0.391669994443768,0.409653486826596
"296",3,30,1,2,56,3,2,1,3,0.82868349774869,0.761899763375864
"297",3,34,1,2,57,1,2,1,4,0.275047066123672,0.297907111386962
"298",3,25,1,1,58,2,1,1,4,0.42178633769301,0.366424829163625
"299",3,36,1,1,59,3,1,1,3,0.629291145886046,0.685700193632103
"300",3,36,1,2,60,3,2,1,3,0.475110028944023,0.433854870721542
"301",3,32,1,1,61,3,2,0,1,2.06703076429072,1.98767071084859
"302",3,26,1,2,62,1,2,1,5,0.462287180896891,0.40119831684925
"303",3,23,1,2,63,3,2,1,3,1.03295355777394,1.03540045465707
"304",3,28,1,1,64,1,1,1,4,0.417878752807232,0.422732244807211
"305",3,36,1,1,65,2,2,0,3,0.503758534086851,0.567944075021173
"306",3,30,1,2,66,2,1,0,2,0.738549334528011,0.726142354819769
"307",3,34,1,1,67,3,1,1,3,0.806815277556054,0.814693278696134
"308",3,25,1,2,68,2,2,1,3,0.624556504287791,0.696473013976809
"309",3,36,1,2,69,3,2,1,3,0.886127473145335,0.926518292334256
"310",3,36,1,2,70,1,1,0,3,0.509261812448659,0.476707660425899
"311",3,32,1,1,71,3,1,1,2,0.53135017860079,0.44845328393426
"312",3,26,1,1,72,2,1,1,3,0.751989628415194,0.707089863253726
"313",3,23,1,1,73,3,2,0,1,0.566894104785652,0.604844622202004
"314",3,28,1,2,74,2,2,1,4,0.595778776767359,0.545178643651397
"315",3,36,1,1,75,3,1,1,2,0.429223324844826,0.43048634213678
"316",3,30,1,1,76,2,1,1,3,0.570911690300744,0.614646017570746
"317",3,34,1,1,77,2,1,1,4,0.291541508178325,0.293240212600808
"318",3,25,1,1,78,2,1,1,4,0.486230347968484,0.482676024054542
"319",3,36,1,2,79,2,1,0,3,0.670931763040104,0.652454671011302
"320",3,36,1,1,80,1,2,0,4,0.69658440541639,0.657992290379827
"321",3,32,1,1,81,1,2,0,3,0.483632243354106,0.488188976688986
"322",3,26,1,2,82,1,1,0,3,0.506751213359824,0.4529422226845
"323",3,23,1,2,83,3,2,1,2,0.79998467770865,0.748936503034752
"324",3,28,1,2,84,1,2,1,4,0.340115795791694,0.383331701870618
"325",3,36,1,1,85,2,1,1,3,0.735090451839152,0.701264015165724
"326",3,30,1,1,86,3,2,0,2,1.27186497709173,1.29043924741359
"327",3,34,1,2,87,2,2,1,3,0.595226681993616,0.55570619108829
"328",3,25,1,2,88,2,2,1,4,0.620625786989515,0.728433300477712
"329",3,36,1,2,89,2,1,0,2,0.782869533575696,0.836676501047028
"330",3,36,1,1,90,3,2,0,2,1.38501331684497,1.39718653644584
"331",3,32,1,2,91,2,1,0,2,0.711379471535729,0.801323482228249
"332",3,26,1,2,92,1,1,0,3,0.586294063219064,0.560419712307011
"333",3,23,1,2,93,3,1,0,1,0.669278942583654,0.742121977781262
"334",3,28,1,1,94,2,2,0,3,0.785767447390571,0.686268000405593
"335",3,36,1,1,95,1,1,1,5,0.634815608373277,0.641305769484868
"336",3,30,1,2,96,3,1,0,1,1.31194744984607,1.35042651480331
"337",3,34,1,1,97,1,1,1,5,0.304998533924686,0.332357055639705
"338",3,25,1,2,98,2,1,0,2,0.851621501629479,0.797478357564446
"339",3,36,1,1,99,2,1,1,3,0.737460352862493,0.717498652458379
"340",3,36,1,1,100,2,1,1,3,0.545598924750196,0.599358401896361
"341",3,32,1,2,101,1,2,1,5,0.395204738584743,0.419905790090985
"342",3,26,1,1,102,3,2,0,1,0.928177811766037,0.934681346697007
"343",3,23,1,2,103,3,2,1,3,1.07851948451194,1.10361402608394
"344",3,28,1,2,104,1,2,1,5,0.516962063389389,0.473848661818492
"345",3,36,1,2,105,3,2,1,2,0.923673975875154,0.831869181130953
"346",3,30,1,1,106,1,2,0,4,0.359073778051616,0.347086389344601
"347",3,34,1,1,107,2,2,0,3,0.7079244332782,0.784022335010884
"348",3,25,1,2,108,3,1,0,2,0.669579024961309,0.675239519833195
"349",3,36,1,1,109,1,1,1,4,0.4652730382328,0.408548760474212
"350",3,36,1,1,110,3,1,1,2,0.781482053396421,0.773390073142212
"351",3,32,1,2,111,2,1,0,2,0.445025574994135,0.468130347046067
"352",3,26,1,2,112,2,1,0,3,0.846577708522646,0.854106255134162
"353",3,23,1,2,113,3,1,0,2,0.418926658384644,0.432923427261284
"354",3,28,1,1,114,3,1,1,3,1.02094526056836,0.956060633688922
"355",3,36,1,2,115,1,2,1,4,0.423079528755201,0.367109939166378
"356",3,30,1,1,116,1,2,0,3,0.619435322336823,0.558022291085746
"357",3,34,1,1,117,2,2,0,2,0.621638476167667,0.656301869947322
"358",3,25,1,2,118,2,2,1,4,0.596424437911184,0.504477319710139
"359",3,36,1,1,119,3,2,0,1,1.80288703887146,1.68959555202057
"360",3,36,1,1,120,3,2,0,1,1.56355427018191,1.53353150935908
"361",3,32,1,1,121,1,1,1,4,0.482878314204285,0.446038643493201
"362",3,26,1,1,122,2,1,1,3,0.48102843775194,0.484453914236772
"363",3,23,1,2,123,3,1,0,2,0.473729585851522,0.476519586981349
"364",3,28,1,1,124,3,2,0,1,1.07577184107908,1.06707656242196
"365",3,36,1,1,125,1,1,1,4,0.409572742544109,0.45525617856109
"366",3,30,1,2,126,2,2,1,4,0.447938313641145,0.411876774695647
"367",3,34,1,1,127,1,1,1,5,0.440991468049238,0.451879697084823
"368",3,25,1,1,128,1,1,1,5,0.531731092114965,0.475759852842408
"369",3,36,1,1,129,2,1,1,3,0.558292854947462,0.524123097419376
"370",3,36,1,1,130,2,1,1,4,0.552024435032093,0.595613256488116
"371",3,32,1,2,131,1,1,0,4,0.454664184938217,0.381946488558268
"372",3,26,1,1,132,2,1,1,3,0.732621742436412,0.663004734079737
"373",3,23,1,2,133,2,2,1,3,0.458669296735032,0.458572875105977
"374",3,28,1,1,134,3,1,1,2,1.00507042376977,0.988685768153832
"375",3,36,1,2,135,2,2,1,4,0.562588532895639,0.527269303758668
"376",3,30,1,2,136,3,2,1,3,1.08595175489465,1.10588621560896
"377",3,34,1,2,137,1,1,0,4,0.477509383024489,0.536537429691857
"378",3,25,1,1,138,2,1,1,3,0.78031135947639,0.79449982310889
"379",3,36,1,2,139,3,2,1,2,0.882901778603819,0.905500324397057
"380",3,36,1,1,140,1,1,1,5,0.334824269913553,0.354884518594897
"381",3,32,1,1,141,3,2,0,1,0.585796697013968,0.619639590324885
"382",3,26,1,2,142,1,1,0,3,0.507533285909425,0.5271288604828
"383",3,23,1,2,143,3,1,0,2,0.772078638840884,0.718911605407514
"384",3,28,1,1,144,1,1,1,5,0.43610554034965,0.34447782314449
"385",3,36,1,2,145,1,1,0,4,0.368729246007923,0.397113681170391
"386",3,30,1,2,146,1,2,1,4,0.366884729395447,0.514744307302879
"387",3,34,1,1,147,3,1,1,2,0.563188632471559,0.558742663776662
"388",3,25,1,2,148,3,1,0,1,1.17551292104403,1.21792789228653
"389",3,36,1,2,149,2,1,0,2,0.665993286127068,0.698566400635595
"390",3,36,1,1,150,2,2,0,3,0.663540402150435,0.595714065304706
"391",3,32,1,2,151,1,1,0,3,0.53945252337654,0.522532949697234
"392",3,26,1,1,152,2,1,1,3,0.528427529433157,0.461110916744679
"393",3,23,1,1,153,3,1,1,3,0.891470313838309,0.94996900712619
"394",3,28,1,2,154,3,1,0,1,0.53455020468223,0.457994553833844
"395",3,36,1,2,155,2,1,0,3,0.710109323541244,0.741494691972836
"396",3,30,1,2,156,2,2,1,3,0.863817625901718,0.909834898315706
"397",3,34,1,1,157,2,2,0,2,0.687867203507273,0.759911062462794
"398",3,25,1,1,158,1,2,0,3,0.486437191550637,0.413355599428384
"399",3,36,1,2,159,2,1,0,3,0.85655877132114,0.797483809727352
"400",3,36,1,2,160,3,1,0,1,0.71769976025106,0.685251753501755
"401",3,32,1,2,161,2,2,1,4,0.311531622600321,0.384707240898227
"402",3,26,1,1,162,2,1,1,4,0.709245144564774,0.7358634326106
"403",3,23,1,1,163,2,1,1,3,0.683069401392471,0.689280190033161
"404",3,28,1,1,164,1,1,1,5,0.365277205193478,0.35751283546987
"405",3,36,1,1,165,2,2,0,3,0.725291621779225,0.729964858612396
"406",3,30,1,2,166,1,2,1,5,0.317891229729444,0.21607680126044
"407",3,34,1,2,167,3,2,1,3,0.93275773660219,0.908144340105676
"408",3,25,1,1,168,1,1,1,5,0.428393731157924,0.428604470224303
"409",3,36,1,2,169,2,1,0,3,0.264781522511148,0.296753973784421
"410",3,36,1,1,170,3,1,1,2,0.80667875647458,0.722156477389396
"411",3,32,1,2,171,1,2,1,5,0.292346693119089,0.201147602160638
"412",3,26,1,2,172,3,2,1,3,0.879211311993433,0.783512228114612
"413",3,23,1,1,173,3,1,1,3,0.718285123160695,0.789021445078253
"414",3,28,1,2,174,1,2,1,4,0.34827055128465,0.252370254703732
"415",3,36,1,1,175,1,2,0,3,0.588298808707156,0.649476263486286
"416",3,30,1,2,176,2,1,0,2,0.670101385002213,0.609678040718258
"417",3,34,1,2,177,2,2,1,3,0.550588725061943,0.665730406719909
"418",3,25,1,2,178,1,1,0,4,0.55824557412623,0.526385787995909
"419",3,36,1,1,179,1,2,0,4,0.395548877974817,0.388331415936929
"420",3,36,1,1,180,3,2,0,2,0.973914325057052,1.01645210739952
"421",3,32,1,1,181,3,2,0,1,0.859460526993499,0.792845734387196
"422",3,26,1,2,182,3,2,1,2,0.580559851279638,0.542882821938362
"423",3,23,1,1,183,3,1,1,2,0.5398783245284,0.54909158848838
"424",3,28,1,2,184,3,2,1,2,0.552873142978811,0.554446586990401
"425",3,36,1,1,185,2,2,0,2,0.700456550779443,0.737590655364313
"426",3,30,1,2,186,2,2,1,4,0.444630136176748,0.523457769314943
"427",3,34,1,2,187,1,2,1,5,0.454247826205219,0.398956997364204
"428",3,25,1,1,188,3,1,1,3,0.827839705921283,0.793049144575521
"429",3,36,1,2,189,3,2,1,2,0.700882232435515,0.613549440354563
"430",3,36,1,2,190,1,1,0,4,0.455961362172573,0.432131422853004
"431",3,32,1,2,191,2,2,1,4,0.517319360778407,0.506094806976948
"432",3,26,1,1,192,2,1,1,3,0.592035558135331,0.51960219717732
"433",3,23,1,2,193,3,1,0,1,1.13696743784268,1.08601061836526
"434",3,28,1,1,194,2,2,0,3,0.516909706936376,0.448937373193025
"435",3,36,1,1,195,1,1,1,5,0.357879090940351,0.293094244128221
"436",3,30,1,1,196,1,2,0,4,0.62642039015215,0.596822395733748
"437",3,34,1,2,197,3,2,1,3,0.90485939312383,0.845785517123619
"438",3,25,1,1,198,1,1,1,5,0.540119156440242,0.527051247671537
"439",3,36,1,2,199,1,2,1,4,0.245005984503773,0.199209037740729
"440",3,36,1,1,200,1,1,1,4,0.276808287725847,0.326852075648471
"441",3,32,1,2,201,2,2,1,4,0.597808234180325,0.691794558387381
"442",3,26,1,2,202,1,2,1,4,0.321316013809068,0.343309823775258
"443",3,23,1,1,203,1,1,1,5,0.331948041409665,0.374077009828849
"444",3,28,1,1,204,1,2,0,4,0.503664568817103,0.550474348240847
"445",3,36,1,1,205,1,1,1,5,0.442090880390911,0.418817496144346
"446",3,30,1,1,206,2,1,1,4,0.682010567481121,0.693867563135313
"447",3,34,1,1,207,1,2,0,4,0.506119865230355,0.514863490057099
"448",3,25,1,2,208,2,1,0,2,0.666073141308604,0.592884248989564
"449",3,36,1,1,209,3,2,0,1,1.08875213518865,1.13910145126248
"450",3,36,1,1,210,2,2,0,3,0.507778775788525,0.524049545826903
"451",3,32,1,1,211,3,2,0,1,0.590424513483696,0.622955333273962
"452",3,26,1,1,212,2,1,1,4,0.646313894307305,0.597670698021818
"453",3,23,1,1,213,2,1,1,3,0.627504726314497,0.606826280595202
"454",3,28,1,2,214,1,2,1,4,0.388560812475813,0.302297374918047
"455",3,36,1,2,215,2,1,0,2,0.403563567965667,0.470348790859339
"456",3,30,1,2,216,2,1,0,3,0.682343183742098,0.687647247678503
"457",3,34,1,1,217,1,1,1,5,0.289815964104586,0.250359683454757
"458",3,25,1,2,218,1,1,0,4,0.615076163986245,0.588431762422474
"459",3,36,1,2,219,3,2,1,2,1.12051067772154,1.18480600467171
"460",3,36,1,1,220,1,2,0,3,0.353773023075873,0.426337872804547
"461",3,32,1,1,221,3,2,0,1,1.19154525548747,1.1775289706686
"462",3,26,1,2,222,3,2,1,3,0.759110760593931,0.814857743153912
"463",3,23,1,2,223,3,1,0,1,0.380497862398197,0.404233957600715
"464",3,28,1,2,224,1,2,1,5,0.461205820647775,0.418263100338732
"465",3,36,1,2,225,3,1,0,2,0.430794058322908,0.497246331227335
"466",3,30,1,1,226,3,1,1,2,0.755532423155396,0.758859144411119
"467",3,34,1,1,227,2,1,1,4,0.497405794795563,0.490430252502237
"468",3,25,1,2,228,3,2,1,2,0.965800959618994,0.932521603171582
"469",3,36,1,2,229,1,1,0,3,0.617064007596749,0.655936195174284
"470",3,36,1,1,230,2,1,1,4,0.67076951578368,0.726833048710899
"471",3,32,1,1,231,1,1,1,4,0.302947643190785,0.310625778024865
"472",3,26,1,2,232,3,1,0,1,0.735140895249913,0.645413334162079
"473",3,23,1,1,233,1,1,1,5,0.364981330194427,0.431890462919466
"474",3,28,1,1,234,2,2,0,3,0.6299139508236,0.565187946658337
"475",3,36,1,2,235,3,1,0,1,0.938431072629766,1.0478614772901
"476",3,30,1,2,236,1,1,0,3,0.732848390096784,0.688143974811361
"477",3,34,1,2,237,1,2,1,5,0.302639527116442,0.31338108019718
"478",3,25,1,2,238,2,1,0,3,0.602106107788471,0.547559997918437
"479",3,36,1,1,239,3,2,0,2,1.35313332443208,1.34167880970986
"480",3,36,1,1,240,3,2,0,2,0.848766869291996,0.854678935538838
"481",2,29,2,2,1,1,2,1,4,0.307825927612126,0.349340877046093
"482",2,30,2,1,2,1,2,0,3,0.638524137129286,0.640064306619794
"483",2,23,2,2,3,3,2,1,3,1.07345366951871,1.1607775844035
"484",2,31,2,2,4,2,2,1,3,0.537210743716399,0.527334659589053
"485",2,24,2,1,5,1,2,0,3,0.645352464967526,0.64967696406535
"486",2,19,2,1,6,3,1,1,3,1.30700477109985,1.30640766913641
"487",2,18,2,2,7,3,2,1,3,0.572668639902578,0.508447536431238
"488",2,30,2,1,8,3,2,0,1,0.228672568487545,0.134365594195329
"489",2,36,2,2,9,2,2,1,4,0.777981382513584,0.712205943137448
"490",2,24,2,2,10,2,2,1,4,0.514455884995571,0.568445503461315
"491",2,29,2,2,11,2,2,1,4,0.531258212599121,0.523759598640115
"492",2,30,2,2,12,1,2,1,5,0.360424666863812,0.320472550470237
"493",2,23,2,1,13,1,2,0,3,0.525798049800293,0.488189849131512
"494",2,31,2,1,14,2,1,1,3,0.615512285831575,0.623636771484178
"495",2,24,2,1,15,2,1,1,4,0.406023050930838,0.405171295551132
"496",2,19,2,2,16,1,2,1,5,0.436885038776161,0.386547430295274
"497",2,18,2,1,17,3,1,1,3,0.522673988933901,0.45073751235809
"498",2,30,2,2,18,1,2,1,5,0.32972485705909,0.334149761452721
"499",2,36,2,2,19,1,2,1,5,0.368929790996315,0.343828128226858
"500",2,24,2,2,20,2,2,1,4,0.813888926193426,0.78494552408526
"501",2,29,2,2,21,3,1,0,1,0.91157682288672,0.888832163763314
"502",2,30,2,2,22,2,2,1,4,0.683550483740515,0.699743669392543
"503",2,23,2,2,23,2,2,1,3,0.68513453728084,0.68245899836134
"504",2,31,2,1,24,3,1,1,2,1.44148296837781,1.48618389310393
"505",2,24,2,2,25,3,2,1,3,0.680704671661052,0.64199354421007
"506",2,19,2,2,26,3,1,0,2,1.14451401283544,1.18741220476666
"507",2,18,2,2,27,1,1,0,3,0.495237989018769,0.465558608764788
"508",2,30,2,2,28,3,2,1,3,0.95557201307114,0.939184618148721
"509",2,36,2,2,29,3,2,1,3,0.564586089827822,0.541836118101714
"510",2,24,2,1,30,3,1,1,3,0.843348160423081,0.781709431481319
"511",2,29,2,2,31,1,2,1,5,0.370826243500393,0.367181874214971
"512",2,30,2,2,32,1,2,1,5,0.45481200750584,0.419791237345818
"513",2,23,2,1,33,1,1,1,5,0.553608851713855,0.55680947384587
"514",2,31,2,2,34,3,2,1,2,0.689124575233709,0.675312092052574
"515",2,24,2,1,35,1,2,0,4,0.638007330680735,0.662299095504475
"516",2,19,2,2,36,3,1,0,2,1.55474729107777,1.65650417356353
"517",2,18,2,2,37,2,2,1,3,0.614461797137802,0.594200182457867
"518",2,30,2,1,38,1,1,1,5,0.505708994283195,0.566386766828385
"519",2,36,2,2,39,2,2,1,3,0.568729281740675,0.609941013425346
"520",2,24,2,2,40,3,1,0,2,1.28249562000125,1.3322211504362
"521",2,29,2,2,41,1,2,1,4,0.314371230729743,0.301623837977644
"522",2,30,2,1,42,1,2,0,3,0.455275579016058,0.405385423086034
"523",2,23,2,2,43,1,1,0,3,0.325485692952192,0.261589686099266
"524",2,31,2,1,44,3,2,0,2,0.393484765607332,0.38486291940542
"525",2,24,2,1,45,1,1,1,4,0.439793207211534,0.382640881281721
"526",2,19,2,1,46,2,2,0,3,0.456440543717022,0.493148224168743
"527",2,18,2,1,47,3,1,1,3,0.526277844615532,0.594652155309704
"528",2,30,2,1,48,1,1,1,4,0.415505401021585,0.460434007857479
"529",2,36,2,1,49,1,1,1,4,0.329274452908705,0.381543842474349
"530",2,24,2,2,50,2,2,1,3,0.596614926296987,0.675373121539945
"531",2,29,2,1,51,2,2,0,2,0.717797939144096,0.769758107019447
"532",2,30,2,1,52,1,1,1,5,0.458422853901484,0.511937470463266
"533",2,23,2,1,53,1,1,1,5,0.525080566713531,0.485920360894946
"534",2,31,2,1,54,3,2,0,1,0.670950586110419,0.699483542331368
"535",2,24,2,2,55,2,2,1,3,0.62906684780995,0.587418244834197
"536",2,19,2,2,56,3,1,0,2,0.825981060604639,0.812430928310081
"537",2,18,2,2,57,1,1,0,4,0.377579340082498,0.415969967462555
"538",2,30,2,1,58,1,1,1,5,0.499774989321276,0.459525558292011
"539",2,36,2,1,59,2,2,0,2,0.693461587934904,0.771341774733281
"540",2,24,2,1,60,2,1,1,4,0.739335128812696,0.700263056606413
"541",2,29,2,1,61,1,2,0,3,0.404456359725126,0.485003149967597
"542",2,30,2,1,62,2,1,1,3,0.747215687587336,0.809281434784973
"543",2,23,2,1,63,3,1,1,2,0.604882263974048,0.65014192252317
"544",2,31,2,1,64,3,2,0,2,1.46969704814762,1.47696676159076
"545",2,24,2,1,65,2,2,0,3,0.805387342448435,0.774964571364865
"546",2,19,2,1,66,1,1,1,5,0.52577863930292,0.475548265202021
"547",2,18,2,1,67,2,2,0,3,0.773596653117871,0.786146471464631
"548",2,30,2,1,68,1,1,1,5,0.471104276075072,0.367710150675185
"549",2,36,2,2,69,2,2,1,3,0.574535252161228,0.639696221027287
"550",2,24,2,2,70,3,1,0,2,1.0374478171774,1.07527746352307
"551",2,29,2,2,71,2,1,0,3,0.770083302785991,0.760230627690223
"552",2,30,2,1,72,3,1,1,2,1.02969958706948,1.06262246155126
"553",2,23,2,2,73,2,2,1,4,0.521496008371874,0.591262937854008
"554",2,31,2,1,74,1,1,1,5,0.443140616186309,0.409190251956228
"555",2,24,2,1,75,2,2,0,3,0.850429181977906,0.945730916504628
"556",2,19,2,1,76,3,1,1,2,0.909315736463144,0.969135365923296
"557",2,18,2,2,77,2,2,1,3,0.743923089473106,0.828195198383896
"558",2,30,2,2,78,2,1,0,3,0.482768515908632,0.498031838187053
"559",2,36,2,2,79,2,2,1,4,0.73102512641281,0.721192821679688
"560",2,24,2,2,80,3,2,1,3,0.870870058617699,0.848898267645156
"561",2,29,2,1,81,3,2,0,1,0.280628302645692,0.248798226547846
"562",2,30,2,2,82,2,1,0,3,0.678301238096266,0.749439970347768
"563",2,23,2,1,83,2,1,1,4,0.650628977813042,0.615949667696536
"564",2,31,2,1,84,1,1,1,5,0.443267662449697,0.510227716992895
"565",2,24,2,2,85,2,1,0,3,0.665838779831391,0.664946874342505
"566",2,19,2,1,86,1,1,1,5,0.367716457353922,0.421664433200439
"567",2,18,2,2,87,1,2,1,5,0.351973118219382,0.369092812448489
"568",2,30,2,2,88,1,2,1,5,0.366204943612109,0.389342361650273
"569",2,36,2,1,89,1,2,0,4,0.669406182995299,0.702020586584612
"570",2,24,2,2,90,2,1,0,3,0.499237075779494,0.486139880211445
"571",2,29,2,2,91,1,2,1,4,0.331355409767223,0.376446068765544
"572",2,30,2,2,92,3,1,0,1,0.975498512162797,1.00101431874665
"573",2,23,2,2,93,3,2,1,2,0.906493583713619,0.934041668471099
"574",2,31,2,2,94,2,1,0,2,0.750132989912898,0.738154373808309
"575",2,24,2,2,95,3,2,1,2,0.980222168892825,1.08987516121452
"576",2,19,2,2,96,2,1,0,3,0.433845443557366,0.394956608712208
"577",2,18,2,1,97,3,1,1,3,0.928212438753839,0.887309657656283
"578",2,30,2,2,98,2,2,1,4,0.507746648396596,0.560761553645319
"579",2,36,2,1,99,1,1,1,5,0.44724253295836,0.404323092030743
"580",2,24,2,2,100,1,1,0,4,0.683320578530383,0.585336488879172
"581",2,29,2,2,101,2,2,1,3,0.639403070795113,0.700273908097907
"582",2,30,2,2,102,2,2,1,3,0.505998867950109,0.444853295840766
"583",2,23,2,2,103,1,2,1,5,0.46243806315807,0.448403639243696
"584",2,31,2,2,104,3,1,0,1,0.731904510472913,0.73311311440599
"585",2,24,2,2,105,3,2,1,3,0.76728520063583,0.757674819068954
"586",2,19,2,2,106,3,1,0,1,0.983329610943787,1.03562182563975
"587",2,18,2,2,107,2,2,1,4,0.423222181233247,0.452372806786484
"588",2,30,2,1,108,3,1,1,3,0.741859741696189,0.768857614465194
"589",2,36,2,1,109,3,2,0,2,1.37257087812312,1.44166787079905
"590",2,24,2,2,110,2,1,0,3,0.60056307561953,0.601999485526905
"591",2,29,2,1,111,1,2,0,3,0.550019242161704,0.557447315586393
"592",2,30,2,1,112,3,1,1,2,0.647649110983665,0.679508445231021
"593",2,23,2,2,113,2,1,0,2,0.69023599358618,0.631582278254226
"594",2,31,2,1,114,1,1,1,4,0.375088792091569,0.374335781059225
"595",2,24,2,1,115,1,2,0,3,0.606273265570163,0.637646494451962
"596",2,19,2,1,116,2,2,0,2,0.464332904578189,0.486194409631243
"597",2,18,2,1,117,2,1,1,4,0.702070339526233,0.686032314826467
"598",2,30,2,2,118,3,1,0,2,0.394619060902603,0.394446756540433
"599",2,36,2,1,119,3,2,0,1,0.741263884100549,0.793929372273546
"600",2,24,2,2,120,2,2,1,4,0.534454098299786,0.503200261552254
"601",2,29,2,2,121,2,2,1,3,0.48783826460731,0.534228228208734
"602",2,30,2,1,122,3,1,1,3,0.608897695942477,0.660296313227812
"603",2,23,2,1,123,1,1,1,5,0.421250080869539,0.507958886111866
"604",2,31,2,2,124,3,1,0,2,0.653612832641144,0.593851096135652
"605",2,24,2,2,125,2,2,1,4,0.769311914932148,0.710852010932773
"606",2,19,2,2,126,1,2,1,4,0.409965796370864,0.429446730154079
"607",2,18,2,1,127,1,1,1,5,0.307171929223267,0.222242897091857
"608",2,30,2,2,128,2,2,1,3,0.747486173187407,0.731131503715645
"609",2,36,2,1,129,2,2,0,3,0.64887007223542,0.732914591471116
"610",2,24,2,2,130,2,2,1,3,0.61289321609718,0.672526924168684
"611",2,29,2,1,131,2,2,0,3,0.542975560685735,0.585085225666211
"612",2,30,2,2,132,1,1,0,3,0.614394728643297,0.554110893852708
"613",2,23,2,1,133,3,2,0,1,1.67823198340622,1.68737450877597
"614",2,31,2,1,134,2,2,0,2,0.815962888090597,0.866387393531157
"615",2,24,2,1,135,2,1,1,3,0.746928066747567,0.773883415311102
"616",2,19,2,1,136,3,1,1,3,0.831350172085234,0.809396490764703
"617",2,18,2,1,137,2,1,1,3,0.584023909244825,0.579453331679869
"618",2,30,2,1,138,1,1,1,4,0.486099078741565,0.479439066928403
"619",2,36,2,1,139,3,1,1,2,0.868004995480365,0.881354259811265
"620",2,24,2,2,140,3,1,0,2,0.524149378365875,0.456685126463331
"621",2,29,2,2,141,3,1,0,1,1.06381442764358,1.04168938536597
"622",2,30,2,1,142,1,1,1,5,0.488305771797793,0.463015893551177
"623",2,23,2,2,143,3,1,0,2,1.28499148249662,1.27453176364777
"624",2,31,2,1,144,1,1,1,5,0.45512818658519,0.452347259713322
"625",2,24,2,1,145,2,1,1,3,0.720152972309226,0.752181615780318
"626",2,19,2,1,146,2,1,1,3,0.687452357555225,0.779564294786915
"627",2,18,2,2,147,1,2,1,4,0.248599353246836,0.343945096575247
"628",2,30,2,1,148,3,1,1,3,0.70670310539959,0.769678578121183
"629",2,36,2,2,149,3,2,1,3,0.956093608318841,1.06837463549007
"630",2,24,2,2,150,2,2,1,4,0.382501005674026,0.324031667021097
"631",2,29,2,2,151,2,1,0,2,0.675596512705127,0.714773328837582
"632",2,30,2,2,152,3,1,0,1,0.591033484787438,0.629157576377295
"633",2,23,2,2,153,3,1,0,2,1.7064104380919,1.68008624011666
"634",2,31,2,2,154,3,1,0,1,1.0523186094332,0.979260081917214
"635",2,24,2,2,155,2,2,1,4,0.441566292317846,0.422234598717815
"636",2,19,2,1,156,3,1,1,3,0.731427952614895,0.835056434156009
"637",2,18,2,1,157,3,1,1,2,1.22110425309543,1.23808714130656
"638",2,30,2,2,158,1,2,1,5,0.35982647716495,0.314582070989122
"639",2,36,2,1,159,3,2,0,2,1.14793837296173,1.14849144541141
"640",2,24,2,1,160,2,1,1,3,0.598058483409569,0.606868126395626
"641",2,29,2,2,161,3,1,0,2,0.632321076825544,0.668088874402939
"642",2,30,2,2,162,2,2,1,3,0.507069816741937,0.533664846904909
"643",2,23,2,2,163,2,2,1,3,0.493510409613952,0.442990594319601
"644",2,31,2,1,164,2,2,0,2,0.864926949586852,0.879423857155122
"645",2,24,2,1,165,3,2,0,2,1.17020239990169,1.17491633747127
"646",2,19,2,2,166,1,2,1,4,0.46438837693434,0.427241984392488
"647",2,18,2,1,167,2,1,1,3,0.662263893980079,0.692014911613544
"648",2,30,2,1,168,1,1,1,5,0.501959797551918,0.549681342870604
"649",2,36,2,2,169,3,1,0,1,1.17731698992747,1.13148806473863
"650",2,24,2,2,170,3,2,1,2,0.899399366872338,0.912056472847233
"651",2,29,2,2,171,3,2,1,3,0.934874791567773,0.921262913290997
"652",2,30,2,1,172,2,2,0,3,0.723091634372032,0.734760984187966
"653",2,23,2,2,173,2,2,1,4,0.635783859548135,0.610307584200694
"654",2,31,2,2,174,1,2,1,5,0.286038260826545,0.208921420996886
"655",2,24,2,1,175,1,1,1,5,0.525848342585995,0.520444871019912
"656",2,19,2,2,176,1,2,1,5,0.365227011250395,0.326096802034786
"657",2,18,2,2,177,3,2,1,3,1.00429388019101,0.972506074574232
"658",2,30,2,2,178,3,1,0,1,0.958511371754967,0.941185791378252
"659",2,36,2,2,179,3,2,1,2,0.893167003590354,0.936369027243504
"660",2,24,2,1,180,1,1,1,4,0.396371616914351,0.39602345041021
"661",2,29,2,2,181,1,2,1,5,0.348416139819614,0.432788789804225
"662",2,30,2,1,182,2,2,0,3,0.694060228732695,0.714669945051879
"663",2,23,2,1,183,3,2,0,1,1.49161791763756,1.53147334609473
"664",2,31,2,2,184,2,1,0,3,0.657302251553164,0.684164597143414
"665",2,24,2,1,185,2,1,1,4,0.872613723305313,0.815389029761652
"666",2,19,2,2,186,1,2,1,4,0.623143780779115,0.638718961517483
"667",2,18,2,1,187,1,1,1,4,0.357578075640367,0.313079330823752
"668",2,30,2,1,188,1,1,1,4,0.46030743359445,0.532820292585484
"669",2,36,2,1,189,1,2,0,4,0.50322188330232,0.450270620202412
"670",2,24,2,2,190,1,2,1,5,0.404645641419018,0.403659288219842
"671",2,29,2,1,191,1,1,1,4,0.395433157470664,0.422274560419842
"672",2,30,2,1,192,1,1,1,4,0.441516353959975,0.355822669045548
"673",2,23,2,1,193,2,1,1,3,0.508684840981365,0.508678958679723
"674",2,31,2,2,194,2,2,1,3,0.687446393719485,0.72356340520749
"675",2,24,2,1,195,1,1,1,4,0.32631095062184,0.319153722663809
"676",2,19,2,1,196,2,1,1,4,0.703035787228118,0.679783566685342
"677",2,18,2,2,197,2,1,0,2,0.467446126193439,0.439940786495133
"678",2,30,2,2,198,3,1,0,1,1.12953448992096,1.08986528393948
"679",2,36,2,2,199,3,2,1,2,0.996808153038961,0.998609848637765
"680",2,24,2,2,200,2,2,1,4,0.651895912466213,0.673241682900095
"681",2,29,2,1,201,1,1,1,4,0.401587401592338,0.414388085375663
"682",2,30,2,1,202,3,1,1,3,0.760331732573609,0.715377923564332
"683",2,23,2,1,203,3,2,0,2,1.03709433599631,0.940771477811039
"684",2,31,2,1,204,1,1,1,4,0.40891988037293,0.36718557901497
"685",2,24,2,1,205,1,2,0,3,0.479477184668388,0.50130171133572
"686",2,19,2,2,206,3,1,0,1,1.03996562519115,1.04054391083243
"687",2,18,2,2,207,1,2,1,5,0.566750574902414,0.613977912698441
"688",2,30,2,1,208,1,2,0,3,0.811390313324064,0.801268821878268
"689",2,36,2,1,209,3,2,0,2,1.02529412679057,0.965491384454414
"690",2,24,2,2,210,2,1,0,3,0.561359383827133,0.603784661631821
"691",2,29,2,1,211,1,2,0,4,0.598538297698157,0.561730044632932
"692",2,30,2,2,212,2,2,1,3,0.539849490241403,0.61193687280093
"693",2,23,2,1,213,2,2,0,2,0.590558803867898,0.486772356215682
"694",2,31,2,2,214,3,1,0,2,0.707407615838119,0.725058968769854
"695",2,24,2,2,215,2,1,0,3,0.717871201857977,0.69958044748648
"696",2,19,2,2,216,1,2,1,5,0.300828114146642,0.308210195116928
"697",2,18,2,1,217,3,2,0,1,0.890334596633183,0.871896440217281
"698",2,30,2,1,218,2,2,0,3,0.436088317907247,0.487071253281327
"699",2,36,2,1,219,3,2,0,2,0.706986064410092,0.779595923165012
"700",2,24,2,1,220,1,2,0,4,0.610887683842392,0.628864365559872
"701",2,29,2,1,221,3,1,1,2,0.485718549424359,0.518596217307493
"702",2,30,2,1,222,2,1,1,3,0.714920727502609,0.686600608802447
"703",2,23,2,2,223,1,1,0,4,0.441312352661949,0.447974751328556
"704",2,31,2,1,224,3,2,0,1,0.673858935964375,0.474735378966049
"705",2,24,2,1,225,3,1,1,2,0.676198479329817,0.689008407531497
"706",2,19,2,2,226,2,2,1,4,0.61306734051867,0.590083168934101
"707",2,18,2,1,227,1,1,1,5,0.481972725737098,0.478989068853095
"708",2,30,2,1,228,1,2,0,4,0.696942112431985,0.756609336061398
"709",2,36,2,1,229,3,2,0,2,1.21761798182272,1.25344277002059
"710",2,24,2,2,230,1,2,1,4,0.351249420010153,0.352589086374714
"711",2,29,2,1,231,1,2,0,4,0.595221923094598,0.611318748272007
"712",2,30,2,1,232,2,2,0,2,0.673661039478626,0.640991167421828
"713",2,23,2,2,233,3,1,0,2,0.851352446325734,0.748881686287955
"714",2,31,2,2,234,3,1,0,1,1.08627434149572,0.97629151636303
"715",2,24,2,1,235,3,1,1,3,0.73848890737531,0.745070115988635
"716",2,19,2,1,236,2,1,1,4,0.363545231402675,0.281435759590901
"717",2,18,2,2,237,3,1,0,2,1.34782685543658,1.37486498605342
"718",2,30,2,2,238,1,2,1,4,0.366133758492454,0.483037311443243
"719",2,36,2,1,239,1,1,1,5,0.357674784920111,0.403764879133345
"720",2,24,2,1,240,1,1,1,4,0.432387966101586,0.434399562374814
"721",1,21,1,2,1,1,2,1,4,0.511131044948446,0.531028323491356
"722",1,27,1,1,2,3,2,0,1,1.2946032491484,1.30580434834082
"723",1,22,1,2,3,1,2,1,4,0.46478565980636,0.467153088726951
"724",1,24,1,1,4,1,1,1,5,0.465723909610536,0.428475121845287
"725",1,28,1,2,5,3,1,0,2,1.4165335582955,1.48581907903819
"726",1,18,1,1,6,3,1,1,2,0.69954031622141,0.643604633655415
"727",1,30,1,1,7,2,1,1,3,0.474521534368628,0.387322502748871
"728",1,20,1,2,8,3,1,0,1,0.933837888663129,0.837331261026105
"729",1,24,1,2,9,2,1,0,3,0.880597084917368,0.935501812753139
"730",1,30,1,1,10,1,1,1,5,0.445316226361087,0.489689566814466
"731",1,21,1,2,11,1,2,1,5,0.473364523929757,0.458605670877355
"732",1,27,1,2,12,2,2,1,4,0.597416961011793,0.655240158642548
"733",1,22,1,2,13,3,1,0,2,1.44317421457198,1.43557872474569
"734",1,24,1,2,14,3,1,0,1,1.76789090940301,1.70040538618033
"735",1,28,1,2,15,2,1,0,2,0.760606527231361,0.781672683158117
"736",1,18,1,1,16,1,1,1,4,0.342921473771935,0.352726789085545
"737",1,30,1,1,17,3,1,1,3,1.16097412086524,1.18085127707399
"738",1,20,1,1,18,3,2,0,1,1.21525600450439,1.2118327223562
"739",1,24,1,2,19,3,2,1,2,0.994591073015597,0.909679213019991
"740",1,30,1,1,20,2,1,1,4,0.57409475605304,0.568599905909885
"741",1,21,1,1,21,2,1,1,3,0.458944619657573,0.465550458807876
"742",1,27,1,1,22,1,2,0,4,0.644897548186476,0.576436797261806
"743",1,22,1,1,23,1,1,1,4,0.514799298060145,0.476026425658899
"744",1,24,1,2,24,3,1,0,2,0.964153634621129,0.926941254416852
"745",1,28,1,2,25,2,2,1,4,0.589583468212377,0.598819757628063
"746",1,18,1,2,26,3,1,0,2,1.12237943239978,1.13679465154197
"747",1,30,1,2,27,2,2,1,3,0.623481667266047,0.675742776102735
"748",1,20,1,1,28,2,2,0,2,0.978783621803776,0.948476243615369
"749",1,24,1,1,29,2,1,1,4,0.543836206566741,0.636447439495082
"750",1,30,1,2,30,3,1,0,1,0.716421687177578,0.709148895295997
"751",1,21,1,1,31,2,1,1,4,0.612397021979969,0.616544050992558
"752",1,27,1,1,32,1,1,1,5,0.354857976017558,0.323284171043852
"753",1,22,1,1,33,3,1,1,3,0.869872811099416,0.932872129959902
"754",1,24,1,1,34,3,2,0,2,0.728019629951335,0.754722269627724
"755",1,28,1,1,35,3,2,0,1,1.4877927438297,1.35041566890501
"756",1,18,1,1,36,1,1,1,5,0.327780721103251,0.347045104948748
"757",1,30,1,2,37,3,2,1,2,0.634072837193129,0.675651813998854
"758",1,20,1,2,38,3,2,1,3,0.550976015116222,0.577138821791497
"759",1,24,1,1,39,2,2,0,3,0.586019548938069,0.461611012864397
"760",1,30,1,1,40,1,2,0,4,0.483119659141653,0.456711940340567
"761",1,21,1,2,41,1,1,0,4,0.478721846385571,0.596123269080685
"762",1,27,1,1,42,1,1,1,4,0.379350924223148,0.358250826668659
"763",1,22,1,2,43,1,2,1,5,0.497028960388875,0.57985944752853
"764",1,24,1,1,44,1,1,1,4,0.460780925136986,0.515651579452275
"765",1,28,1,2,45,1,2,1,4,0.423278132660969,0.440911896938876
"766",1,18,1,2,46,1,2,1,4,0.395022854518108,0.400466432443847
"767",1,30,1,2,47,1,1,0,4,0.469305521353502,0.405878685948521
"768",1,20,1,2,48,1,2,1,4,0.468867690659062,0.531877052832564
"769",1,24,1,2,49,3,2,1,3,0.996693957283393,0.986366729743638
"770",1,30,1,2,50,2,1,0,3,0.680875983408453,0.736831237447345
"771",1,21,1,1,51,1,1,1,5,0.351114082526812,0.288624077075077
"772",1,27,1,2,52,2,2,1,4,0.658244396673651,0.651148665866024
"773",1,22,1,1,53,2,1,1,3,0.62657213443398,0.58469589859446
"774",1,24,1,2,54,3,2,1,2,0.893763330182194,0.931237713539078
"775",1,28,1,2,55,2,1,0,3,0.563316907817656,0.582987720254843
"776",1,18,1,2,56,2,2,1,4,0.773690895686286,0.776876506680434
"777",1,30,1,1,57,2,2,0,3,0.579887759549574,0.650975660636161
"778",1,20,1,2,58,1,2,1,4,0.427030709052703,0.365078787485985
"779",1,24,1,2,59,3,2,1,2,0.868004541318908,0.835951086301639
"780",1,30,1,2,60,1,2,1,5,0.366662477053639,0.428361637981435
"781",1,21,1,2,61,1,1,0,4,0.577671160566949,0.584666090596017
"782",1,27,1,2,62,2,1,0,3,0.638592491473913,0.527202064373161
"783",1,22,1,2,63,2,2,1,4,0.474322869632312,0.449621778329335
"784",1,24,1,2,64,2,2,1,4,0.645795469320829,0.539504142965262
"785",1,28,1,2,65,1,1,0,3,0.56790219429595,0.598483208280687
"786",1,18,1,1,66,2,2,0,2,0.846019267824825,0.876634527040294
"787",1,30,1,1,67,1,1,1,5,0.459476358385241,0.495802793230611
"788",1,20,1,2,68,2,2,1,3,0.85883700131707,0.757264462852127
"789",1,24,1,2,69,3,1,0,2,0.730583566092207,0.703942218341777
"790",1,30,1,2,70,3,2,1,2,0.430287948091,0.425568879105255
"791",1,21,1,1,71,3,2,0,2,0.604662713667169,0.590034490844296
"792",1,27,1,1,72,3,2,0,2,1.58304402895484,1.54022674305177
"793",1,22,1,2,73,2,1,0,3,0.68872858811325,0.734409318010559
"794",1,24,1,2,74,1,2,1,5,0.425292512437614,0.399892173620457
"795",1,28,1,2,75,3,2,1,3,0.618314498721885,0.601025926047092
"796",1,18,1,2,76,2,1,0,2,0.874250932216962,0.765721554371044
"797",1,30,1,2,77,2,2,1,4,0.750145761380622,0.756042046762688
"798",1,20,1,2,78,1,2,1,4,0.343600084382965,0.28451666169695
"799",1,24,1,2,79,1,2,1,5,0.379390400142429,0.366942685029674
"800",1,30,1,1,80,1,2,0,3,0.364594872859748,0.327716409102149
"801",1,21,1,1,81,1,1,1,4,0.459988705512096,0.392248981606605
"802",1,27,1,2,82,2,2,1,4,0.530955862554663,0.620833307995781
"803",1,22,1,2,83,1,2,1,5,0.437711613479164,0.430828236087038
"804",1,24,1,2,84,3,2,1,3,0.758712211329201,0.789419697497941
"805",1,28,1,1,85,1,1,1,4,0.321291735315582,0.392004112424123
"806",1,18,1,2,86,2,1,0,2,0.708412750454164,0.720786380517912
"807",1,30,1,1,87,3,1,1,3,1.20071034954907,1.13314722464384
"808",1,20,1,2,88,2,2,1,3,0.90345923729137,0.897217799556638
"809",1,24,1,2,89,2,1,0,2,0.859662602162165,0.880437892619175
"810",1,30,1,1,90,2,1,1,3,0.396535227897093,0.337659883331438
"811",1,21,1,1,91,2,1,1,4,0.522181277832133,0.583746289029608
"812",1,27,1,2,92,1,1,0,4,0.603304059191692,0.595201436187275
"813",1,22,1,1,93,3,2,0,1,0.830072040362344,0.776303390539697
"814",1,24,1,1,94,3,2,0,2,1.18709334693784,1.20296918237841
"815",1,28,1,1,95,1,1,1,4,0.50941955799934,0.508496460565407
"816",1,18,1,2,96,1,2,1,4,0.477707360798221,0.524911028285974
"817",1,30,1,2,97,1,2,1,5,0.474141166051955,0.434281166065451
"818",1,20,1,1,98,2,1,1,3,0.368594829072786,0.396310482354375
"819",1,24,1,1,99,3,1,1,2,0.762257484555621,0.693781140282345
"820",1,30,1,2,100,3,1,0,1,0.993247592521547,0.997435045593107
"821",1,21,1,1,101,2,1,1,3,0.491363073000845,0.432012398032025
"822",1,27,1,1,102,1,1,1,5,0.347535053823806,0.357083506098468
"823",1,22,1,2,103,3,2,1,3,0.941422540284413,0.98830530008885
"824",1,24,1,2,104,1,2,1,5,0.481386472613986,0.426922608032469
"825",1,28,1,1,105,2,2,0,3,0.353971276761928,0.299206547692424
"826",1,18,1,2,106,2,1,0,2,0.815947040036428,0.868107300030562
"827",1,30,1,1,107,2,1,1,3,0.825681296062062,0.840984734978894
"828",1,20,1,2,108,2,2,1,4,0.505285122619931,0.52699169775444
"829",1,24,1,2,109,3,2,1,3,0.697269932253011,0.639826269570569
"830",1,30,1,1,110,2,1,1,4,0.61045203441459,0.638819213213114
"831",1,21,1,1,111,3,2,0,2,1.34499585016767,1.29920790061392
"832",1,27,1,1,112,3,2,0,1,0.815928240076352,0.904690153636941
"833",1,22,1,2,113,1,2,1,5,0.344434545605719,0.371969045670703
"834",1,24,1,1,114,3,2,0,1,1.04238248680444,1.11467932010645
"835",1,28,1,1,115,3,1,1,2,0.819202933593275,0.851488076613608
"836",1,18,1,2,116,1,2,1,4,0.327165980178145,0.202416314498094
"837",1,30,1,2,117,2,2,1,3,0.57596226689233,0.524408312930556
"838",1,20,1,1,118,3,2,0,1,1.57783560232018,1.657506500083
"839",1,24,1,1,119,3,2,0,1,0.88015315221562,0.858153069761743
"840",1,30,1,2,120,1,2,1,4,0.365711113097599,0.39352654476846
"841",1,21,1,1,121,2,2,0,2,0.583443225487888,0.637330956042537
"842",1,27,1,2,122,1,2,1,4,0.499664084699248,0.507862120907243
"843",1,22,1,2,123,2,1,0,3,0.775604071346679,0.763202970844155
"844",1,24,1,2,124,1,2,1,4,0.523026308878101,0.541221382282044
"845",1,28,1,2,125,3,1,0,1,0.986664487899319,1.05877413851634
"846",1,18,1,1,126,2,2,0,3,0.703073984960076,0.696678090201532
"847",1,30,1,1,127,3,2,0,2,0.84252365087319,0.753082571044682
"848",1,20,1,2,128,2,2,1,4,0.461611756331357,0.500312313895762
"849",1,24,1,2,129,3,2,1,2,0.62522562145086,0.643258210048403
"850",1,30,1,2,130,3,2,1,3,0.719908029871008,0.682302310348705
"851",1,21,1,2,131,1,2,1,4,0.500854431402427,0.493129273513929
"852",1,27,1,2,132,3,1,0,2,0.749402300672071,0.741142071008312
"853",1,22,1,2,133,3,2,1,3,0.711331758823504,0.737788634779124
"854",1,24,1,1,134,3,1,1,2,0.735641975139235,0.698367098277632
"855",1,28,1,2,135,3,1,0,2,0.596705765407635,0.593397148247547
"856",1,18,1,1,136,3,1,1,3,1.02352127802138,0.983275878976964
"857",1,30,1,2,137,1,2,1,4,0.530913474897889,0.526002728393363
"858",1,20,1,2,138,3,2,1,2,0.776301102868618,0.817320951544076
"859",1,24,1,1,139,1,2,0,4,0.693378332224076,0.648097091365676
"860",1,30,1,1,140,1,1,1,4,0.461769984693436,0.512705127746822
"861",1,21,1,1,141,3,2,0,2,0.705337579340268,0.70105222529329
"862",1,27,1,1,142,1,2,0,3,0.547138409987077,0.497643160819632
"863",1,22,1,1,143,2,1,1,3,0.385709864814352,0.46869940594714
"864",1,24,1,1,144,2,2,0,2,0.488116771516539,0.385981344020075
"865",1,28,1,1,145,1,1,1,4,0.472762864182277,0.417140581499166
"866",1,18,1,1,146,1,1,1,4,0.294184679496449,0.366437167602331
"867",1,30,1,1,147,2,1,1,4,0.557029949710978,0.498229584118871
"868",1,20,1,2,148,3,2,1,3,0.519678270225653,0.575003175929729
"869",1,24,1,2,149,3,2,1,2,0.683203463612692,0.622149167178659
"870",1,30,1,2,150,1,2,1,4,0.393187585023974,0.264116825661306
"871",1,21,1,1,151,1,1,1,4,0.527362686669648,0.437000316581872
"872",1,27,1,2,152,1,2,1,4,0.311476496192469,0.299551387430514
"873",1,22,1,1,153,3,2,0,2,1.25934940779481,1.25171696298366
"874",1,24,1,1,154,1,1,1,5,0.386593110456272,0.355883925967361
"875",1,28,1,2,155,3,2,1,3,0.854466171439643,0.832467677160963
"876",1,18,1,1,156,1,1,1,4,0.541348982521919,0.522912087045735
"877",1,30,1,2,157,2,1,0,3,0.832500873223576,0.824153786733136
"878",1,20,1,1,158,1,1,1,4,0.519131929269692,0.539943238778994
"879",1,24,1,2,159,2,2,1,3,0.53545459929517,0.550461033319781
"880",1,30,1,1,160,2,1,1,4,0.388339573998029,0.443213345962109
"881",1,21,1,2,161,1,2,1,4,0.444793951280989,0.399140715161771
"882",1,27,1,2,162,3,1,0,1,1.37090070489327,1.40895543082409
"883",1,22,1,1,163,1,1,1,5,0.376714280899597,0.329504106027556
"884",1,24,1,2,164,2,1,0,2,0.394473986627452,0.380373791327154
"885",1,28,1,2,165,1,1,0,4,0.508124934349025,0.465655841639897
"886",1,18,1,1,166,3,2,0,1,0.269291843418518,0.258546681433927
"887",1,30,1,2,167,3,2,1,3,0.947458415712319,0.915687126254714
"888",1,20,1,1,168,1,1,1,5,0.350762433392676,0.383247534491599
"889",1,24,1,1,169,3,1,1,3,0.969720007803691,0.943554122230804
"890",1,30,1,1,170,2,2,0,3,0.491119908185711,0.491331925808186
"891",1,21,1,1,171,3,1,1,2,0.66498583188636,0.77299035412884
"892",1,27,1,1,172,2,1,1,3,0.681600953667201,0.78596326370986
"893",1,22,1,2,173,2,1,0,3,0.903634378122452,0.929685141226511
"894",1,24,1,1,174,2,1,1,4,0.381007606106946,0.427750734553004
"895",1,28,1,1,175,1,1,1,4,0.442268773232926,0.417395806605116
"896",1,18,1,1,176,2,2,0,2,0.687907497793686,0.583403889184331
"897",1,30,1,2,177,2,1,0,3,0.762512995553687,0.817591399488549
"898",1,20,1,1,178,1,2,0,3,0.561731508139838,0.580073209335898
"899",1,24,1,1,179,2,2,0,2,0.683427598352222,0.63133240326512
"900",1,30,1,2,180,1,1,0,3,0.426057892848241,0.426464548415093
"901",1,21,1,1,181,2,2,0,2,0.609991099707983,0.54706170208761
"902",1,27,1,1,182,1,1,1,5,0.387956231622284,0.349085099459327
"903",1,22,1,1,183,3,1,1,3,0.656053439525004,0.673419108995282
"904",1,24,1,2,184,2,2,1,4,0.77439126963479,0.803263827185123
"905",1,28,1,1,185,3,2,0,2,1.54229536613735,1.54792807965871
"906",1,18,1,2,186,1,2,1,4,0.430638686594777,0.403441521358817
"907",1,30,1,1,187,2,1,1,4,0.502873211418064,0.379614988270313
"908",1,20,1,2,188,2,2,1,3,0.743441797130473,0.727070507751841
"909",1,24,1,1,189,3,1,1,3,0.959262890113575,0.951116436741548
"910",1,30,1,1,190,2,1,1,4,0.539057842731863,0.54771320488961
"911",1,21,1,1,191,2,2,0,3,0.548288920948212,0.610699098070077
"912",1,27,1,1,192,3,2,0,2,0.812545241493569,0.764114280629524
"913",1,22,1,1,193,2,1,1,4,0.652223898235704,0.694565049391573
"914",1,24,1,1,194,3,2,0,2,1.75209257598223,1.7766122038027
"915",1,28,1,2,195,2,2,1,3,0.658805502789131,0.661308586099985
"916",1,18,1,2,196,3,2,1,3,0.914713907214319,0.950028389066147
"917",1,30,1,2,197,1,1,0,4,0.433586303958943,0.436522923080727
"918",1,20,1,1,198,1,1,1,5,0.419047979660037,0.398986197803672
"919",1,24,1,2,199,3,2,1,3,1.06944410940728,1.07321442240543
"920",1,30,1,2,200,3,2,1,2,0.967602907303299,1.08202991162008
"921",1,21,1,1,201,2,1,1,4,0.692804317272897,0.718685757207241
"922",1,27,1,2,202,1,2,1,4,0.249821570093273,0.347846660384789
"923",1,22,1,2,203,2,2,1,3,0.446516183870154,0.557841594780678
"924",1,24,1,1,204,3,2,0,2,1.58273662020682,1.54965706477219
"925",1,28,1,1,205,1,1,1,5,0.42477552987877,0.51302932741737
"926",1,18,1,1,206,3,2,0,1,1.7146671676342,1.63712953131704
"927",1,30,1,1,207,2,1,1,4,0.553230329727773,0.513284581484723
"928",1,20,1,2,208,3,2,1,2,0.855083298602785,0.905618896610273
"929",1,24,1,1,209,2,2,0,2,0.586432404898569,0.583881681352152
"930",1,30,1,1,210,2,1,1,4,0.695340418340238,0.754942404878718
"931",1,21,1,2,211,1,2,1,5,0.405715303718841,0.354002608404959
"932",1,27,1,1,212,1,1,1,4,0.464938414995617,0.471430620224075
"933",1,22,1,1,213,3,1,1,2,0.953965630774106,0.975404689089768
"934",1,24,1,1,214,2,1,1,3,0.504505921677369,0.499926170229974
"935",1,28,1,2,215,2,2,1,4,0.423301831702552,0.408331964065662
"936",1,18,1,2,216,1,2,1,5,0.407413879112496,0.52200173859786
"937",1,30,1,2,217,2,2,1,3,0.603620767704093,0.628668241209924
"938",1,20,1,1,218,1,1,1,5,0.457272871575142,0.516808186415694
"939",1,24,1,2,219,3,2,1,2,0.78445136540353,0.772458161037203
"940",1,30,1,2,220,2,2,1,3,0.490663847299236,0.551067938094444
"941",1,21,1,1,221,3,2,0,2,1.26998463541463,1.28300137161595
"942",1,27,1,1,222,1,1,1,5,0.361662355387791,0.445361564834444
"943",1,22,1,2,223,2,1,0,3,0.770454587546116,0.764276808171808
"944",1,24,1,1,224,1,2,0,3,0.476097659603336,0.437382535557262
"945",1,28,1,1,225,3,1,1,2,1.26294396637025,1.30672405650297
"946",1,18,1,2,226,2,2,1,3,0.512078943215965,0.459969244696141
"947",1,30,1,1,227,3,2,0,1,0.708424252378329,0.670525655427113
"948",1,20,1,1,228,3,2,0,1,0.51839541939971,0.443669097761648
"949",1,24,1,2,229,1,2,1,5,0.453648413748714,0.45062449919703
"950",1,30,1,1,230,1,1,1,5,0.308412447795033,0.346155977634712
"951",1,21,1,1,231,1,1,1,4,0.288102413584451,0.372670830683811
"952",1,27,1,2,232,3,1,0,2,0.640014969228516,0.710926189970619
"953",1,22,1,2,233,2,1,0,3,0.762967973226505,0.706206255714303
"954",1,24,1,2,234,3,1,0,2,1.05022510372176,1.1117723408985
"955",1,28,1,1,235,1,1,1,5,0.493484099135554,0.513258233690546
"956",1,18,1,2,236,2,2,1,4,0.641539626176044,0.699971499358127
"957",1,30,1,1,237,1,1,1,5,0.310275724928158,0.303492187671445
"958",1,20,1,2,238,3,2,1,3,0.753888180647587,0.78055165511465
"959",1,24,1,1,239,3,1,1,2,0.696933033689851,0.76615221941513
"960",1,30,1,1,240,2,2,0,2,0.696686602082216,0.702533525189864
