"","subj_no","age","group","stim","trial","difficulty","resp","corr","conf","RT_day1","RT_day2"
"1",6,33,2,1,1,3,1,1,3,1.03824039679244,1.06510589070156
"2",6,27,2,1,2,1,1,1,5,0.349931701345092,0.35082002864078
"3",6,18,2,2,3,1,2,1,4,0.299125265587015,0.293954575308023
"4",6,37,2,1,4,2,1,1,4,0.776161733023447,0.824338903772419
"5",6,31,2,2,5,1,2,1,5,0.290418058261035,0.301700227614356
"6",6,21,2,2,6,2,1,0,2,0.6504007374516,0.635213297492402
"7",6,38,2,1,7,2,2,0,2,0.627808517082233,0.548391234645745
"8",6,35,2,2,8,2,1,0,3,0.766796372384394,0.657370844678483
"9",6,38,2,1,9,3,2,0,2,0.995625823377756,0.967143927392465
"10",6,34,2,2,10,2,1,0,2,0.621866409004176,0.55556827632152
"11",6,33,2,2,11,2,2,1,3,0.549378812924114,0.456072320790366
"12",6,27,2,2,12,3,2,1,2,0.997157027098263,0.968079359073155
"13",6,18,2,2,13,2,2,1,3,0.461695967552611,0.48219892580756
"14",6,37,2,1,14,2,1,1,4,0.584360107268247,0.550847985924487
"15",6,31,2,2,15,3,1,0,1,0.618288381579448,0.638646881647415
"16",6,21,2,1,16,1,1,1,4,0.231353660564811,0.175027222922454
"17",6,38,2,1,17,2,2,0,3,0.458945828838854,0.458004013879282
"18",6,35,2,1,18,3,2,0,2,1.44946236398301,1.45706184913004
"19",6,38,2,2,19,3,1,0,1,0.657187823116472,0.676085473315758
"20",6,34,2,2,20,1,2,1,5,0.4815217878756,0.47439744019194
"21",6,33,2,1,21,2,2,0,2,0.638837135420905,0.590351187691894
"22",6,27,2,2,22,1,2,1,5,0.41239216485885,0.384847609970081
"23",6,18,2,1,23,2,2,0,3,0.832181525553572,0.825169321660106
"24",6,37,2,1,24,2,2,0,2,1.00923526992783,0.983214610627652
"25",6,31,2,2,25,2,2,1,3,0.582797450187622,0.559576117797385
"26",6,21,2,1,26,2,2,0,3,0.666012481759335,0.617993660293144
"27",6,38,2,2,27,3,1,0,2,0.633155392625956,0.655100008231066
"28",6,35,2,1,28,2,1,1,4,0.69198254080852,0.72911932325063
"29",6,38,2,2,29,2,2,1,4,0.480062623800568,0.493464515889184
"30",6,34,2,1,30,3,1,1,3,0.93484498034414,0.996336670799279
"31",6,33,2,2,31,3,2,1,3,0.990357638829902,1.05796532898844
"32",6,27,2,2,32,1,2,1,5,0.353269091816329,0.321116822962521
"33",6,18,2,1,33,3,1,1,3,0.736678127187188,0.685546368486118
"34",6,37,2,2,34,3,2,1,3,1.1228518563864,1.04125374253197
"35",6,31,2,2,35,1,2,1,4,0.539191112810538,0.528262245905969
"36",6,21,2,2,36,1,2,1,4,0.253242186257427,0.233472958372231
"37",6,38,2,2,37,2,1,0,2,0.630695893949033,0.61375076012668
"38",6,35,2,1,38,3,1,1,2,0.937247040574658,0.985128853402522
"39",6,38,2,2,39,3,2,1,2,0.889576788119703,0.901392348546712
"40",6,34,2,2,40,1,2,1,4,0.501043844418538,0.501720408146335
"41",6,33,2,1,41,3,1,1,2,0.649822579629056,0.656082585342076
"42",6,27,2,2,42,3,2,1,3,1.07881237415338,1.07726407548356
"43",6,18,2,1,43,2,1,1,4,0.911332880671903,0.84517436814751
"44",6,37,2,2,44,2,2,1,4,0.659858816094364,0.690027442719406
"45",6,31,2,1,45,2,2,0,2,0.77499669458995,0.834666413570906
"46",6,21,2,1,46,1,1,1,4,0.393186065291051,0.387775063249805
"47",6,38,2,2,47,3,2,1,3,0.927339781327421,0.994384472984084
"48",6,35,2,2,48,2,2,1,3,0.608425325799533,0.603877794721995
"49",6,38,2,2,49,1,1,0,3,0.538995332602547,0.554002195294895
"50",6,34,2,2,50,2,1,0,2,0.409029664241605,0.453496794564663
"51",6,33,2,2,51,1,2,1,5,0.388983271178758,0.336620481412693
"52",6,27,2,1,52,1,1,1,5,0.444918700838451,0.595002596122087
"53",6,18,2,1,53,3,2,0,2,1.20545085587611,1.25608764787427
"54",6,37,2,2,54,2,1,0,3,0.54526113418241,0.612570389242949
"55",6,31,2,2,55,3,2,1,3,0.450778661252667,0.594890828266716
"56",6,21,2,2,56,3,1,0,1,0.465365164103059,0.349538787749296
"57",6,38,2,2,57,2,2,1,3,0.583187822553,0.611429054918409
"58",6,35,2,1,58,3,2,0,1,0.556139780828632,0.526659440845769
"59",6,38,2,2,59,3,2,1,2,0.469657803139499,0.512130805305085
"60",6,34,2,1,60,1,1,1,4,0.44842055771046,0.536762039532831
"61",6,33,2,2,61,2,2,1,4,0.584656346129393,0.605860662397332
"62",6,27,2,1,62,1,2,0,4,0.709068274247987,0.752968381022114
"63",6,18,2,2,63,2,2,1,3,0.505298028107118,0.414651976511749
"64",6,37,2,1,64,1,1,1,4,0.379060582154364,0.326609819336076
"65",6,31,2,2,65,3,1,0,2,0.800299475355103,0.848697511846852
"66",6,21,2,2,66,1,2,1,4,0.423135206186609,0.384332848040955
"67",6,38,2,2,67,3,1,0,2,0.823807036126807,0.772787675107327
"68",6,35,2,1,68,1,1,1,5,0.467988863705388,0.560947705979848
"69",6,38,2,1,69,2,2,0,3,0.63907970938211,0.61263863511029
"70",6,34,2,2,70,3,1,0,1,1.25693464128644,1.22227646777044
"71",6,33,2,2,71,3,2,1,2,1.15702412410349,1.22014852597907
"72",6,27,2,1,72,3,1,1,3,0.666471712150941,0.655784194501611
"73",6,18,2,2,73,2,2,1,3,0.806674422412019,0.780247607087884
"74",6,37,2,1,74,1,1,1,4,0.505809253081548,0.424988994981197
"75",6,31,2,1,75,1,2,0,3,0.443060768727824,0.43047682840719
"76",6,21,2,2,76,1,2,1,5,0.496552547884305,0.416944650453249
"77",6,38,2,2,77,2,1,0,3,0.668160997384419,0.567070778513305
"78",6,35,2,2,78,2,1,0,3,0.443170779754518,0.466826665580121
"79",6,38,2,2,79,2,2,1,3,0.593440421266239,0.56804997319501
"80",6,34,2,2,80,3,1,0,1,1.31523444684973,1.20215546459469
"81",6,33,2,1,81,1,2,0,4,0.582431502671152,0.534250182033243
"82",6,27,2,1,82,1,2,0,3,0.63744221427708,0.670691594227592
"83",6,18,2,1,83,1,1,1,4,0.485369656688211,0.529529023031685
"84",6,37,2,1,84,3,1,1,2,0.85011707555027,0.791712595491998
"85",6,31,2,1,85,2,2,0,3,0.781171324912079,0.742076310314178
"86",6,21,2,2,86,1,2,1,4,0.445729573240984,0.48795960065467
"87",6,38,2,2,87,1,2,1,5,0.37117800006891,0.379022145464665
"88",6,35,2,2,88,3,1,0,2,0.960856287625555,0.960726693039078
"89",6,38,2,2,89,3,1,0,1,0.292780639073467,0.336912301631555
"90",6,34,2,2,90,3,1,0,2,1.188282266727,1.17795844867212
"91",6,33,2,1,91,3,1,1,2,1.08213849017359,1.06172617292739
"92",6,27,2,1,92,2,2,0,3,0.733543889199399,0.725807224285299
"93",6,18,2,1,93,1,1,1,4,0.350094413818698,0.389685764744422
"94",6,37,2,1,94,3,1,1,3,0.843284367095503,0.932890834159181
"95",6,31,2,2,95,3,1,0,1,0.981898250625864,1.00465617686551
"96",6,21,2,2,96,3,1,0,2,1.09727924361732,1.09592588821863
"97",6,38,2,1,97,1,1,1,4,0.365537056901511,0.346316184887041
"98",6,35,2,1,98,1,1,1,5,0.489617762401573,0.462236775378444
"99",6,38,2,2,99,1,2,1,5,0.359775134475616,0.333511342413256
"100",6,34,2,1,100,1,2,0,3,0.561109296111588,0.608205066317669
"101",6,33,2,1,101,3,1,1,3,0.47221238079325,0.527207003844611
"102",6,27,2,1,102,2,2,0,2,0.672338738345904,0.718155579422482
"103",6,18,2,2,103,3,1,0,2,1.20079600306021,1.25140191339563
"104",6,37,2,2,104,1,2,1,4,0.543315116450589,0.545128787159619
"105",6,31,2,2,105,2,2,1,4,0.577420393553489,0.598586674472592
"106",6,21,2,2,106,2,2,1,4,0.635798677832187,0.734623369695689
"107",6,38,2,1,107,1,1,1,4,0.417069746159717,0.524380720244012
"108",6,35,2,2,108,1,1,0,3,0.561639400455706,0.546991758846541
"109",6,38,2,1,109,2,2,0,2,0.729348259417464,0.750503957330132
"110",6,34,2,2,110,3,1,0,1,0.714177483253376,0.747500679561866
"111",6,33,2,1,111,2,1,1,3,0.44788726548984,0.330147961458665
"112",6,27,2,1,112,2,1,1,4,0.673418164440661,0.669963738107711
"113",6,18,2,1,113,3,2,0,1,1.64934168372303,1.58828248755953
"114",6,37,2,1,114,3,1,1,3,0.392204866285938,0.411943206199695
"115",6,31,2,2,115,3,2,1,3,0.858940794707269,0.861281911974048
"116",6,21,2,2,116,2,1,0,2,0.696438966985921,0.68432195938617
"117",6,38,2,1,117,1,1,1,4,0.293274487513971,0.319230838695178
"118",6,35,2,2,118,3,2,1,3,0.545859006619132,0.500199938758618
"119",6,38,2,1,119,3,2,0,1,1.12127677747221,1.10588354391455
"120",6,34,2,1,120,3,1,1,3,0.425511187682777,0.361448784292717
"121",6,33,2,1,121,2,1,1,3,0.710928132730733,0.740505511922503
"122",6,27,2,1,122,2,1,1,4,0.475165878690085,0.49374902413669
"123",6,18,2,1,123,3,2,0,2,1.48735228163522,1.37617180304822
"124",6,37,2,1,124,1,1,1,4,0.356896118082042,0.306475083865314
"125",6,31,2,2,125,2,1,0,3,0.723386031472775,0.79399421427057
"126",6,21,2,1,126,2,1,1,4,0.418143895224357,0.382480471373817
"127",6,38,2,1,127,1,1,1,5,0.360512865851039,0.357843854859561
"128",6,35,2,1,128,1,1,1,4,0.55933819738095,0.626129954064588
"129",6,38,2,1,129,2,2,0,2,0.684704246692626,0.683181603682682
"130",6,34,2,1,130,1,1,1,4,0.316824604930207,0.317777814687775
"131",6,33,2,1,131,2,1,1,4,0.761261835021647,0.798603423045738
"132",6,27,2,2,132,1,2,1,4,0.386266343777847,0.430098760819692
"133",6,18,2,2,133,1,2,1,4,0.366843375787272,0.323690246496971
"134",6,37,2,2,134,1,2,1,5,0.354114796671236,0.374052281387049
"135",6,31,2,2,135,3,2,1,3,0.498679118741025,0.48568781366103
"136",6,21,2,1,136,2,1,1,4,0.661751995290277,0.709001454169576
"137",6,38,2,1,137,3,2,0,2,0.879192271758916,0.901991765703062
"138",6,35,2,2,138,1,2,1,5,0.422699820887377,0.324353966123612
"139",6,38,2,1,139,1,1,1,5,0.433099859289096,0.393379990213543
"140",6,34,2,1,140,2,2,0,2,0.882790134872455,0.894153784703605
"141",6,33,2,1,141,2,2,0,2,0.869760265231231,0.840502426369268
"142",6,27,2,2,142,2,2,1,4,0.866527472973808,0.897817489625824
"143",6,18,2,2,143,3,1,0,1,0.16058712511662,0.197800139895925
"144",6,37,2,2,144,3,2,1,2,0.678513293068906,0.76659324760857
"145",6,31,2,2,145,2,1,0,3,0.159429622997681,0.173922242355041
"146",6,21,2,1,146,1,1,1,5,0.376815976206802,0.383743394287473
"147",6,38,2,2,147,1,2,1,5,0.350137006869499,0.403351549069651
"148",6,35,2,1,148,3,1,1,3,0.754067211469087,0.750357398490844
"149",6,38,2,2,149,3,1,0,2,0.676671860034727,0.693143201056949
"150",6,34,2,2,150,1,2,1,4,0.432303153247797,0.458669558556457
"151",6,33,2,1,151,1,1,1,5,0.453013793087476,0.461965521053255
"152",6,27,2,1,152,3,2,0,1,0.944019554973171,0.962488105970631
"153",6,18,2,2,153,1,1,0,3,0.423208963921113,0.364518980015549
"154",6,37,2,1,154,2,1,1,4,0.780763784000444,0.780852791137786
"155",6,31,2,2,155,2,1,0,2,0.581324685228717,0.58560752468758
"156",6,21,2,1,156,2,1,1,4,0.507668674795024,0.538025662124416
"157",6,38,2,1,157,1,1,1,5,0.439027595431222,0.419269916921556
"158",6,35,2,2,158,3,2,1,3,0.864302446421781,0.795368136422868
"159",6,38,2,2,159,2,1,0,3,0.8107378615465,0.827281472134056
"160",6,34,2,2,160,2,1,0,2,0.691137311925585,0.646604316404601
"161",6,33,2,2,161,3,2,1,3,0.7996202052556,0.776375822068644
"162",6,27,2,1,162,1,1,1,4,0.417680672509649,0.458313732321001
"163",6,18,2,2,163,3,2,1,3,0.975698257955844,1.01744955505797
"164",6,37,2,2,164,2,1,0,3,0.798244795832979,0.832217102310021
"165",6,31,2,1,165,1,1,1,5,0.329603463741773,0.431137165513908
"166",6,21,2,2,166,3,1,0,2,0.712793678875002,0.704581164202595
"167",6,38,2,1,167,1,1,1,5,0.414349965064145,0.431752628254002
"168",6,35,2,1,168,1,1,1,4,0.312768518418006,0.320301331411963
"169",6,38,2,2,169,3,1,0,1,0.732827019966061,0.756075097647215
"170",6,34,2,1,170,1,2,0,4,0.467298630312516,0.47550739136935
"171",6,33,2,1,171,3,2,0,1,0.67576913295173,0.732328403679291
"172",6,27,2,2,172,2,2,1,3,0.617470284522803,0.59690907207442
"173",6,18,2,1,173,1,1,1,4,0.343008015558071,0.303045594981243
"174",6,37,2,2,174,1,2,1,4,0.391116863916972,0.382486418660286
"175",6,31,2,1,175,2,2,0,2,0.658629316205074,0.662973979327777
"176",6,21,2,1,176,2,1,1,4,0.59524472588983,0.531497396691206
"177",6,38,2,2,177,3,2,1,3,1.05207526809425,0.994350802387017
"178",6,35,2,1,178,2,1,1,3,0.532528754446279,0.514538719634133
"179",6,38,2,1,179,1,2,0,4,0.514637992491172,0.51416636576741
"180",6,34,2,2,180,2,2,1,3,0.746093684418643,0.731272801345557
"181",6,33,2,2,181,2,1,0,3,0.604944374094875,0.55528112696345
"182",6,27,2,2,182,1,2,1,5,0.495908919298338,0.544307330701331
"183",6,18,2,1,183,1,1,1,5,0.327364659752822,0.336851954032835
"184",6,37,2,2,184,1,2,1,5,0.43683630015368,0.476126232648688
"185",6,31,2,1,185,3,2,0,1,1.2187755286342,1.11079766365855
"186",6,21,2,2,186,2,2,1,3,0.403893981707733,0.444619080767785
"187",6,38,2,1,187,2,1,1,4,0.566294647356747,0.474042944316499
"188",6,35,2,1,188,2,1,1,3,0.638443845338112,0.600726052032935
"189",6,38,2,1,189,2,2,0,3,0.711951467508976,0.724693596630252
"190",6,34,2,1,190,2,1,1,4,0.546289590773656,0.554826115088647
"191",6,33,2,1,191,3,1,1,2,0.972125137675919,1.01544441103752
"192",6,27,2,2,192,1,2,1,4,0.460554252624795,0.394343927113836
"193",6,18,2,2,193,3,1,0,1,1.00710841131838,1.01480202895491
"194",6,37,2,2,194,3,2,1,3,0.930263695594861,0.85460350485632
"195",6,31,2,2,195,2,1,0,3,0.658632621297003,0.714106765802188
"196",6,21,2,1,196,3,1,1,3,0.810840047859052,0.873206846787296
"197",6,38,2,2,197,3,2,1,2,0.844188328203684,0.791041035585391
"198",6,35,2,1,198,1,1,1,5,0.416744530722904,0.484346433306093
"199",6,38,2,2,199,2,2,1,3,0.42030142360304,0.434461970502085
"200",6,34,2,1,200,1,1,1,4,0.353316318298955,0.365087316313082
"201",6,33,2,1,201,2,1,1,3,0.506638009972306,0.496452054894099
"202",6,27,2,1,202,2,2,0,2,0.739870449039718,0.70613651745863
"203",6,18,2,1,203,1,1,1,5,0.405176977087846,0.351621556407533
"204",6,37,2,1,204,3,2,0,2,1.28473204648538,1.3100023672472
"205",6,31,2,2,205,1,1,0,4,0.446024350459496,0.414022504819188
"206",6,21,2,1,206,3,2,0,2,0.273218897857104,0.371113355823706
"207",6,38,2,2,207,1,2,1,5,0.377755642042531,0.427576831307045
"208",6,35,2,1,208,2,1,1,4,0.594521695088792,0.528207899556307
"209",6,38,2,1,209,3,2,0,1,0.375980841692928,0.414600342222527
"210",6,34,2,2,210,1,2,1,4,0.463082377450251,0.483539976098866
"211",6,33,2,2,211,1,2,1,5,0.40802644008315,0.401329307532214
"212",6,27,2,1,212,3,1,1,2,1.21608199578592,1.20451668411956
"213",6,18,2,2,213,1,2,1,5,0.457668872477503,0.541923408962617
"214",6,37,2,2,214,2,2,1,3,0.844614287964925,0.839004742372319
"215",6,31,2,1,215,3,2,0,1,1.02171116240491,1.03694873501806
"216",6,21,2,1,216,2,1,1,4,0.554455144239287,0.602350469958257
"217",6,38,2,2,217,2,2,1,3,0.482985670376132,0.567275525732927
"218",6,35,2,2,218,3,2,1,2,0.723619326403066,0.742497546758112
"219",6,38,2,2,219,2,2,1,3,0.419324944084236,0.479798426397003
"220",6,34,2,2,220,2,2,1,3,0.555836192249387,0.495239479647039
"221",6,33,2,1,221,1,1,1,5,0.347693813110601,0.385915238317895
"222",6,27,2,1,222,1,1,1,5,0.340544436616311,0.314568879214588
"223",6,18,2,1,223,3,2,0,1,1.46010831993494,1.43123698129062
"224",6,37,2,2,224,3,2,1,3,0.847831542264908,0.890221713120005
"225",6,31,2,1,225,3,2,0,1,1.04821612890547,1.02348801063568
"226",6,21,2,1,226,1,1,1,4,0.448365496174411,0.445514360295514
"227",6,38,2,1,227,1,1,1,4,0.425494362147744,0.431539692856561
"228",6,35,2,2,228,2,1,0,3,0.875061731126681,0.791572800997912
"229",6,38,2,2,229,3,1,0,2,0.842150621754288,0.965014121685308
"230",6,34,2,2,230,3,2,1,3,0.485809799193683,0.451127291489917
"231",6,33,2,1,231,1,2,0,4,0.587274048032101,0.62138524044474
"232",6,27,2,2,232,3,2,1,2,0.661329198949467,0.602643480480845
"233",6,18,2,1,233,3,2,0,2,1.62121830900062,1.62048782559864
"234",6,37,2,2,234,3,1,0,1,0.968122001596814,0.965240859607324
"235",6,31,2,2,235,1,2,1,5,0.280825336069487,0.232794221433386
"236",6,21,2,1,236,1,2,0,4,0.669112226199599,0.689384725945762
"237",6,38,2,2,237,1,2,1,5,0.426998778348062,0.441925422610255
"238",6,35,2,1,238,2,2,0,3,0.51912187917926,0.55716675214333
"239",6,38,2,1,239,3,2,0,1,0.848783072913074,0.714132013710066
"240",6,34,2,1,240,1,1,1,5,0.327115124057836,0.372145924067948
"241",5,31,1,2,1,2,1,0,3,0.453007417594605,0.385012433501047
"242",5,32,1,2,2,2,2,1,4,0.615512037120161,0.613402875224354
"243",5,24,1,2,3,2,2,1,4,0.468516044606558,0.530790174017446
"244",5,37,1,2,4,2,2,1,4,0.716352792584234,0.762324622919692
"245",5,19,1,2,5,1,2,1,5,0.3031626253707,0.314780373960688
"246",5,38,1,2,6,1,1,0,4,0.62924232300726,0.596954034552569
"247",5,33,1,2,7,3,1,0,2,0.683713614819782,0.71037019180832
"248",5,24,1,1,8,3,1,1,3,0.880394505735528,0.876709783315578
"249",5,30,1,2,9,2,2,1,3,0.291179663727054,0.240212521277396
"250",5,37,1,2,10,2,2,1,3,0.75183648500899,0.775830277656621
"251",5,31,1,2,11,2,2,1,3,0.586922851132247,0.643745538224123
"252",5,32,1,1,12,1,2,0,3,0.499462199661743,0.50268972922205
"253",5,24,1,2,13,1,2,1,5,0.272532660256892,0.256540764930021
"254",5,37,1,2,14,3,2,1,3,0.678454917517359,0.643149290659215
"255",5,19,1,1,15,3,1,1,2,0.793432244769265,0.873846400813409
"256",5,38,1,1,16,3,1,1,3,0.665894281908457,0.720806743631099
"257",5,33,1,2,17,3,2,1,3,0.914683491375875,0.862930789486309
"258",5,24,1,1,18,3,1,1,2,0.248789931659605,0.291956419608407
"259",5,30,1,2,19,1,2,1,5,0.534101290565317,0.528945253634409
"260",5,37,1,2,20,2,1,0,2,0.683320667764236,0.633377007045884
"261",5,31,1,2,21,3,2,1,3,1.06252199138265,1.04804153108887
"262",5,32,1,2,22,1,2,1,5,0.488267218480129,0.5157148831352
"263",5,24,1,2,23,1,2,1,5,0.504203982930992,0.399455820908023
"264",5,37,1,1,24,1,1,1,5,0.29780285238023,0.318876355491624
"265",5,19,1,2,25,1,2,1,5,0.246474627136455,0.21730320073803
"266",5,38,1,1,26,1,2,0,4,0.296127483224334,0.38159547961199
"267",5,33,1,1,27,3,1,1,3,0.710277257330969,0.668501994299129
"268",5,24,1,1,28,1,1,1,4,0.402578892662655,0.407038262804489
"269",5,30,1,1,29,1,2,0,4,0.661649185982652,0.623310908056132
"270",5,37,1,2,30,2,2,1,3,0.57060489864789,0.650546705547833
"271",5,31,1,1,31,3,2,0,1,1.64605947883202,1.52530804626717
"272",5,32,1,2,32,1,2,1,4,0.318330068950833,0.383770578542198
"273",5,24,1,1,33,3,1,1,3,0.695929166204405,0.646043718535735
"274",5,37,1,1,34,2,1,1,4,0.498490852591887,0.528687240732038
"275",5,19,1,2,35,2,2,1,3,0.507693011442929,0.39870750880241
"276",5,38,1,1,36,2,2,0,2,0.567345212493142,0.601815272037692
"277",5,33,1,1,37,3,1,1,2,1.19564791058239,1.24045454875104
"278",5,24,1,2,38,1,1,0,3,0.476580995122917,0.423088546966593
"279",5,30,1,2,39,1,2,1,5,0.410199788332385,0.371592880207489
"280",5,37,1,1,40,3,1,1,3,0.902665827002397,0.873765330327106
"281",5,31,1,1,41,2,1,1,3,0.792103871046817,0.763167942574119
"282",5,32,1,2,42,3,1,0,1,0.703607023290633,0.709949774956959
"283",5,24,1,2,43,2,2,1,3,0.518902938816934,0.576386010153584
"284",5,37,1,2,44,2,1,0,2,0.602635540643482,0.612963919299578
"285",5,19,1,2,45,3,1,0,2,0.893482777213326,0.874755117216253
"286",5,38,1,1,46,1,1,1,4,0.243446190488541,0.269419076739325
"287",5,33,1,2,47,2,2,1,4,0.576527617699607,0.531052848916297
"288",5,24,1,1,48,3,1,1,2,0.788623682320221,0.841257301188245
"289",5,30,1,2,49,2,2,1,4,0.602124765413162,0.672030133830741
"290",5,37,1,1,50,1,1,1,5,0.276231423708257,0.296394363445731
"291",5,31,1,2,51,2,2,1,3,0.745451670606446,0.727614542056266
"292",5,32,1,2,52,3,2,1,2,0.873351830472918,0.830608278934664
"293",5,24,1,1,53,3,2,0,1,1.33765652533451,1.33165662824462
"294",5,37,1,2,54,3,2,1,3,0.941288282416913,0.917831831117339
"295",5,19,1,2,55,1,2,1,4,0.510607751715549,0.489176469655373
"296",5,38,1,2,56,2,1,0,2,0.89485223999122,0.90619052922992
"297",5,33,1,2,57,3,2,1,2,1.08778281149666,1.04335540914691
"298",5,24,1,2,58,3,1,0,2,1.05012319100503,1.07635393718605
"299",5,30,1,1,59,3,1,1,3,0.639553204221574,0.689849473403186
"300",5,37,1,2,60,1,2,1,4,0.500051104916561,0.537407607665233
"301",5,31,1,1,61,1,1,1,4,0.517701137838306,0.525322034584696
"302",5,32,1,2,62,2,2,1,3,0.560922187842661,0.591717059259187
"303",5,24,1,2,63,1,2,1,5,0.381695899554554,0.379033476390301
"304",5,37,1,1,64,2,1,1,4,0.75657475747406,0.722611984978246
"305",5,19,1,2,65,1,2,1,4,0.372026061578258,0.343968121684305
"306",5,38,1,2,66,1,2,1,5,0.38586464893245,0.418637272603915
"307",5,33,1,1,67,2,1,1,4,0.540831546895048,0.539929710405577
"308",5,24,1,2,68,3,1,0,1,1.23558030507569,1.23654681291616
"309",5,30,1,1,69,3,1,1,3,0.846245034408336,0.785177494607868
"310",5,37,1,1,70,3,2,0,2,0.606703586388162,0.536736750168182
"311",5,31,1,1,71,3,1,1,3,0.957752078036014,0.971926772583454
"312",5,32,1,2,72,2,1,0,2,0.777976324799986,0.768433074277947
"313",5,24,1,1,73,1,1,1,5,0.447149211916497,0.416514601242006
"314",5,37,1,1,74,3,2,0,2,1.52817269543202,1.45925875465482
"315",5,19,1,1,75,3,1,1,2,0.57799849231002,0.633350942215147
"316",5,38,1,1,76,1,1,1,4,0.300855775459977,0.221024552879939
"317",5,33,1,2,77,3,2,1,2,0.724017539384578,0.738540002311038
"318",5,24,1,1,78,1,1,1,5,0.329470688910858,0.356116529323848
"319",5,30,1,2,79,1,1,0,4,0.594172509966116,0.670924015026163
"320",5,37,1,1,80,2,2,0,3,0.703511634149873,0.656270960811645
"321",5,31,1,2,81,1,2,1,5,0.432630249805049,0.445338265905749
"322",5,32,1,1,82,3,2,0,1,1.21218983819761,1.19088385621647
"323",5,24,1,1,83,2,2,0,2,0.746308299861437,0.739803085804071
"324",5,37,1,2,84,3,1,0,1,0.983889764422634,1.04953754878111
"325",5,19,1,2,85,2,2,1,3,0.689711364268613,0.684104624126034
"326",5,38,1,1,86,1,1,1,5,0.43898337688891,0.422785330785303
"327",5,33,1,1,87,2,2,0,3,0.562076273174443,0.613215541599442
"328",5,24,1,2,88,3,2,1,3,0.580519259336781,0.525740864331217
"329",5,30,1,1,89,2,1,1,4,0.401209720603638,0.477978134471256
"330",5,37,1,1,90,2,1,1,3,0.748258499462617,0.728105634821012
"331",5,31,1,1,91,2,2,0,2,0.698514866876269,0.689202195013592
"332",5,32,1,1,92,2,2,0,3,0.798811058665075,0.861337173057629
"333",5,24,1,1,93,3,1,1,3,0.973068612901538,0.879695092785725
"334",5,37,1,2,94,3,2,1,3,0.697694769085012,0.679276668784686
"335",5,19,1,2,95,1,2,1,4,0.353199763777235,0.361849741078475
"336",5,38,1,2,96,3,1,0,1,1.12956988410326,1.15906720378114
"337",5,33,1,1,97,1,1,1,4,0.527892091900163,0.574834882518449
"338",5,24,1,1,98,1,1,1,4,0.398260059693893,0.443868695903521
"339",5,30,1,1,99,1,2,0,3,0.512697042672339,0.498718836616148
"340",5,37,1,1,100,3,1,1,2,0.681973834143873,0.654733578617372
"341",5,31,1,1,101,1,1,1,4,0.534463264927475,0.567821209023211
"342",5,32,1,1,102,2,2,0,3,1.00733659732623,1.10977311966315
"343",5,24,1,2,103,1,2,1,4,0.272320733319638,0.26152424046202
"344",5,37,1,2,104,1,2,1,4,0.504845030133099,0.591633095516367
"345",5,19,1,2,105,1,2,1,5,0.376931037296066,0.387681538159083
"346",5,38,1,1,106,3,1,1,3,0.811993908949612,0.862205039780267
"347",5,33,1,1,107,2,1,1,4,0.737391652303238,0.738290351000262
"348",5,24,1,1,108,3,2,0,2,1.39649278484908,1.44248302120635
"349",5,30,1,1,109,1,1,1,5,0.299298995612781,0.272831308689591
"350",5,37,1,2,110,1,2,1,5,0.479075175922228,0.456912696753248
"351",5,31,1,2,111,3,2,1,3,0.720929756702798,0.780829962083283
"352",5,32,1,1,112,2,1,1,4,0.526957129481977,0.527116259706544
"353",5,24,1,2,113,2,2,1,4,0.515699251626578,0.504983582590784
"354",5,37,1,2,114,1,1,0,4,0.454829321701694,0.409762623419492
"355",5,19,1,2,115,1,2,1,4,0.306307756026748,0.340772526667843
"356",5,38,1,1,116,2,2,0,2,0.818298772420395,0.763168393896752
"357",5,33,1,1,117,2,1,1,3,0.601256261074197,0.600339011833047
"358",5,24,1,1,118,2,2,0,2,0.486916883373757,0.507123553094504
"359",5,30,1,2,119,2,1,0,3,0.835124463630216,0.838594468239173
"360",5,37,1,2,120,3,1,0,2,1.01694029240889,1.08086356886679
"361",5,31,1,1,121,2,2,0,3,0.521906726134632,0.595037351581999
"362",5,32,1,2,122,1,2,1,5,0.441098396791266,0.496890719334709
"363",5,24,1,2,123,2,1,0,2,0.968293429978257,0.863905158030966
"364",5,37,1,2,124,1,1,0,4,0.652613922366401,0.689556225315027
"365",5,19,1,2,125,1,2,1,4,0.593855482368004,0.607103642286024
"366",5,38,1,1,126,2,1,1,4,0.369518319616391,0.327277201344936
"367",5,33,1,1,127,3,1,1,3,0.734552121475569,0.697052737872431
"368",5,24,1,1,128,3,1,1,3,1.06563168395482,1.03453423521815
"369",5,30,1,1,129,3,2,0,2,0.97091526694006,0.990916720156991
"370",5,37,1,1,130,3,2,0,1,0.553907388894931,0.569586254599026
"371",5,31,1,2,131,2,2,1,3,0.589687277741711,0.488403927004653
"372",5,32,1,2,132,2,1,0,2,0.662948899893924,0.595364063247811
"373",5,24,1,2,133,2,2,1,3,0.707166320356499,0.745849231494701
"374",5,37,1,2,134,1,2,1,4,0.487696609222044,0.413888676946939
"375",5,19,1,2,135,3,2,1,2,0.682759464516478,0.671697527265423
"376",5,38,1,2,136,3,1,0,2,1.33275836589485,1.29561415699668
"377",5,33,1,1,137,2,1,1,4,0.585808058583846,0.577190200816851
"378",5,24,1,2,138,3,2,1,2,0.658259748843853,0.607230165657928
"379",5,30,1,1,139,3,1,1,2,0.66981835000772,0.655802307960555
"380",5,37,1,1,140,1,1,1,5,0.508511175431446,0.457068810683807
"381",5,31,1,1,141,2,2,0,2,0.827154504058315,0.780536863286865
"382",5,32,1,1,142,3,1,1,3,0.767746457223606,0.794181680366263
"383",5,24,1,1,143,3,2,0,2,0.868487347149308,0.939638648090512
"384",5,37,1,1,144,2,2,0,2,0.700041474579912,0.723813041748671
"385",5,19,1,2,145,2,1,0,3,0.960442359994863,0.896141417783591
"386",5,38,1,1,146,2,1,1,3,0.655560655052104,0.552857587504004
"387",5,33,1,2,147,1,2,1,5,0.47867850161803,0.455883093227607
"388",5,24,1,1,148,2,2,0,3,0.625221561332575,0.674414623513487
"389",5,30,1,1,149,2,1,1,3,0.699242681852156,0.724568261551946
"390",5,37,1,2,150,3,1,0,1,0.976368131562776,0.882545746158308
"391",5,31,1,1,151,2,1,1,3,0.684723350955352,0.650461704749403
"392",5,32,1,2,152,1,1,0,4,0.407921839799676,0.400420490166589
"393",5,24,1,2,153,2,2,1,4,0.578276458102528,0.508512574345218
"394",5,37,1,2,154,2,2,1,4,0.513437952251278,0.518573306320485
"395",5,19,1,2,155,3,1,0,1,0.904733862307668,0.923507918954161
"396",5,38,1,2,156,2,1,0,3,0.563329454264778,0.513027793962222
"397",5,33,1,1,157,2,2,0,3,0.661244931894339,0.624929070407089
"398",5,24,1,1,158,1,2,0,3,0.505205688381232,0.548543866634078
"399",5,30,1,1,159,1,1,1,5,0.520140994638072,0.645260171877291
"400",5,37,1,1,160,1,1,1,4,0.543037475796815,0.515213929341874
"401",5,31,1,2,161,3,1,0,1,0.940839912199281,0.913539553349566
"402",5,32,1,2,162,3,1,0,1,1.02974122268356,1.04747127829022
"403",5,24,1,2,163,1,2,1,5,0.23825760171526,0.196379597539696
"404",5,37,1,1,164,3,1,1,3,0.827297877190229,0.84570720850238
"405",5,19,1,1,165,3,2,0,2,1.22891361045038,1.30646049919535
"406",5,38,1,1,166,2,2,0,2,1.00718503839718,0.994642961345043
"407",5,33,1,1,167,2,2,0,2,1.02378981212802,0.978226004833725
"408",5,24,1,2,168,1,2,1,4,0.444351488679223,0.401858824122345
"409",5,30,1,2,169,3,1,0,1,0.995848477549638,0.980102646956395
"410",5,37,1,2,170,1,2,1,5,0.418921946458027,0.440613039628893
"411",5,31,1,2,171,2,2,1,3,0.76184866860444,0.714438924433267
"412",5,32,1,1,172,1,1,1,4,0.265484396879018,0.30906087694165
"413",5,24,1,2,173,1,2,1,5,0.141660642044619,0.105196508413067
"414",5,37,1,1,174,2,2,0,3,0.573520960540417,0.585746722553032
"415",5,19,1,1,175,1,1,1,4,0.3158980345438,0.333952060303871
"416",5,38,1,1,176,3,1,1,3,1.10823798321468,1.00250625618132
"417",5,33,1,1,177,3,1,1,3,0.756490603601633,0.793784734566678
"418",5,24,1,1,178,1,1,1,5,0.487774562005156,0.393404570886812
"419",5,30,1,1,179,2,2,0,3,0.910173807338226,0.818546663132571
"420",5,37,1,1,180,1,2,0,3,0.63354955089375,0.666120861475819
"421",5,31,1,1,181,1,1,1,4,0.369661854542688,0.266776345111226
"422",5,32,1,2,182,2,2,1,3,0.422099894040261,0.391171144466942
"423",5,24,1,2,183,2,1,0,2,0.944555314537308,1.01171892150632
"424",5,37,1,1,184,2,1,1,4,0.529559020059364,0.585690280865538
"425",5,19,1,1,185,2,2,0,2,0.877170778620036,0.906451433492509
"426",5,38,1,2,186,2,2,1,3,0.788694836838262,0.882817206674306
"427",5,33,1,1,187,3,2,0,1,1.77029231422012,1.78097378923063
"428",5,24,1,1,188,1,1,1,5,0.419341713493393,0.448129392090364
"429",5,30,1,2,189,3,2,1,3,0.815444919968383,0.77201949957702
"430",5,37,1,2,190,2,2,1,4,0.607051516673495,0.664583472526831
"431",5,31,1,2,191,3,2,1,2,0.814224536180334,0.8870336241454
"432",5,32,1,1,192,3,2,0,1,-0.0519645231242893,-0.0649649677924959
"433",5,24,1,2,193,2,1,0,3,0.565179926265813,0.585786870493541
"434",5,37,1,2,194,1,1,0,4,0.464570573810851,0.478435283735725
"435",5,19,1,1,195,3,1,1,3,0.674229853909647,0.647086687661618
"436",5,38,1,1,196,1,1,1,5,0.472382643329509,0.45878669309806
"437",5,33,1,1,197,2,2,0,2,0.622261732296996,0.657314107621329
"438",5,24,1,2,198,1,2,1,4,0.550489284421345,0.57180884813296
"439",5,30,1,2,199,3,1,0,1,1.49279923686823,1.57458621156405
"440",5,37,1,2,200,1,1,0,3,0.42324183113988,0.467888915740641
"441",5,31,1,2,201,1,2,1,4,0.38839427632173,0.42676948299901
"442",5,32,1,2,202,1,2,1,5,0.259142222502092,0.314942472491554
"443",5,24,1,1,203,1,1,1,5,0.401143142159168,0.476215670704935
"444",5,37,1,1,204,1,2,0,3,0.419530445378847,0.339411560222903
"445",5,19,1,2,205,3,1,0,2,0.286115426728246,0.271387714032371
"446",5,38,1,1,206,3,2,0,1,0.248139773273486,0.204566754215881
"447",5,33,1,2,207,3,1,0,2,0.282635505595719,0.28408948579233
"448",5,24,1,2,208,3,2,1,3,0.797062318524358,0.733848238384511
"449",5,30,1,2,209,2,2,1,3,0.478064738455978,0.494290094568101
"450",5,37,1,1,210,1,1,1,4,0.282437521800447,0.278206321280817
"451",5,31,1,1,211,2,2,0,3,0.531641299364223,0.58065830998007
"452",5,32,1,2,212,1,2,1,5,0.307192980553586,0.222413907399552
"453",5,24,1,2,213,2,1,0,3,0.699573367032444,0.667933198237923
"454",5,37,1,2,214,1,1,0,4,0.65098251385063,0.718639759212322
"455",5,19,1,1,215,2,1,1,3,0.545848986102501,0.571302370089687
"456",5,38,1,1,216,3,1,1,3,0.698598203022506,0.697080636848544
"457",5,33,1,1,217,2,1,1,3,0.555773276235561,0.46717515998412
"458",5,24,1,1,218,3,1,1,2,0.76033888701009,0.800840537769945
"459",5,30,1,1,219,2,1,1,4,0.686453420437564,0.685364047351149
"460",5,37,1,1,220,1,1,1,4,0.429302339761391,0.331234914752145
"461",5,31,1,2,221,1,2,1,5,0.39078977738633,0.365532505591745
"462",5,32,1,1,222,2,2,0,2,0.814479551403532,0.817467804270437
"463",5,24,1,1,223,2,1,1,4,0.856626289301528,0.855334229074275
"464",5,37,1,2,224,3,1,0,1,1.17557624486907,1.22101620263323
"465",5,19,1,1,225,3,2,0,1,1.01981747608428,0.984863176460358
"466",5,38,1,1,226,3,2,0,1,1.75349836780281,1.75327019011251
"467",5,33,1,2,227,1,2,1,5,0.408446295787234,0.407905860585645
"468",5,24,1,1,228,2,1,1,3,0.447918897061203,0.46634998480918
"469",5,30,1,2,229,1,2,1,5,0.409035615916775,0.450800691668003
"470",5,37,1,1,230,3,1,1,2,1.05467312875007,1.0520515964262
"471",5,31,1,2,231,1,2,1,4,0.235079048253511,0.174344304407582
"472",5,32,1,1,232,1,1,1,5,0.44345489114016,0.293916256993275
"473",5,24,1,2,233,1,2,1,5,0.389522444814802,0.441687342230161
"474",5,37,1,1,234,3,2,0,1,1.06097792154508,1.13770353342145
"475",5,19,1,1,235,3,2,0,2,0.906995771785513,0.895089668457674
"476",5,38,1,1,236,3,2,0,1,1.21468133373556,1.23157035138598
"477",5,33,1,2,237,1,2,1,5,0.467844256749701,0.466743180189251
"478",5,24,1,2,238,3,1,0,2,1.21573903903914,1.28821619853088
"479",5,30,1,2,239,2,2,1,4,0.477062168116997,0.535977271487957
"480",5,37,1,2,240,3,2,1,2,0.68009078213779,0.652846763908022
"481",4,23,2,1,1,1,1,1,5,0.493059492341796,0.475547735689903
"482",4,33,2,2,2,2,2,1,3,0.508186495220846,0.535755839483012
"483",4,32,2,1,3,3,2,0,2,1.09907422160386,1.06980943261466
"484",4,19,2,2,4,2,2,1,4,0.641546990021829,0.614455252508825
"485",4,23,2,2,5,1,2,1,5,0.400291167808732,0.342776904098199
"486",4,36,2,1,6,2,2,0,2,0.78613241756159,0.799686836830033
"487",4,22,2,2,7,1,1,0,3,0.603933555524593,0.680323105680719
"488",4,39,2,2,8,3,2,1,3,0.785700173341339,0.758474364850145
"489",4,24,2,2,9,1,2,1,5,0.518701588664621,0.471551662367027
"490",4,18,2,2,10,1,2,1,4,0.483270925811658,0.565815060600028
"491",4,23,2,1,11,2,1,1,3,0.502232076550323,0.479462612175568
"492",4,33,2,1,12,1,1,1,5,0.450338531020307,0.495084628014577
"493",4,32,2,2,13,1,2,1,4,0.359020147283582,0.34126241273695
"494",4,19,2,2,14,3,1,0,2,1.19019516953236,1.10825239326248
"495",4,23,2,2,15,2,2,1,4,0.41890378592393,0.46510932366848
"496",4,36,2,2,16,3,1,0,1,0.40217651654556,0.416677887256716
"497",4,22,2,2,17,3,2,1,2,0.516735701791263,0.472224283705265
"498",4,39,2,2,18,2,2,1,3,0.605880598077586,0.605278067101887
"499",4,24,2,1,19,2,2,0,2,0.612726290975285,0.645761964854031
"500",4,18,2,1,20,2,2,0,2,0.731863290613291,0.730050483637115
"501",4,23,2,2,21,1,2,1,5,0.357266768919558,0.402677143040663
"502",4,33,2,2,22,2,2,1,4,0.689941719568779,0.689127743730584
"503",4,32,2,1,23,3,1,1,2,0.679002627078985,0.703952020115721
"504",4,19,2,1,24,1,1,1,4,0.308161245582246,0.362486938187832
"505",4,23,2,1,25,3,1,1,3,0.939725964724026,0.889394023844498
"506",4,36,2,2,26,3,1,0,1,1.06892862375964,1.13443435108534
"507",4,22,2,1,27,1,1,1,5,0.50812087801479,0.525405203801369
"508",4,39,2,1,28,3,2,0,2,1.03893272255093,1.07193449888705
"509",4,24,2,1,29,3,1,1,2,1.03496571441792,1.01447318834251
"510",4,18,2,1,30,2,2,0,2,0.510535554006608,0.518075298820716
"511",4,23,2,1,31,2,2,0,3,0.609053735414593,0.612361047851339
"512",4,33,2,2,32,2,1,0,2,0.907089848814579,0.91631113260056
"513",4,32,2,1,33,1,1,1,4,0.434343178888927,0.42828493180325
"514",4,19,2,2,34,2,2,1,4,0.73650864739854,0.690583098879329
"515",4,23,2,1,35,3,1,1,2,0.619684261014196,0.608216187049042
"516",4,36,2,1,36,1,1,1,4,0.384352093136771,0.362150207534625
"517",4,22,2,2,37,1,2,1,4,0.406550540985545,0.446083806516051
"518",4,39,2,2,38,3,1,0,1,1.257440299831,1.28560974379952
"519",4,24,2,1,39,1,1,1,5,0.377676502223165,0.345642201168023
"520",4,18,2,1,40,3,1,1,2,1.16874897815793,1.08813570021719
"521",4,23,2,2,41,3,1,0,1,0.703646653378025,0.79254226445669
"522",4,33,2,2,42,3,2,1,2,0.861390804517252,0.873947466027094
"523",4,32,2,2,43,2,2,1,4,0.4185329734219,0.426641435910263
"524",4,19,2,1,44,3,2,0,1,1.28813364557597,1.29052263939696
"525",4,23,2,1,45,1,1,1,4,0.455189357964039,0.49117586706906
"526",4,36,2,1,46,1,2,0,3,0.547913448000562,0.517991455880471
"527",4,22,2,1,47,2,2,0,3,0.528336240452268,0.543370017244572
"528",4,39,2,1,48,3,1,1,2,0.643372427036263,0.546171637436487
"529",4,24,2,1,49,1,1,1,4,0.418109215522329,0.553100126836385
"530",4,18,2,2,50,2,1,0,3,0.65615891661251,0.593827381444142
"531",4,23,2,1,51,3,2,0,1,1.09691663077072,1.10871382124721
"532",4,33,2,1,52,1,1,1,4,0.468090256828403,0.417881592832251
"533",4,32,2,2,53,1,2,1,4,0.328566681128091,0.278151705185172
"534",4,19,2,1,54,1,1,1,4,0.437113708278437,0.479846358057746
"535",4,23,2,2,55,2,2,1,3,0.447605335198972,0.456786808528096
"536",4,36,2,2,56,2,1,0,3,0.778194950945166,0.775002196748435
"537",4,22,2,2,57,3,1,0,2,0.830127399032492,0.851376625677924
"538",4,39,2,2,58,2,1,0,3,0.85260925265047,0.871892826171425
"539",4,24,2,1,59,2,2,0,3,0.960342209634626,1.04572786888269
"540",4,18,2,2,60,1,2,1,5,0.464468044280097,0.462111073356031
"541",4,23,2,2,61,1,2,1,4,0.416255146370529,0.491790752057711
"542",4,33,2,1,62,3,2,0,2,1.28105690985566,1.40267962257755
"543",4,32,2,2,63,3,2,1,3,0.722821908872166,0.799771257533838
"544",4,19,2,2,64,3,1,0,1,0.735291423560101,0.731788395725015
"545",4,23,2,2,65,1,2,1,4,0.44539641329608,0.39278637733631
"546",4,36,2,1,66,3,2,0,2,1.49065403622773,1.52824036190405
"547",4,22,2,1,67,2,2,0,3,0.764230100880609,0.737758320320551
"548",4,39,2,2,68,3,1,0,1,0.86766375902215,0.824161152111226
"549",4,24,2,1,69,1,1,1,5,0.429500980126736,0.474002356497448
"550",4,18,2,2,70,1,2,1,5,0.426484532949475,0.450504868206811
"551",4,23,2,1,71,3,1,1,2,0.894954516368553,0.880647207955712
"552",4,33,2,1,72,2,1,1,3,0.63655690121233,0.581593670968113
"553",4,32,2,2,73,1,2,1,5,0.297083894226456,0.284307145200347
"554",4,19,2,2,74,2,2,1,3,0.546218983241007,0.632869920221016
"555",4,23,2,2,75,3,2,1,3,0.819553247571662,0.869039909896498
"556",4,36,2,2,76,2,1,0,2,0.788943807953898,0.752178653495422
"557",4,22,2,2,77,3,2,1,3,0.703037688927713,0.733353080149044
"558",4,39,2,1,78,2,1,1,4,0.52959835376312,0.519936395067107
"559",4,24,2,2,79,2,2,1,4,0.607846741046853,0.591287918768435
"560",4,18,2,1,80,2,2,0,3,0.781378016103843,0.865755901989234
"561",4,23,2,2,81,3,2,1,2,0.724598655137244,0.733917709941544
"562",4,33,2,1,82,1,2,0,4,0.63103301945531,0.683101052828216
"563",4,32,2,2,83,3,1,0,1,0.865360702847624,0.910380569224
"564",4,19,2,2,84,2,2,1,4,0.482495276582385,0.551450644660177
"565",4,23,2,2,85,3,2,1,3,1.12069305814603,1.17436823741466
"566",4,36,2,2,86,3,2,1,3,0.652938694292451,0.650113845131499
"567",4,22,2,1,87,1,1,1,5,0.484042217157347,0.465162563824828
"568",4,39,2,1,88,3,2,0,1,0.908912358221723,0.90568291035768
"569",4,24,2,1,89,1,2,0,3,0.705728163059789,0.724118243554525
"570",4,18,2,1,90,2,2,0,2,0.710951708658909,0.674390118568908
"571",4,23,2,2,91,3,1,0,1,0.932880809545341,0.875388490091641
"572",4,33,2,2,92,1,1,0,3,0.585276848155333,0.558684811157375
"573",4,32,2,1,93,2,2,0,2,0.714668769708262,0.674767476042489
"574",4,19,2,2,94,1,2,1,5,0.403236711096532,0.339039822488578
"575",4,23,2,1,95,1,2,0,4,0.570331696743496,0.602659150119209
"576",4,36,2,1,96,3,2,0,1,0.844578118777999,0.752368391982212
"577",4,22,2,2,97,2,2,1,4,0.565102758592696,0.599215439891676
"578",4,39,2,2,98,3,2,1,2,0.874843086470974,0.880617144819152
"579",4,24,2,1,99,3,1,1,2,0.548772813965618,0.580704632201911
"580",4,18,2,1,100,2,1,1,4,0.699597702664625,0.813543791960388
"581",4,23,2,1,101,3,1,1,3,0.86718609042508,0.839713049697442
"582",4,33,2,1,102,1,1,1,5,0.294682939629946,0.308021000343416
"583",4,32,2,1,103,1,1,1,5,0.345670266193498,0.300095513841669
"584",4,19,2,2,104,2,2,1,3,0.541712691398525,0.619083827141649
"585",4,23,2,2,105,1,2,1,4,0.376750108826039,0.320121666120873
"586",4,36,2,2,106,3,1,0,1,1.17092429971094,1.19229189793409
"587",4,22,2,1,107,3,1,1,3,1.14757411676463,1.15663421190547
"588",4,39,2,2,108,1,2,1,5,0.385196545186964,0.320714321282869
"589",4,24,2,1,109,1,1,1,4,0.28686220620728,0.269704694826291
"590",4,18,2,2,110,3,1,0,2,1.55963690048573,1.69419061466013
"591",4,23,2,2,111,2,2,1,3,0.653820757000878,0.639053300445402
"592",4,33,2,2,112,2,2,1,4,0.638170023353393,0.716294849587002
"593",4,32,2,1,113,3,1,1,2,1.05364191418261,1.10979799684351
"594",4,19,2,2,114,1,2,1,5,0.387238811868593,0.490653690331073
"595",4,23,2,2,115,3,2,1,3,0.617048883193952,0.594641363904074
"596",4,36,2,1,116,3,1,1,3,0.559543533429837,0.567529551099347
"597",4,22,2,2,117,3,2,1,3,0.983766266199238,1.06428803434807
"598",4,39,2,2,118,3,2,1,2,0.860155211800376,0.828968350458579
"599",4,24,2,2,119,3,1,0,1,1.50589808549094,1.56514612258111
"600",4,18,2,1,120,1,1,1,4,0.458069088675148,0.460100735635576
"601",4,23,2,1,121,1,1,1,5,0.239333730284652,0.267321375961834
"602",4,33,2,1,122,1,1,1,5,0.397297963946282,0.410944390821146
"603",4,32,2,2,123,2,2,1,4,0.79768253909286,0.829196265520827
"604",4,19,2,2,124,2,2,1,3,0.610136321663396,0.645141791738406
"605",4,23,2,1,125,1,1,1,4,0.307409273798329,0.386683219013625
"606",4,36,2,1,126,1,1,1,4,0.384507844502957,0.400942386559026
"607",4,22,2,1,127,1,1,1,5,0.370614430122024,0.426947933749455
"608",4,39,2,1,128,1,1,1,4,0.394364080818131,0.356913676535832
"609",4,24,2,1,129,1,2,0,4,0.604766476292415,0.529937806121594
"610",4,18,2,1,130,2,1,1,4,0.59038912774789,0.606874276633551
"611",4,23,2,2,131,2,2,1,4,0.85223308966151,0.816317220926838
"612",4,33,2,2,132,1,2,1,5,0.390213910945422,0.435795571344051
"613",4,32,2,2,133,3,1,0,1,1.29815228478199,1.3571613727838
"614",4,19,2,2,134,2,1,0,2,0.53057493107361,0.512756155099744
"615",4,23,2,1,135,2,2,0,2,0.874125817027124,0.876898804488519
"616",4,36,2,1,136,2,1,1,3,0.386792482711055,0.35883330572944
"617",4,22,2,1,137,2,2,0,2,0.623032602634279,0.593079671852248
"618",4,39,2,1,138,2,1,1,3,0.758708099140172,0.740042923466194
"619",4,24,2,2,139,3,2,1,3,1.14952962836823,1.1442880784344
"620",4,18,2,1,140,2,1,1,4,0.590062935863335,0.668573731213185
"621",4,23,2,1,141,1,1,1,5,0.495252592491944,0.508716703079771
"622",4,33,2,1,142,2,2,0,3,0.715584478553918,0.71034941615921
"623",4,32,2,2,143,1,2,1,5,0.369429974078904,0.376416200031324
"624",4,19,2,1,144,3,2,0,2,1.39813959645861,1.44623304995289
"625",4,23,2,1,145,2,1,1,3,0.447783291567479,0.354618229139662
"626",4,36,2,2,146,2,1,0,3,0.650233602403229,0.637136126232852
"627",4,22,2,2,147,2,2,1,4,0.475199493307558,0.570075014442527
"628",4,39,2,1,148,2,1,1,4,0.76675577319161,0.667061499359729
"629",4,24,2,1,149,3,2,0,1,0.523577937100125,0.545596164048284
"630",4,18,2,1,150,1,2,0,3,0.541970467561438,0.524799610155706
"631",4,23,2,1,151,1,1,1,4,0.460824221490738,0.504643637974206
"632",4,33,2,2,152,1,2,1,4,0.213849077507494,0.163274605097888
"633",4,32,2,2,153,2,1,0,3,0.831593535854761,0.917416981357678
"634",4,19,2,1,154,1,1,1,4,0.349045668366253,0.375195807817573
"635",4,23,2,1,155,3,2,0,1,1.3614341032861,1.35522859151416
"636",4,36,2,1,156,3,2,0,1,1.10250397389565,1.02394246185246
"637",4,22,2,2,157,1,2,1,5,0.415918627297235,0.404265321714116
"638",4,39,2,1,158,1,1,1,5,0.304437367326916,0.201320719277704
"639",4,24,2,1,159,1,2,0,4,0.550279133423089,0.578617204924235
"640",4,18,2,1,160,3,1,1,3,0.854822184929961,0.805168102766946
"641",4,23,2,2,161,3,1,0,2,0.952624102216871,1.009334777686
"642",4,33,2,1,162,3,1,1,3,0.557981880620452,0.515295058396551
"643",4,32,2,2,163,2,2,1,3,0.717222128923915,0.707933914411875
"644",4,19,2,1,164,3,1,1,3,0.754836707422732,0.770024425033121
"645",4,23,2,1,165,2,1,1,3,0.498871923634617,0.457535834623652
"646",4,36,2,1,166,2,2,0,2,0.647271346276361,0.65765553692039
"647",4,22,2,1,167,1,2,0,4,0.59609684253768,0.680096585614981
"648",4,39,2,2,168,3,1,0,2,1.38230221290322,1.43143770423359
"649",4,24,2,1,169,1,2,0,4,0.347842578316282,0.377962787048358
"650",4,18,2,2,170,2,2,1,3,0.650394741828384,0.634490299109595
"651",4,23,2,2,171,2,2,1,4,0.485367687439109,0.539641262345116
"652",4,33,2,1,172,2,1,1,3,0.429744712048388,0.494404897669325
"653",4,32,2,1,173,1,1,1,4,0.375100614317169,0.359338870472633
"654",4,19,2,2,174,3,1,0,2,0.843628255241617,0.797575590267916
"655",4,23,2,2,175,2,2,1,3,0.567650765860671,0.557426567496581
"656",4,36,2,2,176,2,2,1,4,0.654943341927571,0.667315897496758
"657",4,22,2,2,177,3,1,0,1,1.00286537899472,1.00913879550729
"658",4,39,2,2,178,2,2,1,3,0.574906914413448,0.516636947157659
"659",4,24,2,1,179,2,2,0,2,0.907675004352652,0.852745354425477
"660",4,18,2,1,180,3,2,0,1,1.4883739070058,1.42725854119703
"661",4,23,2,2,181,2,1,0,3,0.883512018150736,0.888668469636206
"662",4,33,2,1,182,1,1,1,4,0.515641589940911,0.521599422477588
"663",4,32,2,1,183,1,1,1,4,0.28469303352535,0.286517394348375
"664",4,19,2,2,184,2,1,0,2,0.923966244228594,0.916414485818079
"665",4,23,2,1,185,1,1,1,4,0.366075842570725,0.304708852219068
"666",4,36,2,1,186,2,1,1,4,0.703228540750736,0.749992128304195
"667",4,22,2,2,187,1,2,1,4,0.443548097954318,0.502437463846129
"668",4,39,2,1,188,3,2,0,2,0.829880278542415,0.78872689721609
"669",4,24,2,2,189,2,1,0,2,0.799775082861504,0.816089644980583
"670",4,18,2,2,190,1,2,1,4,0.312969362565482,0.33639075472388
"671",4,23,2,1,191,3,1,1,2,0.994920620855312,1.07846198627766
"672",4,33,2,1,192,2,1,1,3,0.504846443673416,0.571209056849611
"673",4,32,2,2,193,2,1,0,3,0.698053277710992,0.65796091086242
"674",4,19,2,1,194,1,1,1,4,0.450413252384449,0.471919254442002
"675",4,23,2,2,195,2,1,0,2,0.310345168315838,0.356206091310836
"676",4,36,2,2,196,3,2,1,2,0.916612036141817,0.91731020521011
"677",4,22,2,1,197,3,2,0,2,1.00235323206018,0.863192055509001
"678",4,39,2,2,198,2,2,1,4,0.432925960737887,0.334939527245175
"679",4,24,2,2,199,1,1,0,3,0.619433697011807,0.627180236736799
"680",4,18,2,2,200,1,2,1,5,0.321810165369894,0.372457197373907
"681",4,23,2,1,201,1,1,1,4,0.578628948279867,0.6272990946782
"682",4,33,2,1,202,3,1,1,2,0.775739986774015,0.792915109922757
"683",4,32,2,2,203,3,1,0,2,1.3300089858608,1.29349060686272
"684",4,19,2,1,204,1,1,1,4,0.38786463887778,0.351229526193975
"685",4,23,2,2,205,3,1,0,1,0.509437590212385,0.508787689664129
"686",4,36,2,2,206,3,2,1,2,0.463694476174856,0.411536110409532
"687",4,22,2,2,207,1,2,1,5,0.420133826690357,0.394706992558243
"688",4,39,2,2,208,3,2,1,2,1.2343202304516,1.22284715414114
"689",4,24,2,1,209,1,1,1,4,0.439416398190795,0.387493826929434
"690",4,18,2,1,210,3,2,0,1,1.35075300227871,1.36490174366025
"691",4,23,2,2,211,3,1,0,2,0.793405861664403,0.843905566208711
"692",4,33,2,2,212,1,2,1,4,0.570481720520781,0.600431530830746
"693",4,32,2,1,213,2,1,1,4,0.481935190560069,0.514591845521256
"694",4,19,2,1,214,2,2,0,3,0.629674273988714,0.611234641889552
"695",4,23,2,2,215,1,2,1,4,0.465489363943663,0.442977943936098
"696",4,36,2,2,216,1,2,1,5,0.432093872610027,0.466805062109156
"697",4,22,2,1,217,3,1,1,2,0.572176251450721,0.607703732410595
"698",4,39,2,2,218,3,1,0,1,0.823789831016542,0.816968614085588
"699",4,24,2,2,219,1,2,1,5,0.571843884147531,0.595095744144473
"700",4,18,2,2,220,2,2,1,4,0.793845683425315,0.812921087532356
"701",4,23,2,1,221,1,1,1,5,0.428958756304172,0.369464245612381
"702",4,33,2,2,222,2,1,0,2,0.721860054653853,0.728731164183817
"703",4,32,2,1,223,3,1,1,2,0.829366249708231,0.76585982142467
"704",4,19,2,2,224,3,2,1,2,0.784356253331482,0.776477777366933
"705",4,23,2,2,225,2,2,1,4,0.463574099544235,0.422856347624474
"706",4,36,2,1,226,2,2,0,2,0.717838118421432,0.660965216280324
"707",4,22,2,1,227,1,1,1,5,0.403255124031344,0.450594054775468
"708",4,39,2,1,228,1,1,1,5,0.332265875385501,0.342479125889202
"709",4,24,2,2,229,3,1,0,1,0.97784019499481,0.885993236794069
"710",4,18,2,2,230,2,2,1,4,0.536221710973099,0.562789611709342
"711",4,23,2,2,231,1,1,0,4,0.59797009856196,0.604439382017763
"712",4,33,2,1,232,3,1,1,2,0.536455273248092,0.559248774250867
"713",4,32,2,1,233,1,1,1,5,0.441928159530741,0.441471232016175
"714",4,19,2,1,234,3,2,0,1,1.12184352326999,1.15414414155687
"715",4,23,2,1,235,3,2,0,1,0.760702645197494,0.700983655165556
"716",4,36,2,2,236,2,1,0,2,0.808364942285382,0.769112206656813
"717",4,22,2,2,237,2,2,1,3,0.624703279889963,0.662791426762995
"718",4,39,2,1,238,2,2,0,2,0.676383215680137,0.677081983682956
"719",4,24,2,2,239,2,1,0,2,0.845335145131511,0.870283634951325
"720",4,18,2,2,240,3,2,1,3,1.09082847278444,1.00414714993908
"721",3,32,1,2,1,1,2,1,4,0.342558966151848,0.312363450087014
"722",3,26,1,2,2,2,1,0,2,1.03855331857995,1.10379387487088
"723",3,23,1,2,3,3,2,1,2,0.733121448622747,0.841750438783056
"724",3,28,1,1,4,3,1,1,3,0.857857171963613,0.869086127935827
"725",3,36,1,1,5,3,2,0,2,1.35506722910056,1.40067812086634
"726",3,30,1,1,6,3,2,0,1,1.13761797054414,1.10820612807686
"727",3,34,1,2,7,2,2,1,4,0.520482237580037,0.441771061911938
"728",3,25,1,2,8,2,2,1,3,0.779047567180796,0.823526698990733
"729",3,36,1,1,9,1,1,1,4,0.488848012361237,0.499023012983835
"730",3,36,1,2,10,2,1,0,3,0.527954196284212,0.533907984259772
"731",3,32,1,2,11,1,2,1,5,0.287084887475486,0.211232892045638
"732",3,26,1,2,12,1,2,1,5,0.518676098970211,0.427845198369344
"733",3,23,1,2,13,3,1,0,2,0.872160098013974,0.946263343674727
"734",3,28,1,1,14,1,1,1,4,0.301707956624345,0.327113335401165
"735",3,36,1,1,15,3,1,1,2,1.09507085507465,1.12314549325953
"736",3,30,1,2,16,2,2,1,3,0.445587858262692,0.46144605698835
"737",3,34,1,1,17,3,2,0,2,1.44942523819206,1.42743661504844
"738",3,25,1,1,18,2,2,0,2,0.696058063784727,0.749509851749257
"739",3,36,1,1,19,3,1,1,2,1.062568526486,1.03963839056328
"740",3,36,1,2,20,3,2,1,2,0.696600831997187,0.710404642938316
"741",3,32,1,1,21,3,2,0,1,0.815638037695072,0.752796715192608
"742",3,26,1,2,22,1,2,1,4,0.486975704460307,0.491449755548595
"743",3,23,1,1,23,1,1,1,4,0.469068891945899,0.427902445162226
"744",3,28,1,2,24,2,2,1,4,0.708913062135858,0.780456350422954
"745",3,36,1,2,25,1,2,1,4,0.5644399352517,0.580686344838376
"746",3,30,1,2,26,1,2,1,4,0.259410134491047,0.219662746088071
"747",3,34,1,2,27,2,1,0,3,0.682398249245773,0.610816109876611
"748",3,25,1,1,28,3,1,1,2,0.929027743693385,0.876897150228444
"749",3,36,1,1,29,3,2,0,2,1.25695572462372,1.28960939954184
"750",3,36,1,1,30,2,2,0,2,0.454359761456062,0.485378506799102
"751",3,32,1,2,31,1,2,1,4,0.467781703276702,0.473898954550444
"752",3,26,1,1,32,2,1,1,3,0.469972511441298,0.444003405469066
"753",3,23,1,2,33,2,1,0,2,0.684119628518303,0.735661349207784
"754",3,28,1,2,34,1,1,0,4,0.704346620465226,0.702491318116631
"755",3,36,1,1,35,3,1,1,3,1.04903070508362,1.06428571781062
"756",3,30,1,1,36,2,2,0,3,0.792837389866524,0.830873058560802
"757",3,34,1,2,37,1,1,0,4,0.631451028445914,0.537793525062936
"758",3,25,1,2,38,1,2,1,4,0.534991508505425,0.435496281404505
"759",3,36,1,2,39,2,1,0,3,0.667250836135581,0.656520559706276
"760",3,36,1,1,40,3,1,1,3,0.617608935491446,0.613313163610767
"761",3,32,1,2,41,2,2,1,4,0.547688973590983,0.549317273527866
"762",3,26,1,1,42,2,2,0,3,0.84032924915304,0.985742041445044
"763",3,23,1,2,43,3,2,1,2,0.591173426622665,0.587616004057483
"764",3,28,1,2,44,3,1,0,1,1.36716374293745,1.38616117244945
"765",3,36,1,2,45,2,2,1,3,0.745375539172682,0.801799193612238
"766",3,30,1,2,46,3,2,1,2,0.688851490681365,0.840478646433994
"767",3,34,1,2,47,1,2,1,5,0.426863379506846,0.444725019984955
"768",3,25,1,1,48,1,1,1,5,0.476407732386773,0.445305421712444
"769",3,36,1,1,49,2,2,0,2,0.704162074221743,0.705292912407448
"770",3,36,1,1,50,1,1,1,4,0.38160634071562,0.444284554087223
"771",3,32,1,1,51,1,1,1,4,0.503442391707304,0.444446101000893
"772",3,26,1,1,52,1,2,0,3,0.50969350039678,0.451681025026093
"773",3,23,1,2,53,3,2,1,3,1.09607225663796,1.06932398407913
"774",3,28,1,1,54,1,1,1,5,0.389225645810161,0.448999830497416
"775",3,36,1,1,55,1,1,1,5,0.391669994443768,0.409653486826596
"776",3,30,1,2,56,3,2,1,3,0.82868349774869,0.761899763375864
"777",3,34,1,2,57,1,2,1,4,0.275047066123672,0.297907111386962
"778",3,25,1,1,58,2,1,1,4,0.42178633769301,0.366424829163625
"779",3,36,1,1,59,3,1,1,3,0.629291145886046,0.685700193632103
"780",3,36,1,2,60,3,2,1,3,0.475110028944023,0.433854870721542
"781",3,32,1,1,61,3,2,0,1,2.06703076429072,1.98767071084859
"782",3,26,1,2,62,1,2,1,5,0.462287180896891,0.40119831684925
"783",3,23,1,2,63,3,2,1,3,1.03295355777394,1.03540045465707
"784",3,28,1,1,64,1,1,1,4,0.417878752807232,0.422732244807211
"785",3,36,1,1,65,2,2,0,3,0.503758534086851,0.567944075021173
"786",3,30,1,2,66,2,1,0,2,0.738549334528011,0.726142354819769
"787",3,34,1,1,67,3,1,1,3,0.806815277556054,0.814693278696134
"788",3,25,1,2,68,2,2,1,3,0.624556504287791,0.696473013976809
"789",3,36,1,2,69,3,2,1,3,0.886127473145335,0.926518292334256
"790",3,36,1,2,70,1,1,0,3,0.509261812448659,0.476707660425899
"791",3,32,1,1,71,3,1,1,2,0.53135017860079,0.44845328393426
"792",3,26,1,1,72,2,1,1,3,0.751989628415194,0.707089863253726
"793",3,23,1,1,73,3,2,0,1,0.566894104785652,0.604844622202004
"794",3,28,1,2,74,2,2,1,4,0.595778776767359,0.545178643651397
"795",3,36,1,1,75,3,1,1,2,0.429223324844826,0.43048634213678
"796",3,30,1,1,76,2,1,1,3,0.570911690300744,0.614646017570746
"797",3,34,1,1,77,2,1,1,4,0.291541508178325,0.293240212600808
"798",3,25,1,1,78,2,1,1,4,0.486230347968484,0.482676024054542
"799",3,36,1,2,79,2,1,0,3,0.670931763040104,0.652454671011302
"800",3,36,1,1,80,1,2,0,4,0.69658440541639,0.657992290379827
"801",3,32,1,1,81,1,2,0,3,0.483632243354106,0.488188976688986
"802",3,26,1,2,82,1,1,0,3,0.506751213359824,0.4529422226845
"803",3,23,1,2,83,3,2,1,2,0.79998467770865,0.748936503034752
"804",3,28,1,2,84,1,2,1,4,0.340115795791694,0.383331701870618
"805",3,36,1,1,85,2,1,1,3,0.735090451839152,0.701264015165724
"806",3,30,1,1,86,3,2,0,2,1.27186497709173,1.29043924741359
"807",3,34,1,2,87,2,2,1,3,0.595226681993616,0.55570619108829
"808",3,25,1,2,88,2,2,1,4,0.620625786989515,0.728433300477712
"809",3,36,1,2,89,2,1,0,2,0.782869533575696,0.836676501047028
"810",3,36,1,1,90,3,2,0,2,1.38501331684497,1.39718653644584
"811",3,32,1,2,91,2,1,0,2,0.711379471535729,0.801323482228249
"812",3,26,1,2,92,1,1,0,3,0.586294063219064,0.560419712307011
"813",3,23,1,2,93,3,1,0,1,0.669278942583654,0.742121977781262
"814",3,28,1,1,94,2,2,0,3,0.785767447390571,0.686268000405593
"815",3,36,1,1,95,1,1,1,5,0.634815608373277,0.641305769484868
"816",3,30,1,2,96,3,1,0,1,1.31194744984607,1.35042651480331
"817",3,34,1,1,97,1,1,1,5,0.304998533924686,0.332357055639705
"818",3,25,1,2,98,2,1,0,2,0.851621501629479,0.797478357564446
"819",3,36,1,1,99,2,1,1,3,0.737460352862493,0.717498652458379
"820",3,36,1,1,100,2,1,1,3,0.545598924750196,0.599358401896361
"821",3,32,1,2,101,1,2,1,5,0.395204738584743,0.419905790090985
"822",3,26,1,1,102,3,2,0,1,0.928177811766037,0.934681346697007
"823",3,23,1,2,103,3,2,1,3,1.07851948451194,1.10361402608394
"824",3,28,1,2,104,1,2,1,5,0.516962063389389,0.473848661818492
"825",3,36,1,2,105,3,2,1,2,0.923673975875154,0.831869181130953
"826",3,30,1,1,106,1,2,0,4,0.359073778051616,0.347086389344601
"827",3,34,1,1,107,2,2,0,3,0.7079244332782,0.784022335010884
"828",3,25,1,2,108,3,1,0,2,0.669579024961309,0.675239519833195
"829",3,36,1,1,109,1,1,1,4,0.4652730382328,0.408548760474212
"830",3,36,1,1,110,3,1,1,2,0.781482053396421,0.773390073142212
"831",3,32,1,2,111,2,1,0,2,0.445025574994135,0.468130347046067
"832",3,26,1,2,112,2,1,0,3,0.846577708522646,0.854106255134162
"833",3,23,1,2,113,3,1,0,2,0.418926658384644,0.432923427261284
"834",3,28,1,1,114,3,1,1,3,1.02094526056836,0.956060633688922
"835",3,36,1,2,115,1,2,1,4,0.423079528755201,0.367109939166378
"836",3,30,1,1,116,1,2,0,3,0.619435322336823,0.558022291085746
"837",3,34,1,1,117,2,2,0,2,0.621638476167667,0.656301869947322
"838",3,25,1,2,118,2,2,1,4,0.596424437911184,0.504477319710139
"839",3,36,1,1,119,3,2,0,1,1.80288703887146,1.68959555202057
"840",3,36,1,1,120,3,2,0,1,1.56355427018191,1.53353150935908
"841",3,32,1,1,121,1,1,1,4,0.482878314204285,0.446038643493201
"842",3,26,1,1,122,2,1,1,3,0.48102843775194,0.484453914236772
"843",3,23,1,2,123,3,1,0,2,0.473729585851522,0.476519586981349
"844",3,28,1,1,124,3,2,0,1,1.07577184107908,1.06707656242196
"845",3,36,1,1,125,1,1,1,4,0.409572742544109,0.45525617856109
"846",3,30,1,2,126,2,2,1,4,0.447938313641145,0.411876774695647
"847",3,34,1,1,127,1,1,1,5,0.440991468049238,0.451879697084823
"848",3,25,1,1,128,1,1,1,5,0.531731092114965,0.475759852842408
"849",3,36,1,1,129,2,1,1,3,0.558292854947462,0.524123097419376
"850",3,36,1,1,130,2,1,1,4,0.552024435032093,0.595613256488116
"851",3,32,1,2,131,1,1,0,4,0.454664184938217,0.381946488558268
"852",3,26,1,1,132,2,1,1,3,0.732621742436412,0.663004734079737
"853",3,23,1,2,133,2,2,1,3,0.458669296735032,0.458572875105977
"854",3,28,1,1,134,3,1,1,2,1.00507042376977,0.988685768153832
"855",3,36,1,2,135,2,2,1,4,0.562588532895639,0.527269303758668
"856",3,30,1,2,136,3,2,1,3,1.08595175489465,1.10588621560896
"857",3,34,1,2,137,1,1,0,4,0.477509383024489,0.536537429691857
"858",3,25,1,1,138,2,1,1,3,0.78031135947639,0.79449982310889
"859",3,36,1,2,139,3,2,1,2,0.882901778603819,0.905500324397057
"860",3,36,1,1,140,1,1,1,5,0.334824269913553,0.354884518594897
"861",3,32,1,1,141,3,2,0,1,0.585796697013968,0.619639590324885
"862",3,26,1,2,142,1,1,0,3,0.507533285909425,0.5271288604828
"863",3,23,1,2,143,3,1,0,2,0.772078638840884,0.718911605407514
"864",3,28,1,1,144,1,1,1,5,0.43610554034965,0.34447782314449
"865",3,36,1,2,145,1,1,0,4,0.368729246007923,0.397113681170391
"866",3,30,1,2,146,1,2,1,4,0.366884729395447,0.514744307302879
"867",3,34,1,1,147,3,1,1,2,0.563188632471559,0.558742663776662
"868",3,25,1,2,148,3,1,0,1,1.17551292104403,1.21792789228653
"869",3,36,1,2,149,2,1,0,2,0.665993286127068,0.698566400635595
"870",3,36,1,1,150,2,2,0,3,0.663540402150435,0.595714065304706
"871",3,32,1,2,151,1,1,0,3,0.53945252337654,0.522532949697234
"872",3,26,1,1,152,2,1,1,3,0.528427529433157,0.461110916744679
"873",3,23,1,1,153,3,1,1,3,0.891470313838309,0.94996900712619
"874",3,28,1,2,154,3,1,0,1,0.53455020468223,0.457994553833844
"875",3,36,1,2,155,2,1,0,3,0.710109323541244,0.741494691972836
"876",3,30,1,2,156,2,2,1,3,0.863817625901718,0.909834898315706
"877",3,34,1,1,157,2,2,0,2,0.687867203507273,0.759911062462794
"878",3,25,1,1,158,1,2,0,3,0.486437191550637,0.413355599428384
"879",3,36,1,2,159,2,1,0,3,0.85655877132114,0.797483809727352
"880",3,36,1,2,160,3,1,0,1,0.71769976025106,0.685251753501755
"881",3,32,1,2,161,2,2,1,4,0.311531622600321,0.384707240898227
"882",3,26,1,1,162,2,1,1,4,0.709245144564774,0.7358634326106
"883",3,23,1,1,163,2,1,1,3,0.683069401392471,0.689280190033161
"884",3,28,1,1,164,1,1,1,5,0.365277205193478,0.35751283546987
"885",3,36,1,1,165,2,2,0,3,0.725291621779225,0.729964858612396
"886",3,30,1,2,166,1,2,1,5,0.317891229729444,0.21607680126044
"887",3,34,1,2,167,3,2,1,3,0.93275773660219,0.908144340105676
"888",3,25,1,1,168,1,1,1,5,0.428393731157924,0.428604470224303
"889",3,36,1,2,169,2,1,0,3,0.264781522511148,0.296753973784421
"890",3,36,1,1,170,3,1,1,2,0.80667875647458,0.722156477389396
"891",3,32,1,2,171,1,2,1,5,0.292346693119089,0.201147602160638
"892",3,26,1,2,172,3,2,1,3,0.879211311993433,0.783512228114612
"893",3,23,1,1,173,3,1,1,3,0.718285123160695,0.789021445078253
"894",3,28,1,2,174,1,2,1,4,0.34827055128465,0.252370254703732
"895",3,36,1,1,175,1,2,0,3,0.588298808707156,0.649476263486286
"896",3,30,1,2,176,2,1,0,2,0.670101385002213,0.609678040718258
"897",3,34,1,2,177,2,2,1,3,0.550588725061943,0.665730406719909
"898",3,25,1,2,178,1,1,0,4,0.55824557412623,0.526385787995909
"899",3,36,1,1,179,1,2,0,4,0.395548877974817,0.388331415936929
"900",3,36,1,1,180,3,2,0,2,0.973914325057052,1.01645210739952
"901",3,32,1,1,181,3,2,0,1,0.859460526993499,0.792845734387196
"902",3,26,1,2,182,3,2,1,2,0.580559851279638,0.542882821938362
"903",3,23,1,1,183,3,1,1,2,0.5398783245284,0.54909158848838
"904",3,28,1,2,184,3,2,1,2,0.552873142978811,0.554446586990401
"905",3,36,1,1,185,2,2,0,2,0.700456550779443,0.737590655364313
"906",3,30,1,2,186,2,2,1,4,0.444630136176748,0.523457769314943
"907",3,34,1,2,187,1,2,1,5,0.454247826205219,0.398956997364204
"908",3,25,1,1,188,3,1,1,3,0.827839705921283,0.793049144575521
"909",3,36,1,2,189,3,2,1,2,0.700882232435515,0.613549440354563
"910",3,36,1,2,190,1,1,0,4,0.455961362172573,0.432131422853004
"911",3,32,1,2,191,2,2,1,4,0.517319360778407,0.506094806976948
"912",3,26,1,1,192,2,1,1,3,0.592035558135331,0.51960219717732
"913",3,23,1,2,193,3,1,0,1,1.13696743784268,1.08601061836526
"914",3,28,1,1,194,2,2,0,3,0.516909706936376,0.448937373193025
"915",3,36,1,1,195,1,1,1,5,0.357879090940351,0.293094244128221
"916",3,30,1,1,196,1,2,0,4,0.62642039015215,0.596822395733748
"917",3,34,1,2,197,3,2,1,3,0.90485939312383,0.845785517123619
"918",3,25,1,1,198,1,1,1,5,0.540119156440242,0.527051247671537
"919",3,36,1,2,199,1,2,1,4,0.245005984503773,0.199209037740729
"920",3,36,1,1,200,1,1,1,4,0.276808287725847,0.326852075648471
"921",3,32,1,2,201,2,2,1,4,0.597808234180325,0.691794558387381
"922",3,26,1,2,202,1,2,1,4,0.321316013809068,0.343309823775258
"923",3,23,1,1,203,1,1,1,5,0.331948041409665,0.374077009828849
"924",3,28,1,1,204,1,2,0,4,0.503664568817103,0.550474348240847
"925",3,36,1,1,205,1,1,1,5,0.442090880390911,0.418817496144346
"926",3,30,1,1,206,2,1,1,4,0.682010567481121,0.693867563135313
"927",3,34,1,1,207,1,2,0,4,0.506119865230355,0.514863490057099
"928",3,25,1,2,208,2,1,0,2,0.666073141308604,0.592884248989564
"929",3,36,1,1,209,3,2,0,1,1.08875213518865,1.13910145126248
"930",3,36,1,1,210,2,2,0,3,0.507778775788525,0.524049545826903
"931",3,32,1,1,211,3,2,0,1,0.590424513483696,0.622955333273962
"932",3,26,1,1,212,2,1,1,4,0.646313894307305,0.597670698021818
"933",3,23,1,1,213,2,1,1,3,0.627504726314497,0.606826280595202
"934",3,28,1,2,214,1,2,1,4,0.388560812475813,0.302297374918047
"935",3,36,1,2,215,2,1,0,2,0.403563567965667,0.470348790859339
"936",3,30,1,2,216,2,1,0,3,0.682343183742098,0.687647247678503
"937",3,34,1,1,217,1,1,1,5,0.289815964104586,0.250359683454757
"938",3,25,1,2,218,1,1,0,4,0.615076163986245,0.588431762422474
"939",3,36,1,2,219,3,2,1,2,1.12051067772154,1.18480600467171
"940",3,36,1,1,220,1,2,0,3,0.353773023075873,0.426337872804547
"941",3,32,1,1,221,3,2,0,1,1.19154525548747,1.1775289706686
"942",3,26,1,2,222,3,2,1,3,0.759110760593931,0.814857743153912
"943",3,23,1,2,223,3,1,0,1,0.380497862398197,0.404233957600715
"944",3,28,1,2,224,1,2,1,5,0.461205820647775,0.418263100338732
"945",3,36,1,2,225,3,1,0,2,0.430794058322908,0.497246331227335
"946",3,30,1,1,226,3,1,1,2,0.755532423155396,0.758859144411119
"947",3,34,1,1,227,2,1,1,4,0.497405794795563,0.490430252502237
"948",3,25,1,2,228,3,2,1,2,0.965800959618994,0.932521603171582
"949",3,36,1,2,229,1,1,0,3,0.617064007596749,0.655936195174284
"950",3,36,1,1,230,2,1,1,4,0.67076951578368,0.726833048710899
"951",3,32,1,1,231,1,1,1,4,0.302947643190785,0.310625778024865
"952",3,26,1,2,232,3,1,0,1,0.735140895249913,0.645413334162079
"953",3,23,1,1,233,1,1,1,5,0.364981330194427,0.431890462919466
"954",3,28,1,1,234,2,2,0,3,0.6299139508236,0.565187946658337
"955",3,36,1,2,235,3,1,0,1,0.938431072629766,1.0478614772901
"956",3,30,1,2,236,1,1,0,3,0.732848390096784,0.688143974811361
"957",3,34,1,2,237,1,2,1,5,0.302639527116442,0.31338108019718
"958",3,25,1,2,238,2,1,0,3,0.602106107788471,0.547559997918437
"959",3,36,1,1,239,3,2,0,2,1.35313332443208,1.34167880970986
"960",3,36,1,1,240,3,2,0,2,0.848766869291996,0.854678935538838
"961",2,29,2,2,1,1,2,1,4,0.307825927612126,0.349340877046093
"962",2,30,2,1,2,1,2,0,3,0.638524137129286,0.640064306619794
"963",2,23,2,2,3,3,2,1,3,1.07345366951871,1.1607775844035
"964",2,31,2,2,4,2,2,1,3,0.537210743716399,0.527334659589053
"965",2,24,2,1,5,1,2,0,3,0.645352464967526,0.64967696406535
"966",2,19,2,1,6,3,1,1,3,1.30700477109985,1.30640766913641
"967",2,18,2,2,7,3,2,1,3,0.572668639902578,0.508447536431238
"968",2,30,2,1,8,3,2,0,1,0.228672568487545,0.134365594195329
"969",2,36,2,2,9,2,2,1,4,0.777981382513584,0.712205943137448
"970",2,24,2,2,10,2,2,1,4,0.514455884995571,0.568445503461315
"971",2,29,2,2,11,2,2,1,4,0.531258212599121,0.523759598640115
"972",2,30,2,2,12,1,2,1,5,0.360424666863812,0.320472550470237
"973",2,23,2,1,13,1,2,0,3,0.525798049800293,0.488189849131512
"974",2,31,2,1,14,2,1,1,3,0.615512285831575,0.623636771484178
"975",2,24,2,1,15,2,1,1,4,0.406023050930838,0.405171295551132
"976",2,19,2,2,16,1,2,1,5,0.436885038776161,0.386547430295274
"977",2,18,2,1,17,3,1,1,3,0.522673988933901,0.45073751235809
"978",2,30,2,2,18,1,2,1,5,0.32972485705909,0.334149761452721
"979",2,36,2,2,19,1,2,1,5,0.368929790996315,0.343828128226858
"980",2,24,2,2,20,2,2,1,4,0.813888926193426,0.78494552408526
"981",2,29,2,2,21,3,1,0,1,0.91157682288672,0.888832163763314
"982",2,30,2,2,22,2,2,1,4,0.683550483740515,0.699743669392543
"983",2,23,2,2,23,2,2,1,3,0.68513453728084,0.68245899836134
"984",2,31,2,1,24,3,1,1,2,1.44148296837781,1.48618389310393
"985",2,24,2,2,25,3,2,1,3,0.680704671661052,0.64199354421007
"986",2,19,2,2,26,3,1,0,2,1.14451401283544,1.18741220476666
"987",2,18,2,2,27,1,1,0,3,0.495237989018769,0.465558608764788
"988",2,30,2,2,28,3,2,1,3,0.95557201307114,0.939184618148721
"989",2,36,2,2,29,3,2,1,3,0.564586089827822,0.541836118101714
"990",2,24,2,1,30,3,1,1,3,0.843348160423081,0.781709431481319
"991",2,29,2,2,31,1,2,1,5,0.370826243500393,0.367181874214971
"992",2,30,2,2,32,1,2,1,5,0.45481200750584,0.419791237345818
"993",2,23,2,1,33,1,1,1,5,0.553608851713855,0.55680947384587
"994",2,31,2,2,34,3,2,1,2,0.689124575233709,0.675312092052574
"995",2,24,2,1,35,1,2,0,4,0.638007330680735,0.662299095504475
"996",2,19,2,2,36,3,1,0,2,1.55474729107777,1.65650417356353
"997",2,18,2,2,37,2,2,1,3,0.614461797137802,0.594200182457867
"998",2,30,2,1,38,1,1,1,5,0.505708994283195,0.566386766828385
"999",2,36,2,2,39,2,2,1,3,0.568729281740675,0.609941013425346
"1000",2,24,2,2,40,3,1,0,2,1.282496,1.332221
"1001",2,29,2,2,41,1,2,1,4,0.3143712,0.3016238
"1002",2,30,2,1,42,1,2,0,3,0.4552756,0.4053854
"1003",2,23,2,2,43,1,1,0,3,0.3254857,0.2615897
"1004",2,31,2,1,44,3,2,0,2,0.3934848,0.3848629
"1005",2,24,2,1,45,1,1,1,4,0.4397932,0.3826409
"1006",2,19,2,1,46,2,2,0,3,0.4564405,0.4931482
"1007",2,18,2,1,47,3,1,1,3,0.5262778,0.5946522
"1008",2,30,2,1,48,1,1,1,4,0.4155054,0.460434
"1009",2,36,2,1,49,1,1,1,4,0.3292745,0.3815438
"1010",2,24,2,2,50,2,2,1,3,0.5966149,0.6753731
"1011",2,29,2,1,51,2,2,0,2,0.7177979,0.7697581
"1012",2,30,2,1,52,1,1,1,5,0.4584229,0.5119375
"1013",2,23,2,1,53,1,1,1,5,0.5250806,0.4859204
"1014",2,31,2,1,54,3,2,0,1,0.6709506,0.6994835
"1015",2,24,2,2,55,2,2,1,3,0.6290668,0.5874182
"1016",2,19,2,2,56,3,1,0,2,0.8259811,0.8124309
"1017",2,18,2,2,57,1,1,0,4,0.3775793,0.41597
"1018",2,30,2,1,58,1,1,1,5,0.499775,0.4595256
"1019",2,36,2,1,59,2,2,0,2,0.6934616,0.7713418
"1020",2,24,2,1,60,2,1,1,4,0.7393351,0.7002631
"1021",2,29,2,1,61,1,2,0,3,0.4044564,0.4850031
"1022",2,30,2,1,62,2,1,1,3,0.7472157,0.8092814
"1023",2,23,2,1,63,3,1,1,2,0.6048823,0.6501419
"1024",2,31,2,1,64,3,2,0,2,1.469697,1.476967
"1025",2,24,2,1,65,2,2,0,3,0.8053873,0.7749646
"1026",2,19,2,1,66,1,1,1,5,0.5257786,0.4755483
"1027",2,18,2,1,67,2,2,0,3,0.7735967,0.7861465
"1028",2,30,2,1,68,1,1,1,5,0.4711043,0.3677102
"1029",2,36,2,2,69,2,2,1,3,0.5745353,0.6396962
"1030",2,24,2,2,70,3,1,0,2,1.037448,1.075277
"1031",2,29,2,2,71,2,1,0,3,0.7700833,0.7602306
"1032",2,30,2,1,72,3,1,1,2,1.0297,1.062622
"1033",2,23,2,2,73,2,2,1,4,0.521496,0.5912629
"1034",2,31,2,1,74,1,1,1,5,0.4431406,0.4091903
"1035",2,24,2,1,75,2,2,0,3,0.8504292,0.9457309
"1036",2,19,2,1,76,3,1,1,2,0.9093157,0.9691354
"1037",2,18,2,2,77,2,2,1,3,0.7439231,0.8281952
"1038",2,30,2,2,78,2,1,0,3,0.4827685,0.4980318
"1039",2,36,2,2,79,2,2,1,4,0.7310251,0.7211928
"1040",2,24,2,2,80,3,2,1,3,0.8708701,0.8488983
"1041",2,29,2,1,81,3,2,0,1,0.2806283,0.2487982
"1042",2,30,2,2,82,2,1,0,3,0.6783012,0.74944
"1043",2,23,2,1,83,2,1,1,4,0.650629,0.6159497
"1044",2,31,2,1,84,1,1,1,5,0.4432677,0.5102277
"1045",2,24,2,2,85,2,1,0,3,0.6658388,0.6649469
"1046",2,19,2,1,86,1,1,1,5,0.3677165,0.4216644
"1047",2,18,2,2,87,1,2,1,5,0.3519731,0.3690928
"1048",2,30,2,2,88,1,2,1,5,0.3662049,0.3893424
"1049",2,36,2,1,89,1,2,0,4,0.6694062,0.7020206
"1050",2,24,2,2,90,2,1,0,3,0.4992371,0.4861399
"1051",2,29,2,2,91,1,2,1,4,0.3313554,0.3764461
"1052",2,30,2,2,92,3,1,0,1,0.9754985,1.001014
"1053",2,23,2,2,93,3,2,1,2,0.9064936,0.9340417
"1054",2,31,2,2,94,2,1,0,2,0.750133,0.7381544
"1055",2,24,2,2,95,3,2,1,2,0.9802222,1.089875
"1056",2,19,2,2,96,2,1,0,3,0.4338454,0.3949566
"1057",2,18,2,1,97,3,1,1,3,0.9282124,0.8873097
"1058",2,30,2,2,98,2,2,1,4,0.5077466,0.5607616
"1059",2,36,2,1,99,1,1,1,5,0.4472425,0.4043231
"1060",2,24,2,2,100,1,1,0,4,0.6833206,0.5853365
"1061",2,29,2,2,101,2,2,1,3,0.6394031,0.7002739
"1062",2,30,2,2,102,2,2,1,3,0.5059989,0.4448533
"1063",2,23,2,2,103,1,2,1,5,0.4624381,0.4484036
"1064",2,31,2,2,104,3,1,0,1,0.7319045,0.7331131
"1065",2,24,2,2,105,3,2,1,3,0.7672852,0.7576748
"1066",2,19,2,2,106,3,1,0,1,0.9833296,1.035622
"1067",2,18,2,2,107,2,2,1,4,0.4232222,0.4523728
"1068",2,30,2,1,108,3,1,1,3,0.7418597,0.7688576
"1069",2,36,2,1,109,3,2,0,2,1.372571,1.441668
"1070",2,24,2,2,110,2,1,0,3,0.6005631,0.6019995
"1071",2,29,2,1,111,1,2,0,3,0.5500192,0.5574473
"1072",2,30,2,1,112,3,1,1,2,0.6476491,0.6795084
"1073",2,23,2,2,113,2,1,0,2,0.690236,0.6315823
"1074",2,31,2,1,114,1,1,1,4,0.3750888,0.3743358
"1075",2,24,2,1,115,1,2,0,3,0.6062733,0.6376465
"1076",2,19,2,1,116,2,2,0,2,0.4643329,0.4861944
"1077",2,18,2,1,117,2,1,1,4,0.7020703,0.6860323
"1078",2,30,2,2,118,3,1,0,2,0.3946191,0.3944468
"1079",2,36,2,1,119,3,2,0,1,0.7412639,0.7939294
"1080",2,24,2,2,120,2,2,1,4,0.5344541,0.5032003
"1081",2,29,2,2,121,2,2,1,3,0.4878383,0.5342282
"1082",2,30,2,1,122,3,1,1,3,0.6088977,0.6602963
"1083",2,23,2,1,123,1,1,1,5,0.4212501,0.5079589
"1084",2,31,2,2,124,3,1,0,2,0.6536128,0.5938511
"1085",2,24,2,2,125,2,2,1,4,0.7693119,0.710852
"1086",2,19,2,2,126,1,2,1,4,0.4099658,0.4294467
"1087",2,18,2,1,127,1,1,1,5,0.3071719,0.2222429
"1088",2,30,2,2,128,2,2,1,3,0.7474862,0.7311315
"1089",2,36,2,1,129,2,2,0,3,0.6488701,0.7329146
"1090",2,24,2,2,130,2,2,1,3,0.6128932,0.6725269
"1091",2,29,2,1,131,2,2,0,3,0.5429756,0.5850852
"1092",2,30,2,2,132,1,1,0,3,0.6143947,0.5541109
"1093",2,23,2,1,133,3,2,0,1,1.678232,1.687375
"1094",2,31,2,1,134,2,2,0,2,0.8159629,0.8663874
"1095",2,24,2,1,135,2,1,1,3,0.7469281,0.7738834
"1096",2,19,2,1,136,3,1,1,3,0.8313502,0.8093965
"1097",2,18,2,1,137,2,1,1,3,0.5840239,0.5794533
"1098",2,30,2,1,138,1,1,1,4,0.4860991,0.4794391
"1099",2,36,2,1,139,3,1,1,2,0.868005,0.8813543
"1100",2,24,2,2,140,3,1,0,2,0.5241494,0.4566851
"1101",2,29,2,2,141,3,1,0,1,1.063814,1.041689
"1102",2,30,2,1,142,1,1,1,5,0.4883058,0.4630159
"1103",2,23,2,2,143,3,1,0,2,1.284991,1.274532
"1104",2,31,2,1,144,1,1,1,5,0.4551282,0.4523473
"1105",2,24,2,1,145,2,1,1,3,0.720153,0.7521816
"1106",2,19,2,1,146,2,1,1,3,0.6874524,0.7795643
"1107",2,18,2,2,147,1,2,1,4,0.2485994,0.3439451
"1108",2,30,2,1,148,3,1,1,3,0.7067031,0.7696786
"1109",2,36,2,2,149,3,2,1,3,0.9560936,1.068375
"1110",2,24,2,2,150,2,2,1,4,0.382501,0.3240317
"1111",2,29,2,2,151,2,1,0,2,0.6755965,0.7147733
"1112",2,30,2,2,152,3,1,0,1,0.5910335,0.6291576
"1113",2,23,2,2,153,3,1,0,2,1.70641,1.680086
"1114",2,31,2,2,154,3,1,0,1,1.052319,0.9792601
"1115",2,24,2,2,155,2,2,1,4,0.4415663,0.4222346
"1116",2,19,2,1,156,3,1,1,3,0.731428,0.8350564
"1117",2,18,2,1,157,3,1,1,2,1.221104,1.238087
"1118",2,30,2,2,158,1,2,1,5,0.3598265,0.3145821
"1119",2,36,2,1,159,3,2,0,2,1.147938,1.148491
"1120",2,24,2,1,160,2,1,1,3,0.5980585,0.6068681
"1121",2,29,2,2,161,3,1,0,2,0.6323211,0.6680889
"1122",2,30,2,2,162,2,2,1,3,0.5070698,0.5336648
"1123",2,23,2,2,163,2,2,1,3,0.4935104,0.4429906
"1124",2,31,2,1,164,2,2,0,2,0.8649269,0.8794239
"1125",2,24,2,1,165,3,2,0,2,1.170202,1.174916
"1126",2,19,2,2,166,1,2,1,4,0.4643884,0.427242
"1127",2,18,2,1,167,2,1,1,3,0.6622639,0.6920149
"1128",2,30,2,1,168,1,1,1,5,0.5019598,0.5496813
"1129",2,36,2,2,169,3,1,0,1,1.177317,1.131488
"1130",2,24,2,2,170,3,2,1,2,0.8993994,0.9120565
"1131",2,29,2,2,171,3,2,1,3,0.9348748,0.9212629
"1132",2,30,2,1,172,2,2,0,3,0.7230916,0.734761
"1133",2,23,2,2,173,2,2,1,4,0.6357839,0.6103076
"1134",2,31,2,2,174,1,2,1,5,0.2860383,0.2089214
"1135",2,24,2,1,175,1,1,1,5,0.5258483,0.5204449
"1136",2,19,2,2,176,1,2,1,5,0.365227,0.3260968
"1137",2,18,2,2,177,3,2,1,3,1.004294,0.9725061
"1138",2,30,2,2,178,3,1,0,1,0.9585114,0.9411858
"1139",2,36,2,2,179,3,2,1,2,0.893167,0.936369
"1140",2,24,2,1,180,1,1,1,4,0.3963716,0.3960235
"1141",2,29,2,2,181,1,2,1,5,0.3484161,0.4327888
"1142",2,30,2,1,182,2,2,0,3,0.6940602,0.7146699
"1143",2,23,2,1,183,3,2,0,1,1.491618,1.531473
"1144",2,31,2,2,184,2,1,0,3,0.6573023,0.6841646
"1145",2,24,2,1,185,2,1,1,4,0.8726137,0.815389
"1146",2,19,2,2,186,1,2,1,4,0.6231438,0.638719
"1147",2,18,2,1,187,1,1,1,4,0.3575781,0.3130793
"1148",2,30,2,1,188,1,1,1,4,0.4603074,0.5328203
"1149",2,36,2,1,189,1,2,0,4,0.5032219,0.4502706
"1150",2,24,2,2,190,1,2,1,5,0.4046456,0.4036593
"1151",2,29,2,1,191,1,1,1,4,0.3954332,0.4222746
"1152",2,30,2,1,192,1,1,1,4,0.4415164,0.3558227
"1153",2,23,2,1,193,2,1,1,3,0.5086848,0.508679
"1154",2,31,2,2,194,2,2,1,3,0.6874464,0.7235634
"1155",2,24,2,1,195,1,1,1,4,0.326311,0.3191537
"1156",2,19,2,1,196,2,1,1,4,0.7030358,0.6797836
"1157",2,18,2,2,197,2,1,0,2,0.4674461,0.4399408
"1158",2,30,2,2,198,3,1,0,1,1.129534,1.089865
"1159",2,36,2,2,199,3,2,1,2,0.9968082,0.9986098
"1160",2,24,2,2,200,2,2,1,4,0.6518959,0.6732417
"1161",2,29,2,1,201,1,1,1,4,0.4015874,0.4143881
"1162",2,30,2,1,202,3,1,1,3,0.7603317,0.7153779
"1163",2,23,2,1,203,3,2,0,2,1.037094,0.9407715
"1164",2,31,2,1,204,1,1,1,4,0.4089199,0.3671856
"1165",2,24,2,1,205,1,2,0,3,0.4794772,0.5013017
"1166",2,19,2,2,206,3,1,0,1,1.039966,1.040544
"1167",2,18,2,2,207,1,2,1,5,0.5667506,0.6139779
"1168",2,30,2,1,208,1,2,0,3,0.8113903,0.8012688
"1169",2,36,2,1,209,3,2,0,2,1.025294,0.9654914
"1170",2,24,2,2,210,2,1,0,3,0.5613594,0.6037847
"1171",2,29,2,1,211,1,2,0,4,0.5985383,0.56173
"1172",2,30,2,2,212,2,2,1,3,0.5398495,0.6119369
"1173",2,23,2,1,213,2,2,0,2,0.5905588,0.4867724
"1174",2,31,2,2,214,3,1,0,2,0.7074076,0.725059
"1175",2,24,2,2,215,2,1,0,3,0.7178712,0.6995804
"1176",2,19,2,2,216,1,2,1,5,0.3008281,0.3082102
"1177",2,18,2,1,217,3,2,0,1,0.8903346,0.8718964
"1178",2,30,2,1,218,2,2,0,3,0.4360883,0.4870713
"1179",2,36,2,1,219,3,2,0,2,0.7069861,0.7795959
"1180",2,24,2,1,220,1,2,0,4,0.6108877,0.6288644
"1181",2,29,2,1,221,3,1,1,2,0.4857185,0.5185962
"1182",2,30,2,1,222,2,1,1,3,0.7149207,0.6866006
"1183",2,23,2,2,223,1,1,0,4,0.4413124,0.4479748
"1184",2,31,2,1,224,3,2,0,1,0.6738589,0.4747354
"1185",2,24,2,1,225,3,1,1,2,0.6761985,0.6890084
"1186",2,19,2,2,226,2,2,1,4,0.6130673,0.5900832
"1187",2,18,2,1,227,1,1,1,5,0.4819727,0.4789891
"1188",2,30,2,1,228,1,2,0,4,0.6969421,0.7566093
"1189",2,36,2,1,229,3,2,0,2,1.217618,1.253443
"1190",2,24,2,2,230,1,2,1,4,0.3512494,0.3525891
"1191",2,29,2,1,231,1,2,0,4,0.5952219,0.6113187
"1192",2,30,2,1,232,2,2,0,2,0.673661,0.6409912
"1193",2,23,2,2,233,3,1,0,2,0.8513524,0.7488817
"1194",2,31,2,2,234,3,1,0,1,1.086274,0.9762915
"1195",2,24,2,1,235,3,1,1,3,0.7384889,0.7450701
"1196",2,19,2,1,236,2,1,1,4,0.3635452,0.2814358
"1197",2,18,2,2,237,3,1,0,2,1.347827,1.374865
"1198",2,30,2,2,238,1,2,1,4,0.3661338,0.4830373
"1199",2,36,2,1,239,1,1,1,5,0.3576748,0.4037649
"1200",2,24,2,1,240,1,1,1,4,0.432388,0.4343996
"1201",1,21,1,2,1,1,2,1,4,0.511131,0.5310283
"1202",1,27,1,1,2,3,2,0,1,1.294603,1.305804
"1203",1,22,1,2,3,1,2,1,4,0.4647857,0.4671531
"1204",1,24,1,1,4,1,1,1,5,0.4657239,0.4284751
"1205",1,28,1,2,5,3,1,0,2,1.416534,1.485819
"1206",1,18,1,1,6,3,1,1,2,0.6995403,0.6436046
"1207",1,30,1,1,7,2,1,1,3,0.4745215,0.3873225
"1208",1,20,1,2,8,3,1,0,1,0.9338379,0.8373313
"1209",1,24,1,2,9,2,1,0,3,0.8805971,0.9355018
"1210",1,30,1,1,10,1,1,1,5,0.4453162,0.4896896
"1211",1,21,1,2,11,1,2,1,5,0.4733645,0.4586057
"1212",1,27,1,2,12,2,2,1,4,0.597417,0.6552402
"1213",1,22,1,2,13,3,1,0,2,1.443174,1.435579
"1214",1,24,1,2,14,3,1,0,1,1.767891,1.700405
"1215",1,28,1,2,15,2,1,0,2,0.7606065,0.7816727
"1216",1,18,1,1,16,1,1,1,4,0.3429215,0.3527268
"1217",1,30,1,1,17,3,1,1,3,1.160974,1.180851
"1218",1,20,1,1,18,3,2,0,1,1.215256,1.211833
"1219",1,24,1,2,19,3,2,1,2,0.9945911,0.9096792
"1220",1,30,1,1,20,2,1,1,4,0.5740948,0.5685999
"1221",1,21,1,1,21,2,1,1,3,0.4589446,0.4655505
"1222",1,27,1,1,22,1,2,0,4,0.6448975,0.5764368
"1223",1,22,1,1,23,1,1,1,4,0.5147993,0.4760264
"1224",1,24,1,2,24,3,1,0,2,0.9641536,0.9269413
"1225",1,28,1,2,25,2,2,1,4,0.5895835,0.5988198
"1226",1,18,1,2,26,3,1,0,2,1.122379,1.136795
"1227",1,30,1,2,27,2,2,1,3,0.6234817,0.6757428
"1228",1,20,1,1,28,2,2,0,2,0.9787836,0.9484762
"1229",1,24,1,1,29,2,1,1,4,0.5438362,0.6364474
"1230",1,30,1,2,30,3,1,0,1,0.7164217,0.7091489
"1231",1,21,1,1,31,2,1,1,4,0.612397,0.6165441
"1232",1,27,1,1,32,1,1,1,5,0.354858,0.3232842
"1233",1,22,1,1,33,3,1,1,3,0.8698728,0.9328721
"1234",1,24,1,1,34,3,2,0,2,0.7280196,0.7547223
"1235",1,28,1,1,35,3,2,0,1,1.487793,1.350416
"1236",1,18,1,1,36,1,1,1,5,0.3277807,0.3470451
"1237",1,30,1,2,37,3,2,1,2,0.6340728,0.6756518
"1238",1,20,1,2,38,3,2,1,3,0.550976,0.5771388
"1239",1,24,1,1,39,2,2,0,3,0.5860195,0.461611
"1240",1,30,1,1,40,1,2,0,4,0.4831197,0.4567119
"1241",1,21,1,2,41,1,1,0,4,0.4787218,0.5961233
"1242",1,27,1,1,42,1,1,1,4,0.3793509,0.3582508
"1243",1,22,1,2,43,1,2,1,5,0.497029,0.5798594
"1244",1,24,1,1,44,1,1,1,4,0.4607809,0.5156516
"1245",1,28,1,2,45,1,2,1,4,0.4232781,0.4409119
"1246",1,18,1,2,46,1,2,1,4,0.3950229,0.4004664
"1247",1,30,1,2,47,1,1,0,4,0.4693055,0.4058787
"1248",1,20,1,2,48,1,2,1,4,0.4688677,0.5318771
"1249",1,24,1,2,49,3,2,1,3,0.996694,0.9863667
"1250",1,30,1,2,50,2,1,0,3,0.680876,0.7368312
"1251",1,21,1,1,51,1,1,1,5,0.3511141,0.2886241
"1252",1,27,1,2,52,2,2,1,4,0.6582444,0.6511487
"1253",1,22,1,1,53,2,1,1,3,0.6265721,0.5846959
"1254",1,24,1,2,54,3,2,1,2,0.8937633,0.9312377
"1255",1,28,1,2,55,2,1,0,3,0.5633169,0.5829877
"1256",1,18,1,2,56,2,2,1,4,0.7736909,0.7768765
"1257",1,30,1,1,57,2,2,0,3,0.5798878,0.6509757
"1258",1,20,1,2,58,1,2,1,4,0.4270307,0.3650788
"1259",1,24,1,2,59,3,2,1,2,0.8680045,0.8359511
"1260",1,30,1,2,60,1,2,1,5,0.3666625,0.4283616
"1261",1,21,1,2,61,1,1,0,4,0.5776712,0.5846661
"1262",1,27,1,2,62,2,1,0,3,0.6385925,0.5272021
"1263",1,22,1,2,63,2,2,1,4,0.4743229,0.4496218
"1264",1,24,1,2,64,2,2,1,4,0.6457955,0.5395041
"1265",1,28,1,2,65,1,1,0,3,0.5679022,0.5984832
"1266",1,18,1,1,66,2,2,0,2,0.8460193,0.8766345
"1267",1,30,1,1,67,1,1,1,5,0.4594764,0.4958028
"1268",1,20,1,2,68,2,2,1,3,0.858837,0.7572645
"1269",1,24,1,2,69,3,1,0,2,0.7305836,0.7039422
"1270",1,30,1,2,70,3,2,1,2,0.4302879,0.4255689
"1271",1,21,1,1,71,3,2,0,2,0.6046627,0.5900345
"1272",1,27,1,1,72,3,2,0,2,1.583044,1.540227
"1273",1,22,1,2,73,2,1,0,3,0.6887286,0.7344093
"1274",1,24,1,2,74,1,2,1,5,0.4252925,0.3998922
"1275",1,28,1,2,75,3,2,1,3,0.6183145,0.6010259
"1276",1,18,1,2,76,2,1,0,2,0.8742509,0.7657216
"1277",1,30,1,2,77,2,2,1,4,0.7501458,0.756042
"1278",1,20,1,2,78,1,2,1,4,0.3436001,0.2845167
"1279",1,24,1,2,79,1,2,1,5,0.3793904,0.3669427
"1280",1,30,1,1,80,1,2,0,3,0.3645949,0.3277164
"1281",1,21,1,1,81,1,1,1,4,0.4599887,0.392249
"1282",1,27,1,2,82,2,2,1,4,0.5309559,0.6208333
"1283",1,22,1,2,83,1,2,1,5,0.4377116,0.4308282
"1284",1,24,1,2,84,3,2,1,3,0.7587122,0.7894197
"1285",1,28,1,1,85,1,1,1,4,0.3212917,0.3920041
"1286",1,18,1,2,86,2,1,0,2,0.7084128,0.7207864
"1287",1,30,1,1,87,3,1,1,3,1.20071,1.133147
"1288",1,20,1,2,88,2,2,1,3,0.9034592,0.8972178
"1289",1,24,1,2,89,2,1,0,2,0.8596626,0.8804379
"1290",1,30,1,1,90,2,1,1,3,0.3965352,0.3376599
"1291",1,21,1,1,91,2,1,1,4,0.5221813,0.5837463
"1292",1,27,1,2,92,1,1,0,4,0.6033041,0.5952014
"1293",1,22,1,1,93,3,2,0,1,0.830072,0.7763034
"1294",1,24,1,1,94,3,2,0,2,1.187093,1.202969
"1295",1,28,1,1,95,1,1,1,4,0.5094196,0.5084965
"1296",1,18,1,2,96,1,2,1,4,0.4777074,0.524911
"1297",1,30,1,2,97,1,2,1,5,0.4741412,0.4342812
"1298",1,20,1,1,98,2,1,1,3,0.3685948,0.3963105
"1299",1,24,1,1,99,3,1,1,2,0.7622575,0.6937811
"1300",1,30,1,2,100,3,1,0,1,0.9932476,0.997435
"1301",1,21,1,1,101,2,1,1,3,0.4913631,0.4320124
"1302",1,27,1,1,102,1,1,1,5,0.3475351,0.3570835
"1303",1,22,1,2,103,3,2,1,3,0.9414225,0.9883053
"1304",1,24,1,2,104,1,2,1,5,0.4813865,0.4269226
"1305",1,28,1,1,105,2,2,0,3,0.3539713,0.2992065
"1306",1,18,1,2,106,2,1,0,2,0.815947,0.8681073
"1307",1,30,1,1,107,2,1,1,3,0.8256813,0.8409847
"1308",1,20,1,2,108,2,2,1,4,0.5052851,0.5269917
"1309",1,24,1,2,109,3,2,1,3,0.6972699,0.6398263
"1310",1,30,1,1,110,2,1,1,4,0.610452,0.6388192
"1311",1,21,1,1,111,3,2,0,2,1.344996,1.299208
"1312",1,27,1,1,112,3,2,0,1,0.8159282,0.9046902
"1313",1,22,1,2,113,1,2,1,5,0.3444345,0.371969
"1314",1,24,1,1,114,3,2,0,1,1.042382,1.114679
"1315",1,28,1,1,115,3,1,1,2,0.8192029,0.8514881
"1316",1,18,1,2,116,1,2,1,4,0.327166,0.2024163
"1317",1,30,1,2,117,2,2,1,3,0.5759623,0.5244083
"1318",1,20,1,1,118,3,2,0,1,1.577836,1.657507
"1319",1,24,1,1,119,3,2,0,1,0.8801532,0.8581531
"1320",1,30,1,2,120,1,2,1,4,0.3657111,0.3935265
"1321",1,21,1,1,121,2,2,0,2,0.5834432,0.637331
"1322",1,27,1,2,122,1,2,1,4,0.4996641,0.5078621
"1323",1,22,1,2,123,2,1,0,3,0.7756041,0.763203
"1324",1,24,1,2,124,1,2,1,4,0.5230263,0.5412214
"1325",1,28,1,2,125,3,1,0,1,0.9866645,1.058774
"1326",1,18,1,1,126,2,2,0,3,0.703074,0.6966781
"1327",1,30,1,1,127,3,2,0,2,0.8425237,0.7530826
"1328",1,20,1,2,128,2,2,1,4,0.4616118,0.5003123
"1329",1,24,1,2,129,3,2,1,2,0.6252256,0.6432582
"1330",1,30,1,2,130,3,2,1,3,0.719908,0.6823023
"1331",1,21,1,2,131,1,2,1,4,0.5008544,0.4931293
"1332",1,27,1,2,132,3,1,0,2,0.7494023,0.7411421
"1333",1,22,1,2,133,3,2,1,3,0.7113318,0.7377886
"1334",1,24,1,1,134,3,1,1,2,0.735642,0.6983671
"1335",1,28,1,2,135,3,1,0,2,0.5967058,0.5933971
"1336",1,18,1,1,136,3,1,1,3,1.023521,0.9832759
"1337",1,30,1,2,137,1,2,1,4,0.5309135,0.5260027
"1338",1,20,1,2,138,3,2,1,2,0.7763011,0.817321
"1339",1,24,1,1,139,1,2,0,4,0.6933783,0.6480971
"1340",1,30,1,1,140,1,1,1,4,0.46177,0.5127051
"1341",1,21,1,1,141,3,2,0,2,0.7053376,0.7010522
"1342",1,27,1,1,142,1,2,0,3,0.5471384,0.4976432
"1343",1,22,1,1,143,2,1,1,3,0.3857099,0.4686994
"1344",1,24,1,1,144,2,2,0,2,0.4881168,0.3859813
"1345",1,28,1,1,145,1,1,1,4,0.4727629,0.4171406
"1346",1,18,1,1,146,1,1,1,4,0.2941847,0.3664372
"1347",1,30,1,1,147,2,1,1,4,0.5570299,0.4982296
"1348",1,20,1,2,148,3,2,1,3,0.5196783,0.5750032
"1349",1,24,1,2,149,3,2,1,2,0.6832035,0.6221492
"1350",1,30,1,2,150,1,2,1,4,0.3931876,0.2641168
"1351",1,21,1,1,151,1,1,1,4,0.5273627,0.4370003
"1352",1,27,1,2,152,1,2,1,4,0.3114765,0.2995514
"1353",1,22,1,1,153,3,2,0,2,1.259349,1.251717
"1354",1,24,1,1,154,1,1,1,5,0.3865931,0.3558839
"1355",1,28,1,2,155,3,2,1,3,0.8544662,0.8324677
"1356",1,18,1,1,156,1,1,1,4,0.541349,0.5229121
"1357",1,30,1,2,157,2,1,0,3,0.8325009,0.8241538
"1358",1,20,1,1,158,1,1,1,4,0.5191319,0.5399432
"1359",1,24,1,2,159,2,2,1,3,0.5354546,0.550461
"1360",1,30,1,1,160,2,1,1,4,0.3883396,0.4432133
"1361",1,21,1,2,161,1,2,1,4,0.444794,0.3991407
"1362",1,27,1,2,162,3,1,0,1,1.370901,1.408955
"1363",1,22,1,1,163,1,1,1,5,0.3767143,0.3295041
"1364",1,24,1,2,164,2,1,0,2,0.394474,0.3803738
"1365",1,28,1,2,165,1,1,0,4,0.5081249,0.4656558
"1366",1,18,1,1,166,3,2,0,1,0.2692918,0.2585467
"1367",1,30,1,2,167,3,2,1,3,0.9474584,0.9156871
"1368",1,20,1,1,168,1,1,1,5,0.3507624,0.3832475
"1369",1,24,1,1,169,3,1,1,3,0.96972,0.9435541
"1370",1,30,1,1,170,2,2,0,3,0.4911199,0.4913319
"1371",1,21,1,1,171,3,1,1,2,0.6649858,0.7729904
"1372",1,27,1,1,172,2,1,1,3,0.681601,0.7859633
"1373",1,22,1,2,173,2,1,0,3,0.9036344,0.9296851
"1374",1,24,1,1,174,2,1,1,4,0.3810076,0.4277507
"1375",1,28,1,1,175,1,1,1,4,0.4422688,0.4173958
"1376",1,18,1,1,176,2,2,0,2,0.6879075,0.5834039
"1377",1,30,1,2,177,2,1,0,3,0.762513,0.8175914
"1378",1,20,1,1,178,1,2,0,3,0.5617315,0.5800732
"1379",1,24,1,1,179,2,2,0,2,0.6834276,0.6313324
"1380",1,30,1,2,180,1,1,0,3,0.4260579,0.4264645
"1381",1,21,1,1,181,2,2,0,2,0.6099911,0.5470617
"1382",1,27,1,1,182,1,1,1,5,0.3879562,0.3490851
"1383",1,22,1,1,183,3,1,1,3,0.6560534,0.6734191
"1384",1,24,1,2,184,2,2,1,4,0.7743913,0.8032638
"1385",1,28,1,1,185,3,2,0,2,1.542295,1.547928
"1386",1,18,1,2,186,1,2,1,4,0.4306387,0.4034415
"1387",1,30,1,1,187,2,1,1,4,0.5028732,0.379615
"1388",1,20,1,2,188,2,2,1,3,0.7434418,0.7270705
"1389",1,24,1,1,189,3,1,1,3,0.9592629,0.9511164
"1390",1,30,1,1,190,2,1,1,4,0.5390578,0.5477132
"1391",1,21,1,1,191,2,2,0,3,0.5482889,0.6106991
"1392",1,27,1,1,192,3,2,0,2,0.8125452,0.7641143
"1393",1,22,1,1,193,2,1,1,4,0.6522239,0.694565
"1394",1,24,1,1,194,3,2,0,2,1.752093,1.776612
"1395",1,28,1,2,195,2,2,1,3,0.6588055,0.6613086
"1396",1,18,1,2,196,3,2,1,3,0.9147139,0.9500284
"1397",1,30,1,2,197,1,1,0,4,0.4335863,0.4365229
"1398",1,20,1,1,198,1,1,1,5,0.419048,0.3989862
"1399",1,24,1,2,199,3,2,1,3,1.069444,1.073214
"1400",1,30,1,2,200,3,2,1,2,0.9676029,1.08203
"1401",1,21,1,1,201,2,1,1,4,0.6928043,0.7186858
"1402",1,27,1,2,202,1,2,1,4,0.2498216,0.3478467
"1403",1,22,1,2,203,2,2,1,3,0.4465162,0.5578416
"1404",1,24,1,1,204,3,2,0,2,1.582737,1.549657
"1405",1,28,1,1,205,1,1,1,5,0.4247755,0.5130293
"1406",1,18,1,1,206,3,2,0,1,1.714667,1.63713
"1407",1,30,1,1,207,2,1,1,4,0.5532303,0.5132846
"1408",1,20,1,2,208,3,2,1,2,0.8550833,0.9056189
"1409",1,24,1,1,209,2,2,0,2,0.5864324,0.5838817
"1410",1,30,1,1,210,2,1,1,4,0.6953404,0.7549424
"1411",1,21,1,2,211,1,2,1,5,0.4057153,0.3540026
"1412",1,27,1,1,212,1,1,1,4,0.4649384,0.4714306
"1413",1,22,1,1,213,3,1,1,2,0.9539656,0.9754047
"1414",1,24,1,1,214,2,1,1,3,0.5045059,0.4999262
"1415",1,28,1,2,215,2,2,1,4,0.4233018,0.408332
"1416",1,18,1,2,216,1,2,1,5,0.4074139,0.5220017
"1417",1,30,1,2,217,2,2,1,3,0.6036208,0.6286682
"1418",1,20,1,1,218,1,1,1,5,0.4572729,0.5168082
"1419",1,24,1,2,219,3,2,1,2,0.7844514,0.7724582
"1420",1,30,1,2,220,2,2,1,3,0.4906638,0.5510679
"1421",1,21,1,1,221,3,2,0,2,1.269985,1.283001
"1422",1,27,1,1,222,1,1,1,5,0.3616624,0.4453616
"1423",1,22,1,2,223,2,1,0,3,0.7704546,0.7642768
"1424",1,24,1,1,224,1,2,0,3,0.4760977,0.4373825
"1425",1,28,1,1,225,3,1,1,2,1.262944,1.306724
"1426",1,18,1,2,226,2,2,1,3,0.5120789,0.4599692
"1427",1,30,1,1,227,3,2,0,1,0.7084243,0.6705257
"1428",1,20,1,1,228,3,2,0,1,0.5183954,0.4436691
"1429",1,24,1,2,229,1,2,1,5,0.4536484,0.4506245
"1430",1,30,1,1,230,1,1,1,5,0.3084124,0.346156
"1431",1,21,1,1,231,1,1,1,4,0.2881024,0.3726708
"1432",1,27,1,2,232,3,1,0,2,0.640015,0.7109262
"1433",1,22,1,2,233,2,1,0,3,0.762968,0.7062063
"1434",1,24,1,2,234,3,1,0,2,1.050225,1.111772
"1435",1,28,1,1,235,1,1,1,5,0.4934841,0.5132582
"1436",1,18,1,2,236,2,2,1,4,0.6415396,0.6999715
"1437",1,30,1,1,237,1,1,1,5,0.3102757,0.3034922
"1438",1,20,1,2,238,3,2,1,3,0.7538882,0.7805517
"1439",1,24,1,1,239,3,1,1,2,0.696933,0.7661522
"1440",1,30,1,1,240,2,2,0,2,0.6966866,0.7025335
