"","subj_no","age","group","stim","trial","difficulty","resp","corr","conf","RT_day1","RT_day2"
"1",7,25,1,2,1,1,1,0,3,0.674650458103023,0.645068596139425
"2",7,21,1,2,2,2,1,0,3,0.916274799446267,0.762510583941606
"3",7,22,1,1,3,3,2,0,2,0.0624557059715228,-0.00741029133811043
"4",7,38,1,2,4,3,2,1,2,0.689730641844946,0.699724898262371
"5",7,22,1,1,5,2,1,1,3,0.464209125582957,0.445170750878776
"6",7,20,1,1,6,1,1,1,5,0.284664030004402,0.399888287507002
"7",7,30,1,1,7,3,1,1,2,0.855944494282443,0.851111562023323
"8",7,23,1,1,8,1,2,0,3,0.623112658175899,0.635993464306322
"9",7,34,1,1,9,3,2,0,1,1.14308313534451,1.15046806903497
"10",7,38,1,1,10,2,2,0,3,0.86749416466,0.852645712306647
"11",7,25,1,1,11,2,2,0,2,0.784130290381065,0.766092042588847
"12",7,21,1,2,12,1,2,1,5,0.261133739594462,0.223997629025206
"13",7,22,1,2,13,2,2,1,3,0.439994888125023,0.482015531023103
"14",7,38,1,1,14,2,1,1,4,0.399728115725416,0.362835930838332
"15",7,22,1,2,15,1,2,1,5,0.396950046806984,0.485116607496365
"16",7,20,1,2,16,3,2,1,2,0.554418679354026,0.573238304822605
"17",7,30,1,1,17,1,1,1,4,0.424498106377637,0.281304700998199
"18",7,23,1,2,18,1,2,1,5,0.32034541763552,0.294030489004784
"19",7,34,1,2,19,1,2,1,4,0.333367760246219,0.207806385997952
"20",7,38,1,1,20,1,1,1,5,0.481830844069339,0.483921132072852
"21",7,25,1,1,21,2,1,1,3,0.771287089795918,0.760823947094857
"22",7,21,1,1,22,3,2,0,1,0.761564456725552,0.764697158849615
"23",7,22,1,2,23,3,2,1,2,0.653426120457971,0.684967240510888
"24",7,38,1,2,24,3,1,0,2,0.995083498678059,0.948393101092202
"25",7,22,1,2,25,3,2,1,2,0.818692823341687,0.758047216163279
"26",7,20,1,2,26,2,1,0,3,0.946919376458828,0.968258578764756
"27",7,30,1,1,27,1,2,0,4,0.448100321256458,0.431713238174332
"28",7,23,1,2,28,2,1,0,2,0.611252780776858,0.573302622106388
"29",7,34,1,1,29,1,1,1,5,0.327166064690082,0.254607772167632
"30",7,38,1,2,30,3,1,0,2,0.243958212888956,0.303219396348172
"31",7,25,1,2,31,1,2,1,4,0.378579470468459,0.358525156421181
"32",7,21,1,1,32,1,1,1,4,0.390083328825271,0.426070319315555
"33",7,22,1,2,33,2,2,1,3,0.556220715301603,0.640741495496265
"34",7,38,1,2,34,3,1,0,2,1.35495043382481,1.47701139698025
"35",7,22,1,1,35,2,1,1,3,0.420013607935369,0.321696742404489
"36",7,20,1,2,36,1,1,0,4,0.559307967802981,0.626073536919545
"37",7,30,1,1,37,2,2,0,2,0.79898868351116,0.757655541994363
"38",7,23,1,2,38,1,1,0,4,0.665733269855283,0.711233055559598
"39",7,34,1,2,39,1,1,0,4,0.464949646187919,0.511579456205086
"40",7,38,1,2,40,1,2,1,4,0.301217628090768,0.286323196904582
"41",7,25,1,2,41,3,2,1,3,0.481867424188238,0.467033502520218
"42",7,21,1,1,42,3,1,1,3,0.631571680126034,0.667636760880477
"43",7,22,1,2,43,1,1,0,3,0.581588000297861,0.537150614828939
"44",7,38,1,2,44,1,1,0,4,0.6781934354922,0.649792231760399
"45",7,22,1,2,45,1,2,1,5,0.466136158759821,0.533989026349033
"46",7,20,1,1,46,2,1,1,3,0.680896128570058,0.633062675326708
"47",7,30,1,2,47,3,2,1,3,1.13031920384238,1.16168218938566
"48",7,23,1,2,48,3,1,0,1,0.331632073766928,0.359002654657561
"49",7,34,1,2,49,3,1,0,2,0.802556986214027,0.762135082690003
"50",7,38,1,1,50,2,1,1,4,0.732660904280798,0.794137594934271
"51",7,25,1,2,51,2,2,1,3,0.569815442830982,0.550745673064276
"52",7,21,1,2,52,1,2,1,4,0.447117046895566,0.404497429402499
"53",7,22,1,1,53,2,2,0,3,0.766982496920935,0.837193198018442
"54",7,38,1,2,54,3,2,1,2,0.635359375758455,0.695615815096305
"55",7,22,1,2,55,1,1,0,3,0.5222231689731,0.504881067620147
"56",7,20,1,1,56,1,1,1,4,0.405552329986564,0.42934549887652
"57",7,30,1,2,57,1,2,1,5,0.362950215378816,0.33745166649269
"58",7,23,1,2,58,2,1,0,3,0.600840597358612,0.664484807555078
"59",7,34,1,2,59,2,2,1,3,0.669780585134789,0.667577413411896
"60",7,38,1,1,60,2,2,0,2,0.650495944117157,0.683135782390837
"61",7,25,1,2,61,2,2,1,3,0.47065187066312,0.433070785437801
"62",7,21,1,1,62,1,2,0,3,0.602755315886537,0.598279067256206
"63",7,22,1,2,63,2,1,0,2,0.644218599078207,0.607003412426859
"64",7,38,1,1,64,3,1,1,3,0.724633118956832,0.710457835120469
"65",7,22,1,1,65,2,2,0,2,0.726527818921799,0.715465331357481
"66",7,20,1,1,66,1,1,1,4,0.487249548960601,0.483323714111301
"67",7,30,1,1,67,3,1,1,2,0.441027905685045,0.518543417219971
"68",7,23,1,2,68,3,2,1,2,0.728108957129379,0.755090696081553
"69",7,34,1,1,69,1,1,1,5,0.338055373199081,0.314039164463541
"70",7,38,1,2,70,1,2,1,5,0.413247615307163,0.451445118763215
"71",7,25,1,1,71,1,1,1,5,0.310339913637503,0.225809461676489
"72",7,21,1,1,72,3,2,0,1,1.17430250186025,1.19941226493685
"73",7,22,1,2,73,1,2,1,4,0.536911185675625,0.608273442181405
"74",7,38,1,2,74,2,2,1,3,0.578497278461932,0.584708484273798
"75",7,22,1,2,75,2,2,1,3,0.571440921123179,0.535818601798256
"76",7,20,1,1,76,1,1,1,4,0.43119413492136,0.404848241050777
"77",7,30,1,2,77,2,1,0,2,0.656133979858573,0.694013131352183
"78",7,23,1,1,78,1,1,1,4,0.334798425430192,0.343890974103865
"79",7,34,1,2,79,3,2,1,2,0.776770976406359,0.813890139439292
"80",7,38,1,1,80,2,1,1,3,0.751048551153987,0.823546379757735
"81",7,25,1,1,81,2,2,0,3,0.474077967869436,0.466377610495686
"82",7,21,1,2,82,1,2,1,4,0.242436821229565,0.312245747678687
"83",7,22,1,1,83,1,1,1,5,0.533781239265837,0.567819083725817
"84",7,38,1,2,84,1,2,1,5,0.325067415906203,0.379165573789141
"85",7,22,1,1,85,1,1,1,5,0.316063226797277,0.361469154190755
"86",7,20,1,2,86,2,1,0,2,1.04530508646229,1.16748199617339
"87",7,30,1,2,87,2,2,1,4,0.4382726225257,0.463587726256194
"88",7,23,1,1,88,3,1,1,2,0.572627658837634,0.529383015675468
"89",7,34,1,2,89,3,2,1,3,0.681595673025845,0.698992546243298
"90",7,38,1,1,90,1,1,1,5,0.354415418799224,0.407490601360792
"91",7,25,1,2,91,2,1,0,2,0.812400831537665,0.857265903060796
"92",7,21,1,1,92,3,1,1,3,0.686359427792364,0.656207430030201
"93",7,22,1,2,93,3,1,0,2,0.15170333985423,0.0918797922070946
"94",7,38,1,1,94,1,2,0,4,0.575504864012776,0.563910705710836
"95",7,22,1,2,95,1,2,1,5,0.289951030107781,0.223322985056512
"96",7,20,1,2,96,3,2,1,3,0.833300312935575,0.80028901912214
"97",7,30,1,2,97,2,2,1,3,0.439216167791632,0.433600168874637
"98",7,23,1,1,98,3,1,1,3,0.742685288965402,0.697032258391113
"99",7,34,1,2,99,2,1,0,3,0.732121887935091,0.718727772479267
"100",7,38,1,2,100,1,2,1,4,0.345714503398856,0.39193141320494
"101",7,25,1,1,101,1,2,0,3,0.305866668374236,0.423957481299695
"102",7,21,1,1,102,3,1,1,3,0.628992525535681,0.650524838863734
"103",7,22,1,1,103,3,1,1,2,1.160340144804,1.09997542263886
"104",7,38,1,1,104,2,1,1,4,0.577618402370791,0.642109303869155
"105",7,22,1,2,105,3,1,0,1,0.825178938947426,0.875616147760141
"106",7,20,1,2,106,3,2,1,3,0.881115966030917,0.845333557283028
"107",7,30,1,1,107,3,2,0,1,1.1576975838784,1.13114766532604
"108",7,23,1,1,108,1,1,1,5,0.213289473179679,0.165985420474523
"109",7,34,1,1,109,2,2,0,2,0.804785811677614,0.722917503944125
"110",7,38,1,1,110,3,1,1,2,0.814613937065962,0.786195879768899
"111",7,25,1,1,111,1,1,1,4,0.507021624897344,0.41635280219521
"112",7,21,1,2,112,2,2,1,3,0.719321259817653,0.63230933980253
"113",7,22,1,2,113,3,2,1,2,0.644755431008049,0.630709070677889
"114",7,38,1,1,114,2,2,0,3,0.31536716050409,0.324505600749596
"115",7,22,1,1,115,1,1,1,4,0.299399410170708,0.328279912438657
"116",7,20,1,1,116,2,1,1,4,0.7346051131986,0.807934338591005
"117",7,30,1,1,117,3,2,0,2,0.612609622122194,0.622538974912277
"118",7,23,1,2,118,2,2,1,3,0.735338664340817,0.718134372700205
"119",7,34,1,1,119,2,1,1,3,0.839752251022365,0.95452948507065
"120",7,38,1,1,120,3,1,1,2,0.8560930270758,0.738931762369834
"121",7,25,1,1,121,3,2,0,2,1.33874226884531,1.32337606568881
"122",7,21,1,1,122,1,2,0,3,0.651064628292485,0.609407149692492
"123",7,22,1,1,123,2,1,1,4,0.388180027359731,0.390690546492851
"124",7,38,1,2,124,3,1,0,1,1.15764177067523,1.12960856048511
"125",7,22,1,1,125,2,1,1,4,0.629401029627519,0.643900379121075
"126",7,20,1,2,126,1,2,1,5,0.477276504407721,0.597715297052618
"127",7,30,1,1,127,1,2,0,3,0.546351936927193,0.592551476030684
"128",7,23,1,1,128,2,1,1,3,0.364785447897512,0.330779134597521
"129",7,34,1,1,129,1,1,1,4,0.454245692988195,0.400541582284736
"130",7,38,1,2,130,2,2,1,3,0.374936684750078,0.321493738176158
"131",7,25,1,2,131,2,2,1,4,0.739834532501929,0.819473623182179
"132",7,21,1,2,132,1,2,1,5,0.380024009707388,0.421852513075666
"133",7,22,1,2,133,3,1,0,1,1.38214467825374,1.44793396773953
"134",7,38,1,2,134,3,1,0,1,1.07047526756401,1.08857506912023
"135",7,22,1,1,135,3,1,1,3,0.512800764313409,0.572766371574754
"136",7,20,1,2,136,2,2,1,4,0.696111386875759,0.685928094326058
"137",7,30,1,1,137,1,1,1,5,0.48968271412239,0.486219088404638
"138",7,23,1,1,138,3,2,0,2,0.987144930095319,0.95248977787121
"139",7,34,1,2,139,3,2,1,2,1.20573078853536,1.09563593479239
"140",7,38,1,1,140,2,2,0,2,0.826040031199273,0.837593444302384
"141",7,25,1,1,141,2,2,0,2,0.748471891108322,0.875313417698756
"142",7,21,1,1,142,3,1,1,2,0.923124806547839,0.959469239929275
"143",7,22,1,2,143,2,1,0,2,0.731387101104778,0.665140293504617
"144",7,38,1,1,144,2,2,0,3,0.83001738672561,0.864388145219854
"145",7,22,1,2,145,2,1,0,2,0.917892124785743,0.999287460687053
"146",7,20,1,1,146,1,1,1,5,0.342805812726156,0.308802923187508
"147",7,30,1,2,147,3,2,1,2,0.553106343996507,0.505324031866102
"148",7,23,1,2,148,1,2,1,4,0.397798761396958,0.421412069601875
"149",7,34,1,1,149,1,1,1,4,0.467532372394586,0.500400382622096
"150",7,38,1,1,150,1,1,1,5,0.458992494007152,0.364332474452517
"151",7,25,1,1,151,2,2,0,2,0.775673436526688,0.822787783162154
"152",7,21,1,1,152,3,1,1,3,0.777694705932389,0.79286991898705
"153",7,22,1,2,153,2,2,1,3,0.672721930905124,0.615258306912913
"154",7,38,1,2,154,1,2,1,4,0.585794896980498,0.644977184263603
"155",7,22,1,1,155,1,1,1,4,0.310507343858544,0.32525691857018
"156",7,20,1,1,156,2,2,0,3,0.936188199598686,0.869546918030806
"157",7,30,1,2,157,3,2,1,3,0.551684646815696,0.488448094328052
"158",7,23,1,1,158,2,1,1,3,0.44122143251311,0.366217265176581
"159",7,34,1,2,159,3,2,1,2,0.819517765144173,0.789758172286399
"160",7,38,1,2,160,2,2,1,4,0.523331346602372,0.542181303774069
"161",7,25,1,2,161,3,1,0,2,0.900733816982342,0.812153034232418
"162",7,21,1,1,162,1,1,1,5,0.448456487461028,0.524049510329138
"163",7,22,1,2,163,3,1,0,2,0.80409465496503,0.830689922497077
"164",7,38,1,1,164,1,1,1,4,0.613234288962199,0.611086463407448
"165",7,22,1,2,165,1,2,1,5,0.29764857284194,0.219641136503351
"166",7,20,1,1,166,3,2,0,2,1.43366848873477,1.41338598611865
"167",7,30,1,2,167,2,2,1,4,0.576150143780315,0.598874181410908
"168",7,23,1,1,168,3,2,0,1,0.874867983117073,0.914822103455419
"169",7,34,1,1,169,3,2,0,1,1.44163760654005,1.47845107153999
"170",7,38,1,1,170,3,1,1,3,0.908617638291351,0.903686327465632
"171",7,25,1,1,171,1,1,1,5,0.361852744541636,0.385131954368915
"172",7,21,1,2,172,3,1,0,2,0.424506636540621,0.39852688142267
"173",7,22,1,1,173,2,2,0,3,0.746972245551078,0.708838627476885
"174",7,38,1,2,174,3,1,0,1,0.790907927688731,0.868803776735422
"175",7,22,1,2,175,2,1,0,3,0.847881365329221,0.867370289663942
"176",7,20,1,2,176,2,1,0,2,0.496602464660703,0.573134405171118
"177",7,30,1,2,177,2,1,0,2,0.773872839237303,0.738997114830181
"178",7,23,1,2,178,2,2,1,3,0.561585492595319,0.539915070252142
"179",7,34,1,2,179,2,2,1,4,0.501607077064995,0.496967475604465
"180",7,38,1,1,180,1,1,1,4,0.196522587229628,0.19520355613541
"181",7,25,1,1,181,3,2,0,2,0.292915676546289,0.416471073937938
"182",7,21,1,2,182,1,2,1,5,0.319391525878821,0.354647910008052
"183",7,22,1,1,183,2,1,1,4,0.674367438532311,0.689450522494962
"184",7,38,1,2,184,2,1,0,2,0.936611659043285,0.936382614572259
"185",7,22,1,1,185,1,1,1,4,0.391467539030302,0.410591385445709
"186",7,20,1,2,186,3,1,0,1,1.16006773691083,1.08906040880224
"187",7,30,1,2,187,2,1,0,2,0.654837927010579,0.700757100271664
"188",7,23,1,2,188,1,2,1,4,0.512468749391711,0.492388005264325
"189",7,34,1,1,189,3,2,0,1,0.473272280600756,0.550723075327385
"190",7,38,1,1,190,1,2,0,4,0.606211854036751,0.575922292251895
"191",7,25,1,2,191,2,1,0,3,0.590642534514672,0.518755353950525
"192",7,21,1,2,192,3,2,1,2,0.930677812196044,0.897453690500463
"193",7,22,1,1,193,2,1,1,3,0.682786574822486,0.754033901746185
"194",7,38,1,1,194,3,2,0,1,0.226503703503033,0.197338245115367
"195",7,22,1,2,195,1,2,1,5,0.365526363755487,0.332914280795507
"196",7,20,1,1,196,1,1,1,4,0.371480475153065,0.342339641771127
"197",7,30,1,2,197,3,2,1,2,1.12775052231653,1.03420502795069
"198",7,23,1,1,198,2,2,0,2,0.747477862117827,0.740899529152541
"199",7,34,1,2,199,2,2,1,3,0.614723751071252,0.664671001026683
"200",7,38,1,1,200,3,1,1,3,0.725905101322914,0.732997981869746
"201",7,25,1,2,201,3,1,0,1,0.633660479885451,0.648313324246342
"202",7,21,1,1,202,3,1,1,3,0.89629703019587,0.962042786495204
"203",7,22,1,2,203,3,2,1,3,0.748963155813985,0.734195951875163
"204",7,38,1,2,204,1,2,1,4,0.531483923845755,0.499619505217745
"205",7,22,1,1,205,1,2,0,4,0.597655789379961,0.659530826996598
"206",7,20,1,1,206,1,1,1,4,0.488658201554566,0.535214172217377
"207",7,30,1,1,207,2,2,0,3,0.636942200393932,0.620734682690851
"208",7,23,1,1,208,3,1,1,3,0.919457969538909,0.92678611433242
"209",7,34,1,2,209,1,2,1,5,0.516661407787501,0.48325569953602
"210",7,38,1,2,210,2,1,0,2,0.687427969135949,0.711436025640128
"211",7,25,1,1,211,1,1,1,5,0.438656561961984,0.386430623848352
"212",7,21,1,1,212,3,1,1,3,0.968708035275454,0.970696825630793
"213",7,22,1,2,213,3,2,1,3,0.854068094148,0.880099332652271
"214",7,38,1,1,214,1,1,1,5,0.240353673714328,0.344282743227491
"215",7,22,1,2,215,3,2,1,2,0.792811898323255,0.783237892301217
"216",7,20,1,2,216,1,2,1,5,0.380879146255859,0.443908732437065
"217",7,30,1,1,217,2,2,0,2,0.528734860477335,0.524480817960954
"218",7,23,1,1,218,3,1,1,3,0.890035331775893,0.798477381675919
"219",7,34,1,1,219,2,2,0,3,0.766936624375546,0.699385574742822
"220",7,38,1,1,220,1,2,0,3,0.524197975138216,0.628640999344404
"221",7,25,1,2,221,3,1,0,1,1.110918590716,1.13391623546772
"222",7,21,1,1,222,3,1,1,3,0.749207974389297,0.811812669130632
"223",7,22,1,1,223,3,1,1,3,0.980711778659274,0.930324851234409
"224",7,38,1,2,224,2,1,0,2,0.59429059490441,0.623904254364259
"225",7,22,1,1,225,3,2,0,2,1.77343222443418,1.78038416851246
"226",7,20,1,2,226,2,1,0,3,0.556373821493325,0.548181038570775
"227",7,30,1,2,227,2,2,1,3,0.623012189471347,0.562278211482913
"228",7,23,1,1,228,2,1,1,3,0.529006470706386,0.633107087303399
"229",7,34,1,2,229,2,1,0,2,0.610013791861983,0.556108939507936
"230",7,38,1,1,230,2,1,1,3,0.696851548495721,0.70126124687254
"231",7,25,1,2,231,1,2,1,5,0.283877817149879,0.282754445275765
"232",7,21,1,1,232,1,1,1,4,0.449122940126095,0.421774795847091
"233",7,22,1,1,233,3,1,1,2,0.476340633596247,0.596482216151334
"234",7,38,1,2,234,3,2,1,3,0.725864474885561,0.713758277692896
"235",7,22,1,2,235,2,2,1,4,0.586347895398427,0.529964078994043
"236",7,20,1,2,236,1,2,1,4,0.22263760367082,0.247080751675521
"237",7,30,1,1,237,1,1,1,4,0.428478470369383,0.448102672721173
"238",7,23,1,2,238,3,2,1,3,0.623948149865029,0.707468112312291
"239",7,34,1,2,239,1,1,0,3,0.603691098841103,0.548287273478951
"240",7,38,1,1,240,3,2,0,1,1.13581379160399,1.10298707182675
"241",6,33,2,1,1,3,1,1,3,1.03824039679244,1.06510589070156
"242",6,27,2,1,2,1,1,1,5,0.349931701345092,0.35082002864078
"243",6,18,2,2,3,1,2,1,4,0.299125265587015,0.293954575308023
"244",6,37,2,1,4,2,1,1,4,0.776161733023447,0.824338903772419
"245",6,31,2,2,5,1,2,1,5,0.290418058261035,0.301700227614356
"246",6,21,2,2,6,2,1,0,2,0.6504007374516,0.635213297492402
"247",6,38,2,1,7,2,2,0,2,0.627808517082233,0.548391234645745
"248",6,35,2,2,8,2,1,0,3,0.766796372384394,0.657370844678483
"249",6,38,2,1,9,3,2,0,2,0.995625823377756,0.967143927392465
"250",6,34,2,2,10,2,1,0,2,0.621866409004176,0.55556827632152
"251",6,33,2,2,11,2,2,1,3,0.549378812924114,0.456072320790366
"252",6,27,2,2,12,3,2,1,2,0.997157027098263,0.968079359073155
"253",6,18,2,2,13,2,2,1,3,0.461695967552611,0.48219892580756
"254",6,37,2,1,14,2,1,1,4,0.584360107268247,0.550847985924487
"255",6,31,2,2,15,3,1,0,1,0.618288381579448,0.638646881647415
"256",6,21,2,1,16,1,1,1,4,0.231353660564811,0.175027222922454
"257",6,38,2,1,17,2,2,0,3,0.458945828838854,0.458004013879282
"258",6,35,2,1,18,3,2,0,2,1.44946236398301,1.45706184913004
"259",6,38,2,2,19,3,1,0,1,0.657187823116472,0.676085473315758
"260",6,34,2,2,20,1,2,1,5,0.4815217878756,0.47439744019194
"261",6,33,2,1,21,2,2,0,2,0.638837135420905,0.590351187691894
"262",6,27,2,2,22,1,2,1,5,0.41239216485885,0.384847609970081
"263",6,18,2,1,23,2,2,0,3,0.832181525553572,0.825169321660106
"264",6,37,2,1,24,2,2,0,2,1.00923526992783,0.983214610627652
"265",6,31,2,2,25,2,2,1,3,0.582797450187622,0.559576117797385
"266",6,21,2,1,26,2,2,0,3,0.666012481759335,0.617993660293144
"267",6,38,2,2,27,3,1,0,2,0.633155392625956,0.655100008231066
"268",6,35,2,1,28,2,1,1,4,0.69198254080852,0.72911932325063
"269",6,38,2,2,29,2,2,1,4,0.480062623800568,0.493464515889184
"270",6,34,2,1,30,3,1,1,3,0.93484498034414,0.996336670799279
"271",6,33,2,2,31,3,2,1,3,0.990357638829902,1.05796532898844
"272",6,27,2,2,32,1,2,1,5,0.353269091816329,0.321116822962521
"273",6,18,2,1,33,3,1,1,3,0.736678127187188,0.685546368486118
"274",6,37,2,2,34,3,2,1,3,1.1228518563864,1.04125374253197
"275",6,31,2,2,35,1,2,1,4,0.539191112810538,0.528262245905969
"276",6,21,2,2,36,1,2,1,4,0.253242186257427,0.233472958372231
"277",6,38,2,2,37,2,1,0,2,0.630695893949033,0.61375076012668
"278",6,35,2,1,38,3,1,1,2,0.937247040574658,0.985128853402522
"279",6,38,2,2,39,3,2,1,2,0.889576788119703,0.901392348546712
"280",6,34,2,2,40,1,2,1,4,0.501043844418538,0.501720408146335
"281",6,33,2,1,41,3,1,1,2,0.649822579629056,0.656082585342076
"282",6,27,2,2,42,3,2,1,3,1.07881237415338,1.07726407548356
"283",6,18,2,1,43,2,1,1,4,0.911332880671903,0.84517436814751
"284",6,37,2,2,44,2,2,1,4,0.659858816094364,0.690027442719406
"285",6,31,2,1,45,2,2,0,2,0.77499669458995,0.834666413570906
"286",6,21,2,1,46,1,1,1,4,0.393186065291051,0.387775063249805
"287",6,38,2,2,47,3,2,1,3,0.927339781327421,0.994384472984084
"288",6,35,2,2,48,2,2,1,3,0.608425325799533,0.603877794721995
"289",6,38,2,2,49,1,1,0,3,0.538995332602547,0.554002195294895
"290",6,34,2,2,50,2,1,0,2,0.409029664241605,0.453496794564663
"291",6,33,2,2,51,1,2,1,5,0.388983271178758,0.336620481412693
"292",6,27,2,1,52,1,1,1,5,0.444918700838451,0.595002596122087
"293",6,18,2,1,53,3,2,0,2,1.20545085587611,1.25608764787427
"294",6,37,2,2,54,2,1,0,3,0.54526113418241,0.612570389242949
"295",6,31,2,2,55,3,2,1,3,0.450778661252667,0.594890828266716
"296",6,21,2,2,56,3,1,0,1,0.465365164103059,0.349538787749296
"297",6,38,2,2,57,2,2,1,3,0.583187822553,0.611429054918409
"298",6,35,2,1,58,3,2,0,1,0.556139780828632,0.526659440845769
"299",6,38,2,2,59,3,2,1,2,0.469657803139499,0.512130805305085
"300",6,34,2,1,60,1,1,1,4,0.44842055771046,0.536762039532831
"301",6,33,2,2,61,2,2,1,4,0.584656346129393,0.605860662397332
"302",6,27,2,1,62,1,2,0,4,0.709068274247987,0.752968381022114
"303",6,18,2,2,63,2,2,1,3,0.505298028107118,0.414651976511749
"304",6,37,2,1,64,1,1,1,4,0.379060582154364,0.326609819336076
"305",6,31,2,2,65,3,1,0,2,0.800299475355103,0.848697511846852
"306",6,21,2,2,66,1,2,1,4,0.423135206186609,0.384332848040955
"307",6,38,2,2,67,3,1,0,2,0.823807036126807,0.772787675107327
"308",6,35,2,1,68,1,1,1,5,0.467988863705388,0.560947705979848
"309",6,38,2,1,69,2,2,0,3,0.63907970938211,0.61263863511029
"310",6,34,2,2,70,3,1,0,1,1.25693464128644,1.22227646777044
"311",6,33,2,2,71,3,2,1,2,1.15702412410349,1.22014852597907
"312",6,27,2,1,72,3,1,1,3,0.666471712150941,0.655784194501611
"313",6,18,2,2,73,2,2,1,3,0.806674422412019,0.780247607087884
"314",6,37,2,1,74,1,1,1,4,0.505809253081548,0.424988994981197
"315",6,31,2,1,75,1,2,0,3,0.443060768727824,0.43047682840719
"316",6,21,2,2,76,1,2,1,5,0.496552547884305,0.416944650453249
"317",6,38,2,2,77,2,1,0,3,0.668160997384419,0.567070778513305
"318",6,35,2,2,78,2,1,0,3,0.443170779754518,0.466826665580121
"319",6,38,2,2,79,2,2,1,3,0.593440421266239,0.56804997319501
"320",6,34,2,2,80,3,1,0,1,1.31523444684973,1.20215546459469
"321",6,33,2,1,81,1,2,0,4,0.582431502671152,0.534250182033243
"322",6,27,2,1,82,1,2,0,3,0.63744221427708,0.670691594227592
"323",6,18,2,1,83,1,1,1,4,0.485369656688211,0.529529023031685
"324",6,37,2,1,84,3,1,1,2,0.85011707555027,0.791712595491998
"325",6,31,2,1,85,2,2,0,3,0.781171324912079,0.742076310314178
"326",6,21,2,2,86,1,2,1,4,0.445729573240984,0.48795960065467
"327",6,38,2,2,87,1,2,1,5,0.37117800006891,0.379022145464665
"328",6,35,2,2,88,3,1,0,2,0.960856287625555,0.960726693039078
"329",6,38,2,2,89,3,1,0,1,0.292780639073467,0.336912301631555
"330",6,34,2,2,90,3,1,0,2,1.188282266727,1.17795844867212
"331",6,33,2,1,91,3,1,1,2,1.08213849017359,1.06172617292739
"332",6,27,2,1,92,2,2,0,3,0.733543889199399,0.725807224285299
"333",6,18,2,1,93,1,1,1,4,0.350094413818698,0.389685764744422
"334",6,37,2,1,94,3,1,1,3,0.843284367095503,0.932890834159181
"335",6,31,2,2,95,3,1,0,1,0.981898250625864,1.00465617686551
"336",6,21,2,2,96,3,1,0,2,1.09727924361732,1.09592588821863
"337",6,38,2,1,97,1,1,1,4,0.365537056901511,0.346316184887041
"338",6,35,2,1,98,1,1,1,5,0.489617762401573,0.462236775378444
"339",6,38,2,2,99,1,2,1,5,0.359775134475616,0.333511342413256
"340",6,34,2,1,100,1,2,0,3,0.561109296111588,0.608205066317669
"341",6,33,2,1,101,3,1,1,3,0.47221238079325,0.527207003844611
"342",6,27,2,1,102,2,2,0,2,0.672338738345904,0.718155579422482
"343",6,18,2,2,103,3,1,0,2,1.20079600306021,1.25140191339563
"344",6,37,2,2,104,1,2,1,4,0.543315116450589,0.545128787159619
"345",6,31,2,2,105,2,2,1,4,0.577420393553489,0.598586674472592
"346",6,21,2,2,106,2,2,1,4,0.635798677832187,0.734623369695689
"347",6,38,2,1,107,1,1,1,4,0.417069746159717,0.524380720244012
"348",6,35,2,2,108,1,1,0,3,0.561639400455706,0.546991758846541
"349",6,38,2,1,109,2,2,0,2,0.729348259417464,0.750503957330132
"350",6,34,2,2,110,3,1,0,1,0.714177483253376,0.747500679561866
"351",6,33,2,1,111,2,1,1,3,0.44788726548984,0.330147961458665
"352",6,27,2,1,112,2,1,1,4,0.673418164440661,0.669963738107711
"353",6,18,2,1,113,3,2,0,1,1.64934168372303,1.58828248755953
"354",6,37,2,1,114,3,1,1,3,0.392204866285938,0.411943206199695
"355",6,31,2,2,115,3,2,1,3,0.858940794707269,0.861281911974048
"356",6,21,2,2,116,2,1,0,2,0.696438966985921,0.68432195938617
"357",6,38,2,1,117,1,1,1,4,0.293274487513971,0.319230838695178
"358",6,35,2,2,118,3,2,1,3,0.545859006619132,0.500199938758618
"359",6,38,2,1,119,3,2,0,1,1.12127677747221,1.10588354391455
"360",6,34,2,1,120,3,1,1,3,0.425511187682777,0.361448784292717
"361",6,33,2,1,121,2,1,1,3,0.710928132730733,0.740505511922503
"362",6,27,2,1,122,2,1,1,4,0.475165878690085,0.49374902413669
"363",6,18,2,1,123,3,2,0,2,1.48735228163522,1.37617180304822
"364",6,37,2,1,124,1,1,1,4,0.356896118082042,0.306475083865314
"365",6,31,2,2,125,2,1,0,3,0.723386031472775,0.79399421427057
"366",6,21,2,1,126,2,1,1,4,0.418143895224357,0.382480471373817
"367",6,38,2,1,127,1,1,1,5,0.360512865851039,0.357843854859561
"368",6,35,2,1,128,1,1,1,4,0.55933819738095,0.626129954064588
"369",6,38,2,1,129,2,2,0,2,0.684704246692626,0.683181603682682
"370",6,34,2,1,130,1,1,1,4,0.316824604930207,0.317777814687775
"371",6,33,2,1,131,2,1,1,4,0.761261835021647,0.798603423045738
"372",6,27,2,2,132,1,2,1,4,0.386266343777847,0.430098760819692
"373",6,18,2,2,133,1,2,1,4,0.366843375787272,0.323690246496971
"374",6,37,2,2,134,1,2,1,5,0.354114796671236,0.374052281387049
"375",6,31,2,2,135,3,2,1,3,0.498679118741025,0.48568781366103
"376",6,21,2,1,136,2,1,1,4,0.661751995290277,0.709001454169576
"377",6,38,2,1,137,3,2,0,2,0.879192271758916,0.901991765703062
"378",6,35,2,2,138,1,2,1,5,0.422699820887377,0.324353966123612
"379",6,38,2,1,139,1,1,1,5,0.433099859289096,0.393379990213543
"380",6,34,2,1,140,2,2,0,2,0.882790134872455,0.894153784703605
"381",6,33,2,1,141,2,2,0,2,0.869760265231231,0.840502426369268
"382",6,27,2,2,142,2,2,1,4,0.866527472973808,0.897817489625824
"383",6,18,2,2,143,3,1,0,1,0.16058712511662,0.197800139895925
"384",6,37,2,2,144,3,2,1,2,0.678513293068906,0.76659324760857
"385",6,31,2,2,145,2,1,0,3,0.159429622997681,0.173922242355041
"386",6,21,2,1,146,1,1,1,5,0.376815976206802,0.383743394287473
"387",6,38,2,2,147,1,2,1,5,0.350137006869499,0.403351549069651
"388",6,35,2,1,148,3,1,1,3,0.754067211469087,0.750357398490844
"389",6,38,2,2,149,3,1,0,2,0.676671860034727,0.693143201056949
"390",6,34,2,2,150,1,2,1,4,0.432303153247797,0.458669558556457
"391",6,33,2,1,151,1,1,1,5,0.453013793087476,0.461965521053255
"392",6,27,2,1,152,3,2,0,1,0.944019554973171,0.962488105970631
"393",6,18,2,2,153,1,1,0,3,0.423208963921113,0.364518980015549
"394",6,37,2,1,154,2,1,1,4,0.780763784000444,0.780852791137786
"395",6,31,2,2,155,2,1,0,2,0.581324685228717,0.58560752468758
"396",6,21,2,1,156,2,1,1,4,0.507668674795024,0.538025662124416
"397",6,38,2,1,157,1,1,1,5,0.439027595431222,0.419269916921556
"398",6,35,2,2,158,3,2,1,3,0.864302446421781,0.795368136422868
"399",6,38,2,2,159,2,1,0,3,0.8107378615465,0.827281472134056
"400",6,34,2,2,160,2,1,0,2,0.691137311925585,0.646604316404601
"401",6,33,2,2,161,3,2,1,3,0.7996202052556,0.776375822068644
"402",6,27,2,1,162,1,1,1,4,0.417680672509649,0.458313732321001
"403",6,18,2,2,163,3,2,1,3,0.975698257955844,1.01744955505797
"404",6,37,2,2,164,2,1,0,3,0.798244795832979,0.832217102310021
"405",6,31,2,1,165,1,1,1,5,0.329603463741773,0.431137165513908
"406",6,21,2,2,166,3,1,0,2,0.712793678875002,0.704581164202595
"407",6,38,2,1,167,1,1,1,5,0.414349965064145,0.431752628254002
"408",6,35,2,1,168,1,1,1,4,0.312768518418006,0.320301331411963
"409",6,38,2,2,169,3,1,0,1,0.732827019966061,0.756075097647215
"410",6,34,2,1,170,1,2,0,4,0.467298630312516,0.47550739136935
"411",6,33,2,1,171,3,2,0,1,0.67576913295173,0.732328403679291
"412",6,27,2,2,172,2,2,1,3,0.617470284522803,0.59690907207442
"413",6,18,2,1,173,1,1,1,4,0.343008015558071,0.303045594981243
"414",6,37,2,2,174,1,2,1,4,0.391116863916972,0.382486418660286
"415",6,31,2,1,175,2,2,0,2,0.658629316205074,0.662973979327777
"416",6,21,2,1,176,2,1,1,4,0.59524472588983,0.531497396691206
"417",6,38,2,2,177,3,2,1,3,1.05207526809425,0.994350802387017
"418",6,35,2,1,178,2,1,1,3,0.532528754446279,0.514538719634133
"419",6,38,2,1,179,1,2,0,4,0.514637992491172,0.51416636576741
"420",6,34,2,2,180,2,2,1,3,0.746093684418643,0.731272801345557
"421",6,33,2,2,181,2,1,0,3,0.604944374094875,0.55528112696345
"422",6,27,2,2,182,1,2,1,5,0.495908919298338,0.544307330701331
"423",6,18,2,1,183,1,1,1,5,0.327364659752822,0.336851954032835
"424",6,37,2,2,184,1,2,1,5,0.43683630015368,0.476126232648688
"425",6,31,2,1,185,3,2,0,1,1.2187755286342,1.11079766365855
"426",6,21,2,2,186,2,2,1,3,0.403893981707733,0.444619080767785
"427",6,38,2,1,187,2,1,1,4,0.566294647356747,0.474042944316499
"428",6,35,2,1,188,2,1,1,3,0.638443845338112,0.600726052032935
"429",6,38,2,1,189,2,2,0,3,0.711951467508976,0.724693596630252
"430",6,34,2,1,190,2,1,1,4,0.546289590773656,0.554826115088647
"431",6,33,2,1,191,3,1,1,2,0.972125137675919,1.01544441103752
"432",6,27,2,2,192,1,2,1,4,0.460554252624795,0.394343927113836
"433",6,18,2,2,193,3,1,0,1,1.00710841131838,1.01480202895491
"434",6,37,2,2,194,3,2,1,3,0.930263695594861,0.85460350485632
"435",6,31,2,2,195,2,1,0,3,0.658632621297003,0.714106765802188
"436",6,21,2,1,196,3,1,1,3,0.810840047859052,0.873206846787296
"437",6,38,2,2,197,3,2,1,2,0.844188328203684,0.791041035585391
"438",6,35,2,1,198,1,1,1,5,0.416744530722904,0.484346433306093
"439",6,38,2,2,199,2,2,1,3,0.42030142360304,0.434461970502085
"440",6,34,2,1,200,1,1,1,4,0.353316318298955,0.365087316313082
"441",6,33,2,1,201,2,1,1,3,0.506638009972306,0.496452054894099
"442",6,27,2,1,202,2,2,0,2,0.739870449039718,0.70613651745863
"443",6,18,2,1,203,1,1,1,5,0.405176977087846,0.351621556407533
"444",6,37,2,1,204,3,2,0,2,1.28473204648538,1.3100023672472
"445",6,31,2,2,205,1,1,0,4,0.446024350459496,0.414022504819188
"446",6,21,2,1,206,3,2,0,2,0.273218897857104,0.371113355823706
"447",6,38,2,2,207,1,2,1,5,0.377755642042531,0.427576831307045
"448",6,35,2,1,208,2,1,1,4,0.594521695088792,0.528207899556307
"449",6,38,2,1,209,3,2,0,1,0.375980841692928,0.414600342222527
"450",6,34,2,2,210,1,2,1,4,0.463082377450251,0.483539976098866
"451",6,33,2,2,211,1,2,1,5,0.40802644008315,0.401329307532214
"452",6,27,2,1,212,3,1,1,2,1.21608199578592,1.20451668411956
"453",6,18,2,2,213,1,2,1,5,0.457668872477503,0.541923408962617
"454",6,37,2,2,214,2,2,1,3,0.844614287964925,0.839004742372319
"455",6,31,2,1,215,3,2,0,1,1.02171116240491,1.03694873501806
"456",6,21,2,1,216,2,1,1,4,0.554455144239287,0.602350469958257
"457",6,38,2,2,217,2,2,1,3,0.482985670376132,0.567275525732927
"458",6,35,2,2,218,3,2,1,2,0.723619326403066,0.742497546758112
"459",6,38,2,2,219,2,2,1,3,0.419324944084236,0.479798426397003
"460",6,34,2,2,220,2,2,1,3,0.555836192249387,0.495239479647039
"461",6,33,2,1,221,1,1,1,5,0.347693813110601,0.385915238317895
"462",6,27,2,1,222,1,1,1,5,0.340544436616311,0.314568879214588
"463",6,18,2,1,223,3,2,0,1,1.46010831993494,1.43123698129062
"464",6,37,2,2,224,3,2,1,3,0.847831542264908,0.890221713120005
"465",6,31,2,1,225,3,2,0,1,1.04821612890547,1.02348801063568
"466",6,21,2,1,226,1,1,1,4,0.448365496174411,0.445514360295514
"467",6,38,2,1,227,1,1,1,4,0.425494362147744,0.431539692856561
"468",6,35,2,2,228,2,1,0,3,0.875061731126681,0.791572800997912
"469",6,38,2,2,229,3,1,0,2,0.842150621754288,0.965014121685308
"470",6,34,2,2,230,3,2,1,3,0.485809799193683,0.451127291489917
"471",6,33,2,1,231,1,2,0,4,0.587274048032101,0.62138524044474
"472",6,27,2,2,232,3,2,1,2,0.661329198949467,0.602643480480845
"473",6,18,2,1,233,3,2,0,2,1.62121830900062,1.62048782559864
"474",6,37,2,2,234,3,1,0,1,0.968122001596814,0.965240859607324
"475",6,31,2,2,235,1,2,1,5,0.280825336069487,0.232794221433386
"476",6,21,2,1,236,1,2,0,4,0.669112226199599,0.689384725945762
"477",6,38,2,2,237,1,2,1,5,0.426998778348062,0.441925422610255
"478",6,35,2,1,238,2,2,0,3,0.51912187917926,0.55716675214333
"479",6,38,2,1,239,3,2,0,1,0.848783072913074,0.714132013710066
"480",6,34,2,1,240,1,1,1,5,0.327115124057836,0.372145924067948
"481",5,31,1,2,1,2,1,0,3,0.453007417594605,0.385012433501047
"482",5,32,1,2,2,2,2,1,4,0.615512037120161,0.613402875224354
"483",5,24,1,2,3,2,2,1,4,0.468516044606558,0.530790174017446
"484",5,37,1,2,4,2,2,1,4,0.716352792584234,0.762324622919692
"485",5,19,1,2,5,1,2,1,5,0.3031626253707,0.314780373960688
"486",5,38,1,2,6,1,1,0,4,0.62924232300726,0.596954034552569
"487",5,33,1,2,7,3,1,0,2,0.683713614819782,0.71037019180832
"488",5,24,1,1,8,3,1,1,3,0.880394505735528,0.876709783315578
"489",5,30,1,2,9,2,2,1,3,0.291179663727054,0.240212521277396
"490",5,37,1,2,10,2,2,1,3,0.75183648500899,0.775830277656621
"491",5,31,1,2,11,2,2,1,3,0.586922851132247,0.643745538224123
"492",5,32,1,1,12,1,2,0,3,0.499462199661743,0.50268972922205
"493",5,24,1,2,13,1,2,1,5,0.272532660256892,0.256540764930021
"494",5,37,1,2,14,3,2,1,3,0.678454917517359,0.643149290659215
"495",5,19,1,1,15,3,1,1,2,0.793432244769265,0.873846400813409
"496",5,38,1,1,16,3,1,1,3,0.665894281908457,0.720806743631099
"497",5,33,1,2,17,3,2,1,3,0.914683491375875,0.862930789486309
"498",5,24,1,1,18,3,1,1,2,0.248789931659605,0.291956419608407
"499",5,30,1,2,19,1,2,1,5,0.534101290565317,0.528945253634409
"500",5,37,1,2,20,2,1,0,2,0.683320667764236,0.633377007045884
"501",5,31,1,2,21,3,2,1,3,1.06252199138265,1.04804153108887
"502",5,32,1,2,22,1,2,1,5,0.488267218480129,0.5157148831352
"503",5,24,1,2,23,1,2,1,5,0.504203982930992,0.399455820908023
"504",5,37,1,1,24,1,1,1,5,0.29780285238023,0.318876355491624
"505",5,19,1,2,25,1,2,1,5,0.246474627136455,0.21730320073803
"506",5,38,1,1,26,1,2,0,4,0.296127483224334,0.38159547961199
"507",5,33,1,1,27,3,1,1,3,0.710277257330969,0.668501994299129
"508",5,24,1,1,28,1,1,1,4,0.402578892662655,0.407038262804489
"509",5,30,1,1,29,1,2,0,4,0.661649185982652,0.623310908056132
"510",5,37,1,2,30,2,2,1,3,0.57060489864789,0.650546705547833
"511",5,31,1,1,31,3,2,0,1,1.64605947883202,1.52530804626717
"512",5,32,1,2,32,1,2,1,4,0.318330068950833,0.383770578542198
"513",5,24,1,1,33,3,1,1,3,0.695929166204405,0.646043718535735
"514",5,37,1,1,34,2,1,1,4,0.498490852591887,0.528687240732038
"515",5,19,1,2,35,2,2,1,3,0.507693011442929,0.39870750880241
"516",5,38,1,1,36,2,2,0,2,0.567345212493142,0.601815272037692
"517",5,33,1,1,37,3,1,1,2,1.19564791058239,1.24045454875104
"518",5,24,1,2,38,1,1,0,3,0.476580995122917,0.423088546966593
"519",5,30,1,2,39,1,2,1,5,0.410199788332385,0.371592880207489
"520",5,37,1,1,40,3,1,1,3,0.902665827002397,0.873765330327106
"521",5,31,1,1,41,2,1,1,3,0.792103871046817,0.763167942574119
"522",5,32,1,2,42,3,1,0,1,0.703607023290633,0.709949774956959
"523",5,24,1,2,43,2,2,1,3,0.518902938816934,0.576386010153584
"524",5,37,1,2,44,2,1,0,2,0.602635540643482,0.612963919299578
"525",5,19,1,2,45,3,1,0,2,0.893482777213326,0.874755117216253
"526",5,38,1,1,46,1,1,1,4,0.243446190488541,0.269419076739325
"527",5,33,1,2,47,2,2,1,4,0.576527617699607,0.531052848916297
"528",5,24,1,1,48,3,1,1,2,0.788623682320221,0.841257301188245
"529",5,30,1,2,49,2,2,1,4,0.602124765413162,0.672030133830741
"530",5,37,1,1,50,1,1,1,5,0.276231423708257,0.296394363445731
"531",5,31,1,2,51,2,2,1,3,0.745451670606446,0.727614542056266
"532",5,32,1,2,52,3,2,1,2,0.873351830472918,0.830608278934664
"533",5,24,1,1,53,3,2,0,1,1.33765652533451,1.33165662824462
"534",5,37,1,2,54,3,2,1,3,0.941288282416913,0.917831831117339
"535",5,19,1,2,55,1,2,1,4,0.510607751715549,0.489176469655373
"536",5,38,1,2,56,2,1,0,2,0.89485223999122,0.90619052922992
"537",5,33,1,2,57,3,2,1,2,1.08778281149666,1.04335540914691
"538",5,24,1,2,58,3,1,0,2,1.05012319100503,1.07635393718605
"539",5,30,1,1,59,3,1,1,3,0.639553204221574,0.689849473403186
"540",5,37,1,2,60,1,2,1,4,0.500051104916561,0.537407607665233
"541",5,31,1,1,61,1,1,1,4,0.517701137838306,0.525322034584696
"542",5,32,1,2,62,2,2,1,3,0.560922187842661,0.591717059259187
"543",5,24,1,2,63,1,2,1,5,0.381695899554554,0.379033476390301
"544",5,37,1,1,64,2,1,1,4,0.75657475747406,0.722611984978246
"545",5,19,1,2,65,1,2,1,4,0.372026061578258,0.343968121684305
"546",5,38,1,2,66,1,2,1,5,0.38586464893245,0.418637272603915
"547",5,33,1,1,67,2,1,1,4,0.540831546895048,0.539929710405577
"548",5,24,1,2,68,3,1,0,1,1.23558030507569,1.23654681291616
"549",5,30,1,1,69,3,1,1,3,0.846245034408336,0.785177494607868
"550",5,37,1,1,70,3,2,0,2,0.606703586388162,0.536736750168182
"551",5,31,1,1,71,3,1,1,3,0.957752078036014,0.971926772583454
"552",5,32,1,2,72,2,1,0,2,0.777976324799986,0.768433074277947
"553",5,24,1,1,73,1,1,1,5,0.447149211916497,0.416514601242006
"554",5,37,1,1,74,3,2,0,2,1.52817269543202,1.45925875465482
"555",5,19,1,1,75,3,1,1,2,0.57799849231002,0.633350942215147
"556",5,38,1,1,76,1,1,1,4,0.300855775459977,0.221024552879939
"557",5,33,1,2,77,3,2,1,2,0.724017539384578,0.738540002311038
"558",5,24,1,1,78,1,1,1,5,0.329470688910858,0.356116529323848
"559",5,30,1,2,79,1,1,0,4,0.594172509966116,0.670924015026163
"560",5,37,1,1,80,2,2,0,3,0.703511634149873,0.656270960811645
"561",5,31,1,2,81,1,2,1,5,0.432630249805049,0.445338265905749
"562",5,32,1,1,82,3,2,0,1,1.21218983819761,1.19088385621647
"563",5,24,1,1,83,2,2,0,2,0.746308299861437,0.739803085804071
"564",5,37,1,2,84,3,1,0,1,0.983889764422634,1.04953754878111
"565",5,19,1,2,85,2,2,1,3,0.689711364268613,0.684104624126034
"566",5,38,1,1,86,1,1,1,5,0.43898337688891,0.422785330785303
"567",5,33,1,1,87,2,2,0,3,0.562076273174443,0.613215541599442
"568",5,24,1,2,88,3,2,1,3,0.580519259336781,0.525740864331217
"569",5,30,1,1,89,2,1,1,4,0.401209720603638,0.477978134471256
"570",5,37,1,1,90,2,1,1,3,0.748258499462617,0.728105634821012
"571",5,31,1,1,91,2,2,0,2,0.698514866876269,0.689202195013592
"572",5,32,1,1,92,2,2,0,3,0.798811058665075,0.861337173057629
"573",5,24,1,1,93,3,1,1,3,0.973068612901538,0.879695092785725
"574",5,37,1,2,94,3,2,1,3,0.697694769085012,0.679276668784686
"575",5,19,1,2,95,1,2,1,4,0.353199763777235,0.361849741078475
"576",5,38,1,2,96,3,1,0,1,1.12956988410326,1.15906720378114
"577",5,33,1,1,97,1,1,1,4,0.527892091900163,0.574834882518449
"578",5,24,1,1,98,1,1,1,4,0.398260059693893,0.443868695903521
"579",5,30,1,1,99,1,2,0,3,0.512697042672339,0.498718836616148
"580",5,37,1,1,100,3,1,1,2,0.681973834143873,0.654733578617372
"581",5,31,1,1,101,1,1,1,4,0.534463264927475,0.567821209023211
"582",5,32,1,1,102,2,2,0,3,1.00733659732623,1.10977311966315
"583",5,24,1,2,103,1,2,1,4,0.272320733319638,0.26152424046202
"584",5,37,1,2,104,1,2,1,4,0.504845030133099,0.591633095516367
"585",5,19,1,2,105,1,2,1,5,0.376931037296066,0.387681538159083
"586",5,38,1,1,106,3,1,1,3,0.811993908949612,0.862205039780267
"587",5,33,1,1,107,2,1,1,4,0.737391652303238,0.738290351000262
"588",5,24,1,1,108,3,2,0,2,1.39649278484908,1.44248302120635
"589",5,30,1,1,109,1,1,1,5,0.299298995612781,0.272831308689591
"590",5,37,1,2,110,1,2,1,5,0.479075175922228,0.456912696753248
"591",5,31,1,2,111,3,2,1,3,0.720929756702798,0.780829962083283
"592",5,32,1,1,112,2,1,1,4,0.526957129481977,0.527116259706544
"593",5,24,1,2,113,2,2,1,4,0.515699251626578,0.504983582590784
"594",5,37,1,2,114,1,1,0,4,0.454829321701694,0.409762623419492
"595",5,19,1,2,115,1,2,1,4,0.306307756026748,0.340772526667843
"596",5,38,1,1,116,2,2,0,2,0.818298772420395,0.763168393896752
"597",5,33,1,1,117,2,1,1,3,0.601256261074197,0.600339011833047
"598",5,24,1,1,118,2,2,0,2,0.486916883373757,0.507123553094504
"599",5,30,1,2,119,2,1,0,3,0.835124463630216,0.838594468239173
"600",5,37,1,2,120,3,1,0,2,1.01694029240889,1.08086356886679
"601",5,31,1,1,121,2,2,0,3,0.521906726134632,0.595037351581999
"602",5,32,1,2,122,1,2,1,5,0.441098396791266,0.496890719334709
"603",5,24,1,2,123,2,1,0,2,0.968293429978257,0.863905158030966
"604",5,37,1,2,124,1,1,0,4,0.652613922366401,0.689556225315027
"605",5,19,1,2,125,1,2,1,4,0.593855482368004,0.607103642286024
"606",5,38,1,1,126,2,1,1,4,0.369518319616391,0.327277201344936
"607",5,33,1,1,127,3,1,1,3,0.734552121475569,0.697052737872431
"608",5,24,1,1,128,3,1,1,3,1.06563168395482,1.03453423521815
"609",5,30,1,1,129,3,2,0,2,0.97091526694006,0.990916720156991
"610",5,37,1,1,130,3,2,0,1,0.553907388894931,0.569586254599026
"611",5,31,1,2,131,2,2,1,3,0.589687277741711,0.488403927004653
"612",5,32,1,2,132,2,1,0,2,0.662948899893924,0.595364063247811
"613",5,24,1,2,133,2,2,1,3,0.707166320356499,0.745849231494701
"614",5,37,1,2,134,1,2,1,4,0.487696609222044,0.413888676946939
"615",5,19,1,2,135,3,2,1,2,0.682759464516478,0.671697527265423
"616",5,38,1,2,136,3,1,0,2,1.33275836589485,1.29561415699668
"617",5,33,1,1,137,2,1,1,4,0.585808058583846,0.577190200816851
"618",5,24,1,2,138,3,2,1,2,0.658259748843853,0.607230165657928
"619",5,30,1,1,139,3,1,1,2,0.66981835000772,0.655802307960555
"620",5,37,1,1,140,1,1,1,5,0.508511175431446,0.457068810683807
"621",5,31,1,1,141,2,2,0,2,0.827154504058315,0.780536863286865
"622",5,32,1,1,142,3,1,1,3,0.767746457223606,0.794181680366263
"623",5,24,1,1,143,3,2,0,2,0.868487347149308,0.939638648090512
"624",5,37,1,1,144,2,2,0,2,0.700041474579912,0.723813041748671
"625",5,19,1,2,145,2,1,0,3,0.960442359994863,0.896141417783591
"626",5,38,1,1,146,2,1,1,3,0.655560655052104,0.552857587504004
"627",5,33,1,2,147,1,2,1,5,0.47867850161803,0.455883093227607
"628",5,24,1,1,148,2,2,0,3,0.625221561332575,0.674414623513487
"629",5,30,1,1,149,2,1,1,3,0.699242681852156,0.724568261551946
"630",5,37,1,2,150,3,1,0,1,0.976368131562776,0.882545746158308
"631",5,31,1,1,151,2,1,1,3,0.684723350955352,0.650461704749403
"632",5,32,1,2,152,1,1,0,4,0.407921839799676,0.400420490166589
"633",5,24,1,2,153,2,2,1,4,0.578276458102528,0.508512574345218
"634",5,37,1,2,154,2,2,1,4,0.513437952251278,0.518573306320485
"635",5,19,1,2,155,3,1,0,1,0.904733862307668,0.923507918954161
"636",5,38,1,2,156,2,1,0,3,0.563329454264778,0.513027793962222
"637",5,33,1,1,157,2,2,0,3,0.661244931894339,0.624929070407089
"638",5,24,1,1,158,1,2,0,3,0.505205688381232,0.548543866634078
"639",5,30,1,1,159,1,1,1,5,0.520140994638072,0.645260171877291
"640",5,37,1,1,160,1,1,1,4,0.543037475796815,0.515213929341874
"641",5,31,1,2,161,3,1,0,1,0.940839912199281,0.913539553349566
"642",5,32,1,2,162,3,1,0,1,1.02974122268356,1.04747127829022
"643",5,24,1,2,163,1,2,1,5,0.23825760171526,0.196379597539696
"644",5,37,1,1,164,3,1,1,3,0.827297877190229,0.84570720850238
"645",5,19,1,1,165,3,2,0,2,1.22891361045038,1.30646049919535
"646",5,38,1,1,166,2,2,0,2,1.00718503839718,0.994642961345043
"647",5,33,1,1,167,2,2,0,2,1.02378981212802,0.978226004833725
"648",5,24,1,2,168,1,2,1,4,0.444351488679223,0.401858824122345
"649",5,30,1,2,169,3,1,0,1,0.995848477549638,0.980102646956395
"650",5,37,1,2,170,1,2,1,5,0.418921946458027,0.440613039628893
"651",5,31,1,2,171,2,2,1,3,0.76184866860444,0.714438924433267
"652",5,32,1,1,172,1,1,1,4,0.265484396879018,0.30906087694165
"653",5,24,1,2,173,1,2,1,5,0.141660642044619,0.105196508413067
"654",5,37,1,1,174,2,2,0,3,0.573520960540417,0.585746722553032
"655",5,19,1,1,175,1,1,1,4,0.3158980345438,0.333952060303871
"656",5,38,1,1,176,3,1,1,3,1.10823798321468,1.00250625618132
"657",5,33,1,1,177,3,1,1,3,0.756490603601633,0.793784734566678
"658",5,24,1,1,178,1,1,1,5,0.487774562005156,0.393404570886812
"659",5,30,1,1,179,2,2,0,3,0.910173807338226,0.818546663132571
"660",5,37,1,1,180,1,2,0,3,0.63354955089375,0.666120861475819
"661",5,31,1,1,181,1,1,1,4,0.369661854542688,0.266776345111226
"662",5,32,1,2,182,2,2,1,3,0.422099894040261,0.391171144466942
"663",5,24,1,2,183,2,1,0,2,0.944555314537308,1.01171892150632
"664",5,37,1,1,184,2,1,1,4,0.529559020059364,0.585690280865538
"665",5,19,1,1,185,2,2,0,2,0.877170778620036,0.906451433492509
"666",5,38,1,2,186,2,2,1,3,0.788694836838262,0.882817206674306
"667",5,33,1,1,187,3,2,0,1,1.77029231422012,1.78097378923063
"668",5,24,1,1,188,1,1,1,5,0.419341713493393,0.448129392090364
"669",5,30,1,2,189,3,2,1,3,0.815444919968383,0.77201949957702
"670",5,37,1,2,190,2,2,1,4,0.607051516673495,0.664583472526831
"671",5,31,1,2,191,3,2,1,2,0.814224536180334,0.8870336241454
"672",5,32,1,1,192,3,2,0,1,-0.0519645231242893,-0.0649649677924959
"673",5,24,1,2,193,2,1,0,3,0.565179926265813,0.585786870493541
"674",5,37,1,2,194,1,1,0,4,0.464570573810851,0.478435283735725
"675",5,19,1,1,195,3,1,1,3,0.674229853909647,0.647086687661618
"676",5,38,1,1,196,1,1,1,5,0.472382643329509,0.45878669309806
"677",5,33,1,1,197,2,2,0,2,0.622261732296996,0.657314107621329
"678",5,24,1,2,198,1,2,1,4,0.550489284421345,0.57180884813296
"679",5,30,1,2,199,3,1,0,1,1.49279923686823,1.57458621156405
"680",5,37,1,2,200,1,1,0,3,0.42324183113988,0.467888915740641
"681",5,31,1,2,201,1,2,1,4,0.38839427632173,0.42676948299901
"682",5,32,1,2,202,1,2,1,5,0.259142222502092,0.314942472491554
"683",5,24,1,1,203,1,1,1,5,0.401143142159168,0.476215670704935
"684",5,37,1,1,204,1,2,0,3,0.419530445378847,0.339411560222903
"685",5,19,1,2,205,3,1,0,2,0.286115426728246,0.271387714032371
"686",5,38,1,1,206,3,2,0,1,0.248139773273486,0.204566754215881
"687",5,33,1,2,207,3,1,0,2,0.282635505595719,0.28408948579233
"688",5,24,1,2,208,3,2,1,3,0.797062318524358,0.733848238384511
"689",5,30,1,2,209,2,2,1,3,0.478064738455978,0.494290094568101
"690",5,37,1,1,210,1,1,1,4,0.282437521800447,0.278206321280817
"691",5,31,1,1,211,2,2,0,3,0.531641299364223,0.58065830998007
"692",5,32,1,2,212,1,2,1,5,0.307192980553586,0.222413907399552
"693",5,24,1,2,213,2,1,0,3,0.699573367032444,0.667933198237923
"694",5,37,1,2,214,1,1,0,4,0.65098251385063,0.718639759212322
"695",5,19,1,1,215,2,1,1,3,0.545848986102501,0.571302370089687
"696",5,38,1,1,216,3,1,1,3,0.698598203022506,0.697080636848544
"697",5,33,1,1,217,2,1,1,3,0.555773276235561,0.46717515998412
"698",5,24,1,1,218,3,1,1,2,0.76033888701009,0.800840537769945
"699",5,30,1,1,219,2,1,1,4,0.686453420437564,0.685364047351149
"700",5,37,1,1,220,1,1,1,4,0.429302339761391,0.331234914752145
"701",5,31,1,2,221,1,2,1,5,0.39078977738633,0.365532505591745
"702",5,32,1,1,222,2,2,0,2,0.814479551403532,0.817467804270437
"703",5,24,1,1,223,2,1,1,4,0.856626289301528,0.855334229074275
"704",5,37,1,2,224,3,1,0,1,1.17557624486907,1.22101620263323
"705",5,19,1,1,225,3,2,0,1,1.01981747608428,0.984863176460358
"706",5,38,1,1,226,3,2,0,1,1.75349836780281,1.75327019011251
"707",5,33,1,2,227,1,2,1,5,0.408446295787234,0.407905860585645
"708",5,24,1,1,228,2,1,1,3,0.447918897061203,0.46634998480918
"709",5,30,1,2,229,1,2,1,5,0.409035615916775,0.450800691668003
"710",5,37,1,1,230,3,1,1,2,1.05467312875007,1.0520515964262
"711",5,31,1,2,231,1,2,1,4,0.235079048253511,0.174344304407582
"712",5,32,1,1,232,1,1,1,5,0.44345489114016,0.293916256993275
"713",5,24,1,2,233,1,2,1,5,0.389522444814802,0.441687342230161
"714",5,37,1,1,234,3,2,0,1,1.06097792154508,1.13770353342145
"715",5,19,1,1,235,3,2,0,2,0.906995771785513,0.895089668457674
"716",5,38,1,1,236,3,2,0,1,1.21468133373556,1.23157035138598
"717",5,33,1,2,237,1,2,1,5,0.467844256749701,0.466743180189251
"718",5,24,1,2,238,3,1,0,2,1.21573903903914,1.28821619853088
"719",5,30,1,2,239,2,2,1,4,0.477062168116997,0.535977271487957
"720",5,37,1,2,240,3,2,1,2,0.68009078213779,0.652846763908022
"721",4,23,2,1,1,1,1,1,5,0.493059492341796,0.475547735689903
"722",4,33,2,2,2,2,2,1,3,0.508186495220846,0.535755839483012
"723",4,32,2,1,3,3,2,0,2,1.09907422160386,1.06980943261466
"724",4,19,2,2,4,2,2,1,4,0.641546990021829,0.614455252508825
"725",4,23,2,2,5,1,2,1,5,0.400291167808732,0.342776904098199
"726",4,36,2,1,6,2,2,0,2,0.78613241756159,0.799686836830033
"727",4,22,2,2,7,1,1,0,3,0.603933555524593,0.680323105680719
"728",4,39,2,2,8,3,2,1,3,0.785700173341339,0.758474364850145
"729",4,24,2,2,9,1,2,1,5,0.518701588664621,0.471551662367027
"730",4,18,2,2,10,1,2,1,4,0.483270925811658,0.565815060600028
"731",4,23,2,1,11,2,1,1,3,0.502232076550323,0.479462612175568
"732",4,33,2,1,12,1,1,1,5,0.450338531020307,0.495084628014577
"733",4,32,2,2,13,1,2,1,4,0.359020147283582,0.34126241273695
"734",4,19,2,2,14,3,1,0,2,1.19019516953236,1.10825239326248
"735",4,23,2,2,15,2,2,1,4,0.41890378592393,0.46510932366848
"736",4,36,2,2,16,3,1,0,1,0.40217651654556,0.416677887256716
"737",4,22,2,2,17,3,2,1,2,0.516735701791263,0.472224283705265
"738",4,39,2,2,18,2,2,1,3,0.605880598077586,0.605278067101887
"739",4,24,2,1,19,2,2,0,2,0.612726290975285,0.645761964854031
"740",4,18,2,1,20,2,2,0,2,0.731863290613291,0.730050483637115
"741",4,23,2,2,21,1,2,1,5,0.357266768919558,0.402677143040663
"742",4,33,2,2,22,2,2,1,4,0.689941719568779,0.689127743730584
"743",4,32,2,1,23,3,1,1,2,0.679002627078985,0.703952020115721
"744",4,19,2,1,24,1,1,1,4,0.308161245582246,0.362486938187832
"745",4,23,2,1,25,3,1,1,3,0.939725964724026,0.889394023844498
"746",4,36,2,2,26,3,1,0,1,1.06892862375964,1.13443435108534
"747",4,22,2,1,27,1,1,1,5,0.50812087801479,0.525405203801369
"748",4,39,2,1,28,3,2,0,2,1.03893272255093,1.07193449888705
"749",4,24,2,1,29,3,1,1,2,1.03496571441792,1.01447318834251
"750",4,18,2,1,30,2,2,0,2,0.510535554006608,0.518075298820716
"751",4,23,2,1,31,2,2,0,3,0.609053735414593,0.612361047851339
"752",4,33,2,2,32,2,1,0,2,0.907089848814579,0.91631113260056
"753",4,32,2,1,33,1,1,1,4,0.434343178888927,0.42828493180325
"754",4,19,2,2,34,2,2,1,4,0.73650864739854,0.690583098879329
"755",4,23,2,1,35,3,1,1,2,0.619684261014196,0.608216187049042
"756",4,36,2,1,36,1,1,1,4,0.384352093136771,0.362150207534625
"757",4,22,2,2,37,1,2,1,4,0.406550540985545,0.446083806516051
"758",4,39,2,2,38,3,1,0,1,1.257440299831,1.28560974379952
"759",4,24,2,1,39,1,1,1,5,0.377676502223165,0.345642201168023
"760",4,18,2,1,40,3,1,1,2,1.16874897815793,1.08813570021719
"761",4,23,2,2,41,3,1,0,1,0.703646653378025,0.79254226445669
"762",4,33,2,2,42,3,2,1,2,0.861390804517252,0.873947466027094
"763",4,32,2,2,43,2,2,1,4,0.4185329734219,0.426641435910263
"764",4,19,2,1,44,3,2,0,1,1.28813364557597,1.29052263939696
"765",4,23,2,1,45,1,1,1,4,0.455189357964039,0.49117586706906
"766",4,36,2,1,46,1,2,0,3,0.547913448000562,0.517991455880471
"767",4,22,2,1,47,2,2,0,3,0.528336240452268,0.543370017244572
"768",4,39,2,1,48,3,1,1,2,0.643372427036263,0.546171637436487
"769",4,24,2,1,49,1,1,1,4,0.418109215522329,0.553100126836385
"770",4,18,2,2,50,2,1,0,3,0.65615891661251,0.593827381444142
"771",4,23,2,1,51,3,2,0,1,1.09691663077072,1.10871382124721
"772",4,33,2,1,52,1,1,1,4,0.468090256828403,0.417881592832251
"773",4,32,2,2,53,1,2,1,4,0.328566681128091,0.278151705185172
"774",4,19,2,1,54,1,1,1,4,0.437113708278437,0.479846358057746
"775",4,23,2,2,55,2,2,1,3,0.447605335198972,0.456786808528096
"776",4,36,2,2,56,2,1,0,3,0.778194950945166,0.775002196748435
"777",4,22,2,2,57,3,1,0,2,0.830127399032492,0.851376625677924
"778",4,39,2,2,58,2,1,0,3,0.85260925265047,0.871892826171425
"779",4,24,2,1,59,2,2,0,3,0.960342209634626,1.04572786888269
"780",4,18,2,2,60,1,2,1,5,0.464468044280097,0.462111073356031
"781",4,23,2,2,61,1,2,1,4,0.416255146370529,0.491790752057711
"782",4,33,2,1,62,3,2,0,2,1.28105690985566,1.40267962257755
"783",4,32,2,2,63,3,2,1,3,0.722821908872166,0.799771257533838
"784",4,19,2,2,64,3,1,0,1,0.735291423560101,0.731788395725015
"785",4,23,2,2,65,1,2,1,4,0.44539641329608,0.39278637733631
"786",4,36,2,1,66,3,2,0,2,1.49065403622773,1.52824036190405
"787",4,22,2,1,67,2,2,0,3,0.764230100880609,0.737758320320551
"788",4,39,2,2,68,3,1,0,1,0.86766375902215,0.824161152111226
"789",4,24,2,1,69,1,1,1,5,0.429500980126736,0.474002356497448
"790",4,18,2,2,70,1,2,1,5,0.426484532949475,0.450504868206811
"791",4,23,2,1,71,3,1,1,2,0.894954516368553,0.880647207955712
"792",4,33,2,1,72,2,1,1,3,0.63655690121233,0.581593670968113
"793",4,32,2,2,73,1,2,1,5,0.297083894226456,0.284307145200347
"794",4,19,2,2,74,2,2,1,3,0.546218983241007,0.632869920221016
"795",4,23,2,2,75,3,2,1,3,0.819553247571662,0.869039909896498
"796",4,36,2,2,76,2,1,0,2,0.788943807953898,0.752178653495422
"797",4,22,2,2,77,3,2,1,3,0.703037688927713,0.733353080149044
"798",4,39,2,1,78,2,1,1,4,0.52959835376312,0.519936395067107
"799",4,24,2,2,79,2,2,1,4,0.607846741046853,0.591287918768435
"800",4,18,2,1,80,2,2,0,3,0.781378016103843,0.865755901989234
"801",4,23,2,2,81,3,2,1,2,0.724598655137244,0.733917709941544
"802",4,33,2,1,82,1,2,0,4,0.63103301945531,0.683101052828216
"803",4,32,2,2,83,3,1,0,1,0.865360702847624,0.910380569224
"804",4,19,2,2,84,2,2,1,4,0.482495276582385,0.551450644660177
"805",4,23,2,2,85,3,2,1,3,1.12069305814603,1.17436823741466
"806",4,36,2,2,86,3,2,1,3,0.652938694292451,0.650113845131499
"807",4,22,2,1,87,1,1,1,5,0.484042217157347,0.465162563824828
"808",4,39,2,1,88,3,2,0,1,0.908912358221723,0.90568291035768
"809",4,24,2,1,89,1,2,0,3,0.705728163059789,0.724118243554525
"810",4,18,2,1,90,2,2,0,2,0.710951708658909,0.674390118568908
"811",4,23,2,2,91,3,1,0,1,0.932880809545341,0.875388490091641
"812",4,33,2,2,92,1,1,0,3,0.585276848155333,0.558684811157375
"813",4,32,2,1,93,2,2,0,2,0.714668769708262,0.674767476042489
"814",4,19,2,2,94,1,2,1,5,0.403236711096532,0.339039822488578
"815",4,23,2,1,95,1,2,0,4,0.570331696743496,0.602659150119209
"816",4,36,2,1,96,3,2,0,1,0.844578118777999,0.752368391982212
"817",4,22,2,2,97,2,2,1,4,0.565102758592696,0.599215439891676
"818",4,39,2,2,98,3,2,1,2,0.874843086470974,0.880617144819152
"819",4,24,2,1,99,3,1,1,2,0.548772813965618,0.580704632201911
"820",4,18,2,1,100,2,1,1,4,0.699597702664625,0.813543791960388
"821",4,23,2,1,101,3,1,1,3,0.86718609042508,0.839713049697442
"822",4,33,2,1,102,1,1,1,5,0.294682939629946,0.308021000343416
"823",4,32,2,1,103,1,1,1,5,0.345670266193498,0.300095513841669
"824",4,19,2,2,104,2,2,1,3,0.541712691398525,0.619083827141649
"825",4,23,2,2,105,1,2,1,4,0.376750108826039,0.320121666120873
"826",4,36,2,2,106,3,1,0,1,1.17092429971094,1.19229189793409
"827",4,22,2,1,107,3,1,1,3,1.14757411676463,1.15663421190547
"828",4,39,2,2,108,1,2,1,5,0.385196545186964,0.320714321282869
"829",4,24,2,1,109,1,1,1,4,0.28686220620728,0.269704694826291
"830",4,18,2,2,110,3,1,0,2,1.55963690048573,1.69419061466013
"831",4,23,2,2,111,2,2,1,3,0.653820757000878,0.639053300445402
"832",4,33,2,2,112,2,2,1,4,0.638170023353393,0.716294849587002
"833",4,32,2,1,113,3,1,1,2,1.05364191418261,1.10979799684351
"834",4,19,2,2,114,1,2,1,5,0.387238811868593,0.490653690331073
"835",4,23,2,2,115,3,2,1,3,0.617048883193952,0.594641363904074
"836",4,36,2,1,116,3,1,1,3,0.559543533429837,0.567529551099347
"837",4,22,2,2,117,3,2,1,3,0.983766266199238,1.06428803434807
"838",4,39,2,2,118,3,2,1,2,0.860155211800376,0.828968350458579
"839",4,24,2,2,119,3,1,0,1,1.50589808549094,1.56514612258111
"840",4,18,2,1,120,1,1,1,4,0.458069088675148,0.460100735635576
"841",4,23,2,1,121,1,1,1,5,0.239333730284652,0.267321375961834
"842",4,33,2,1,122,1,1,1,5,0.397297963946282,0.410944390821146
"843",4,32,2,2,123,2,2,1,4,0.79768253909286,0.829196265520827
"844",4,19,2,2,124,2,2,1,3,0.610136321663396,0.645141791738406
"845",4,23,2,1,125,1,1,1,4,0.307409273798329,0.386683219013625
"846",4,36,2,1,126,1,1,1,4,0.384507844502957,0.400942386559026
"847",4,22,2,1,127,1,1,1,5,0.370614430122024,0.426947933749455
"848",4,39,2,1,128,1,1,1,4,0.394364080818131,0.356913676535832
"849",4,24,2,1,129,1,2,0,4,0.604766476292415,0.529937806121594
"850",4,18,2,1,130,2,1,1,4,0.59038912774789,0.606874276633551
"851",4,23,2,2,131,2,2,1,4,0.85223308966151,0.816317220926838
"852",4,33,2,2,132,1,2,1,5,0.390213910945422,0.435795571344051
"853",4,32,2,2,133,3,1,0,1,1.29815228478199,1.3571613727838
"854",4,19,2,2,134,2,1,0,2,0.53057493107361,0.512756155099744
"855",4,23,2,1,135,2,2,0,2,0.874125817027124,0.876898804488519
"856",4,36,2,1,136,2,1,1,3,0.386792482711055,0.35883330572944
"857",4,22,2,1,137,2,2,0,2,0.623032602634279,0.593079671852248
"858",4,39,2,1,138,2,1,1,3,0.758708099140172,0.740042923466194
"859",4,24,2,2,139,3,2,1,3,1.14952962836823,1.1442880784344
"860",4,18,2,1,140,2,1,1,4,0.590062935863335,0.668573731213185
"861",4,23,2,1,141,1,1,1,5,0.495252592491944,0.508716703079771
"862",4,33,2,1,142,2,2,0,3,0.715584478553918,0.71034941615921
"863",4,32,2,2,143,1,2,1,5,0.369429974078904,0.376416200031324
"864",4,19,2,1,144,3,2,0,2,1.39813959645861,1.44623304995289
"865",4,23,2,1,145,2,1,1,3,0.447783291567479,0.354618229139662
"866",4,36,2,2,146,2,1,0,3,0.650233602403229,0.637136126232852
"867",4,22,2,2,147,2,2,1,4,0.475199493307558,0.570075014442527
"868",4,39,2,1,148,2,1,1,4,0.76675577319161,0.667061499359729
"869",4,24,2,1,149,3,2,0,1,0.523577937100125,0.545596164048284
"870",4,18,2,1,150,1,2,0,3,0.541970467561438,0.524799610155706
"871",4,23,2,1,151,1,1,1,4,0.460824221490738,0.504643637974206
"872",4,33,2,2,152,1,2,1,4,0.213849077507494,0.163274605097888
"873",4,32,2,2,153,2,1,0,3,0.831593535854761,0.917416981357678
"874",4,19,2,1,154,1,1,1,4,0.349045668366253,0.375195807817573
"875",4,23,2,1,155,3,2,0,1,1.3614341032861,1.35522859151416
"876",4,36,2,1,156,3,2,0,1,1.10250397389565,1.02394246185246
"877",4,22,2,2,157,1,2,1,5,0.415918627297235,0.404265321714116
"878",4,39,2,1,158,1,1,1,5,0.304437367326916,0.201320719277704
"879",4,24,2,1,159,1,2,0,4,0.550279133423089,0.578617204924235
"880",4,18,2,1,160,3,1,1,3,0.854822184929961,0.805168102766946
"881",4,23,2,2,161,3,1,0,2,0.952624102216871,1.009334777686
"882",4,33,2,1,162,3,1,1,3,0.557981880620452,0.515295058396551
"883",4,32,2,2,163,2,2,1,3,0.717222128923915,0.707933914411875
"884",4,19,2,1,164,3,1,1,3,0.754836707422732,0.770024425033121
"885",4,23,2,1,165,2,1,1,3,0.498871923634617,0.457535834623652
"886",4,36,2,1,166,2,2,0,2,0.647271346276361,0.65765553692039
"887",4,22,2,1,167,1,2,0,4,0.59609684253768,0.680096585614981
"888",4,39,2,2,168,3,1,0,2,1.38230221290322,1.43143770423359
"889",4,24,2,1,169,1,2,0,4,0.347842578316282,0.377962787048358
"890",4,18,2,2,170,2,2,1,3,0.650394741828384,0.634490299109595
"891",4,23,2,2,171,2,2,1,4,0.485367687439109,0.539641262345116
"892",4,33,2,1,172,2,1,1,3,0.429744712048388,0.494404897669325
"893",4,32,2,1,173,1,1,1,4,0.375100614317169,0.359338870472633
"894",4,19,2,2,174,3,1,0,2,0.843628255241617,0.797575590267916
"895",4,23,2,2,175,2,2,1,3,0.567650765860671,0.557426567496581
"896",4,36,2,2,176,2,2,1,4,0.654943341927571,0.667315897496758
"897",4,22,2,2,177,3,1,0,1,1.00286537899472,1.00913879550729
"898",4,39,2,2,178,2,2,1,3,0.574906914413448,0.516636947157659
"899",4,24,2,1,179,2,2,0,2,0.907675004352652,0.852745354425477
"900",4,18,2,1,180,3,2,0,1,1.4883739070058,1.42725854119703
"901",4,23,2,2,181,2,1,0,3,0.883512018150736,0.888668469636206
"902",4,33,2,1,182,1,1,1,4,0.515641589940911,0.521599422477588
"903",4,32,2,1,183,1,1,1,4,0.28469303352535,0.286517394348375
"904",4,19,2,2,184,2,1,0,2,0.923966244228594,0.916414485818079
"905",4,23,2,1,185,1,1,1,4,0.366075842570725,0.304708852219068
"906",4,36,2,1,186,2,1,1,4,0.703228540750736,0.749992128304195
"907",4,22,2,2,187,1,2,1,4,0.443548097954318,0.502437463846129
"908",4,39,2,1,188,3,2,0,2,0.829880278542415,0.78872689721609
"909",4,24,2,2,189,2,1,0,2,0.799775082861504,0.816089644980583
"910",4,18,2,2,190,1,2,1,4,0.312969362565482,0.33639075472388
"911",4,23,2,1,191,3,1,1,2,0.994920620855312,1.07846198627766
"912",4,33,2,1,192,2,1,1,3,0.504846443673416,0.571209056849611
"913",4,32,2,2,193,2,1,0,3,0.698053277710992,0.65796091086242
"914",4,19,2,1,194,1,1,1,4,0.450413252384449,0.471919254442002
"915",4,23,2,2,195,2,1,0,2,0.310345168315838,0.356206091310836
"916",4,36,2,2,196,3,2,1,2,0.916612036141817,0.91731020521011
"917",4,22,2,1,197,3,2,0,2,1.00235323206018,0.863192055509001
"918",4,39,2,2,198,2,2,1,4,0.432925960737887,0.334939527245175
"919",4,24,2,2,199,1,1,0,3,0.619433697011807,0.627180236736799
"920",4,18,2,2,200,1,2,1,5,0.321810165369894,0.372457197373907
"921",4,23,2,1,201,1,1,1,4,0.578628948279867,0.6272990946782
"922",4,33,2,1,202,3,1,1,2,0.775739986774015,0.792915109922757
"923",4,32,2,2,203,3,1,0,2,1.3300089858608,1.29349060686272
"924",4,19,2,1,204,1,1,1,4,0.38786463887778,0.351229526193975
"925",4,23,2,2,205,3,1,0,1,0.509437590212385,0.508787689664129
"926",4,36,2,2,206,3,2,1,2,0.463694476174856,0.411536110409532
"927",4,22,2,2,207,1,2,1,5,0.420133826690357,0.394706992558243
"928",4,39,2,2,208,3,2,1,2,1.2343202304516,1.22284715414114
"929",4,24,2,1,209,1,1,1,4,0.439416398190795,0.387493826929434
"930",4,18,2,1,210,3,2,0,1,1.35075300227871,1.36490174366025
"931",4,23,2,2,211,3,1,0,2,0.793405861664403,0.843905566208711
"932",4,33,2,2,212,1,2,1,4,0.570481720520781,0.600431530830746
"933",4,32,2,1,213,2,1,1,4,0.481935190560069,0.514591845521256
"934",4,19,2,1,214,2,2,0,3,0.629674273988714,0.611234641889552
"935",4,23,2,2,215,1,2,1,4,0.465489363943663,0.442977943936098
"936",4,36,2,2,216,1,2,1,5,0.432093872610027,0.466805062109156
"937",4,22,2,1,217,3,1,1,2,0.572176251450721,0.607703732410595
"938",4,39,2,2,218,3,1,0,1,0.823789831016542,0.816968614085588
"939",4,24,2,2,219,1,2,1,5,0.571843884147531,0.595095744144473
"940",4,18,2,2,220,2,2,1,4,0.793845683425315,0.812921087532356
"941",4,23,2,1,221,1,1,1,5,0.428958756304172,0.369464245612381
"942",4,33,2,2,222,2,1,0,2,0.721860054653853,0.728731164183817
"943",4,32,2,1,223,3,1,1,2,0.829366249708231,0.76585982142467
"944",4,19,2,2,224,3,2,1,2,0.784356253331482,0.776477777366933
"945",4,23,2,2,225,2,2,1,4,0.463574099544235,0.422856347624474
"946",4,36,2,1,226,2,2,0,2,0.717838118421432,0.660965216280324
"947",4,22,2,1,227,1,1,1,5,0.403255124031344,0.450594054775468
"948",4,39,2,1,228,1,1,1,5,0.332265875385501,0.342479125889202
"949",4,24,2,2,229,3,1,0,1,0.97784019499481,0.885993236794069
"950",4,18,2,2,230,2,2,1,4,0.536221710973099,0.562789611709342
"951",4,23,2,2,231,1,1,0,4,0.59797009856196,0.604439382017763
"952",4,33,2,1,232,3,1,1,2,0.536455273248092,0.559248774250867
"953",4,32,2,1,233,1,1,1,5,0.441928159530741,0.441471232016175
"954",4,19,2,1,234,3,2,0,1,1.12184352326999,1.15414414155687
"955",4,23,2,1,235,3,2,0,1,0.760702645197494,0.700983655165556
"956",4,36,2,2,236,2,1,0,2,0.808364942285382,0.769112206656813
"957",4,22,2,2,237,2,2,1,3,0.624703279889963,0.662791426762995
"958",4,39,2,1,238,2,2,0,2,0.676383215680137,0.677081983682956
"959",4,24,2,2,239,2,1,0,2,0.845335145131511,0.870283634951325
"960",4,18,2,2,240,3,2,1,3,1.09082847278444,1.00414714993908
"961",3,32,1,2,1,1,2,1,4,0.342558966151848,0.312363450087014
"962",3,26,1,2,2,2,1,0,2,1.03855331857995,1.10379387487088
"963",3,23,1,2,3,3,2,1,2,0.733121448622747,0.841750438783056
"964",3,28,1,1,4,3,1,1,3,0.857857171963613,0.869086127935827
"965",3,36,1,1,5,3,2,0,2,1.35506722910056,1.40067812086634
"966",3,30,1,1,6,3,2,0,1,1.13761797054414,1.10820612807686
"967",3,34,1,2,7,2,2,1,4,0.520482237580037,0.441771061911938
"968",3,25,1,2,8,2,2,1,3,0.779047567180796,0.823526698990733
"969",3,36,1,1,9,1,1,1,4,0.488848012361237,0.499023012983835
"970",3,36,1,2,10,2,1,0,3,0.527954196284212,0.533907984259772
"971",3,32,1,2,11,1,2,1,5,0.287084887475486,0.211232892045638
"972",3,26,1,2,12,1,2,1,5,0.518676098970211,0.427845198369344
"973",3,23,1,2,13,3,1,0,2,0.872160098013974,0.946263343674727
"974",3,28,1,1,14,1,1,1,4,0.301707956624345,0.327113335401165
"975",3,36,1,1,15,3,1,1,2,1.09507085507465,1.12314549325953
"976",3,30,1,2,16,2,2,1,3,0.445587858262692,0.46144605698835
"977",3,34,1,1,17,3,2,0,2,1.44942523819206,1.42743661504844
"978",3,25,1,1,18,2,2,0,2,0.696058063784727,0.749509851749257
"979",3,36,1,1,19,3,1,1,2,1.062568526486,1.03963839056328
"980",3,36,1,2,20,3,2,1,2,0.696600831997187,0.710404642938316
"981",3,32,1,1,21,3,2,0,1,0.815638037695072,0.752796715192608
"982",3,26,1,2,22,1,2,1,4,0.486975704460307,0.491449755548595
"983",3,23,1,1,23,1,1,1,4,0.469068891945899,0.427902445162226
"984",3,28,1,2,24,2,2,1,4,0.708913062135858,0.780456350422954
"985",3,36,1,2,25,1,2,1,4,0.5644399352517,0.580686344838376
"986",3,30,1,2,26,1,2,1,4,0.259410134491047,0.219662746088071
"987",3,34,1,2,27,2,1,0,3,0.682398249245773,0.610816109876611
"988",3,25,1,1,28,3,1,1,2,0.929027743693385,0.876897150228444
"989",3,36,1,1,29,3,2,0,2,1.25695572462372,1.28960939954184
"990",3,36,1,1,30,2,2,0,2,0.454359761456062,0.485378506799102
"991",3,32,1,2,31,1,2,1,4,0.467781703276702,0.473898954550444
"992",3,26,1,1,32,2,1,1,3,0.469972511441298,0.444003405469066
"993",3,23,1,2,33,2,1,0,2,0.684119628518303,0.735661349207784
"994",3,28,1,2,34,1,1,0,4,0.704346620465226,0.702491318116631
"995",3,36,1,1,35,3,1,1,3,1.04903070508362,1.06428571781062
"996",3,30,1,1,36,2,2,0,3,0.792837389866524,0.830873058560802
"997",3,34,1,2,37,1,1,0,4,0.631451028445914,0.537793525062936
"998",3,25,1,2,38,1,2,1,4,0.534991508505425,0.435496281404505
"999",3,36,1,2,39,2,1,0,3,0.667250836135581,0.656520559706276
"1000",3,36,1,1,40,3,1,1,3,0.617608935491446,0.613313163610767
"1001",3,32,1,2,41,2,2,1,4,0.547688973590983,0.549317273527866
"1002",3,26,1,1,42,2,2,0,3,0.84032924915304,0.985742041445044
"1003",3,23,1,2,43,3,2,1,2,0.591173426622665,0.587616004057483
"1004",3,28,1,2,44,3,1,0,1,1.36716374293745,1.38616117244945
"1005",3,36,1,2,45,2,2,1,3,0.745375539172682,0.801799193612238
"1006",3,30,1,2,46,3,2,1,2,0.688851490681365,0.840478646433994
"1007",3,34,1,2,47,1,2,1,5,0.426863379506846,0.444725019984955
"1008",3,25,1,1,48,1,1,1,5,0.476407732386773,0.445305421712444
"1009",3,36,1,1,49,2,2,0,2,0.704162074221743,0.705292912407448
"1010",3,36,1,1,50,1,1,1,4,0.38160634071562,0.444284554087223
"1011",3,32,1,1,51,1,1,1,4,0.503442391707304,0.444446101000893
"1012",3,26,1,1,52,1,2,0,3,0.50969350039678,0.451681025026093
"1013",3,23,1,2,53,3,2,1,3,1.09607225663796,1.06932398407913
"1014",3,28,1,1,54,1,1,1,5,0.389225645810161,0.448999830497416
"1015",3,36,1,1,55,1,1,1,5,0.391669994443768,0.409653486826596
"1016",3,30,1,2,56,3,2,1,3,0.82868349774869,0.761899763375864
"1017",3,34,1,2,57,1,2,1,4,0.275047066123672,0.297907111386962
"1018",3,25,1,1,58,2,1,1,4,0.42178633769301,0.366424829163625
"1019",3,36,1,1,59,3,1,1,3,0.629291145886046,0.685700193632103
"1020",3,36,1,2,60,3,2,1,3,0.475110028944023,0.433854870721542
"1021",3,32,1,1,61,3,2,0,1,2.06703076429072,1.98767071084859
"1022",3,26,1,2,62,1,2,1,5,0.462287180896891,0.40119831684925
"1023",3,23,1,2,63,3,2,1,3,1.03295355777394,1.03540045465707
"1024",3,28,1,1,64,1,1,1,4,0.417878752807232,0.422732244807211
"1025",3,36,1,1,65,2,2,0,3,0.503758534086851,0.567944075021173
"1026",3,30,1,2,66,2,1,0,2,0.738549334528011,0.726142354819769
"1027",3,34,1,1,67,3,1,1,3,0.806815277556054,0.814693278696134
"1028",3,25,1,2,68,2,2,1,3,0.624556504287791,0.696473013976809
"1029",3,36,1,2,69,3,2,1,3,0.886127473145335,0.926518292334256
"1030",3,36,1,2,70,1,1,0,3,0.509261812448659,0.476707660425899
"1031",3,32,1,1,71,3,1,1,2,0.53135017860079,0.44845328393426
"1032",3,26,1,1,72,2,1,1,3,0.751989628415194,0.707089863253726
"1033",3,23,1,1,73,3,2,0,1,0.566894104785652,0.604844622202004
"1034",3,28,1,2,74,2,2,1,4,0.595778776767359,0.545178643651397
"1035",3,36,1,1,75,3,1,1,2,0.429223324844826,0.43048634213678
"1036",3,30,1,1,76,2,1,1,3,0.570911690300744,0.614646017570746
"1037",3,34,1,1,77,2,1,1,4,0.291541508178325,0.293240212600808
"1038",3,25,1,1,78,2,1,1,4,0.486230347968484,0.482676024054542
"1039",3,36,1,2,79,2,1,0,3,0.670931763040104,0.652454671011302
"1040",3,36,1,1,80,1,2,0,4,0.69658440541639,0.657992290379827
"1041",3,32,1,1,81,1,2,0,3,0.483632243354106,0.488188976688986
"1042",3,26,1,2,82,1,1,0,3,0.506751213359824,0.4529422226845
"1043",3,23,1,2,83,3,2,1,2,0.79998467770865,0.748936503034752
"1044",3,28,1,2,84,1,2,1,4,0.340115795791694,0.383331701870618
"1045",3,36,1,1,85,2,1,1,3,0.735090451839152,0.701264015165724
"1046",3,30,1,1,86,3,2,0,2,1.27186497709173,1.29043924741359
"1047",3,34,1,2,87,2,2,1,3,0.595226681993616,0.55570619108829
"1048",3,25,1,2,88,2,2,1,4,0.620625786989515,0.728433300477712
"1049",3,36,1,2,89,2,1,0,2,0.782869533575696,0.836676501047028
"1050",3,36,1,1,90,3,2,0,2,1.38501331684497,1.39718653644584
"1051",3,32,1,2,91,2,1,0,2,0.711379471535729,0.801323482228249
"1052",3,26,1,2,92,1,1,0,3,0.586294063219064,0.560419712307011
"1053",3,23,1,2,93,3,1,0,1,0.669278942583654,0.742121977781262
"1054",3,28,1,1,94,2,2,0,3,0.785767447390571,0.686268000405593
"1055",3,36,1,1,95,1,1,1,5,0.634815608373277,0.641305769484868
"1056",3,30,1,2,96,3,1,0,1,1.31194744984607,1.35042651480331
"1057",3,34,1,1,97,1,1,1,5,0.304998533924686,0.332357055639705
"1058",3,25,1,2,98,2,1,0,2,0.851621501629479,0.797478357564446
"1059",3,36,1,1,99,2,1,1,3,0.737460352862493,0.717498652458379
"1060",3,36,1,1,100,2,1,1,3,0.545598924750196,0.599358401896361
"1061",3,32,1,2,101,1,2,1,5,0.395204738584743,0.419905790090985
"1062",3,26,1,1,102,3,2,0,1,0.928177811766037,0.934681346697007
"1063",3,23,1,2,103,3,2,1,3,1.07851948451194,1.10361402608394
"1064",3,28,1,2,104,1,2,1,5,0.516962063389389,0.473848661818492
"1065",3,36,1,2,105,3,2,1,2,0.923673975875154,0.831869181130953
"1066",3,30,1,1,106,1,2,0,4,0.359073778051616,0.347086389344601
"1067",3,34,1,1,107,2,2,0,3,0.7079244332782,0.784022335010884
"1068",3,25,1,2,108,3,1,0,2,0.669579024961309,0.675239519833195
"1069",3,36,1,1,109,1,1,1,4,0.4652730382328,0.408548760474212
"1070",3,36,1,1,110,3,1,1,2,0.781482053396421,0.773390073142212
"1071",3,32,1,2,111,2,1,0,2,0.445025574994135,0.468130347046067
"1072",3,26,1,2,112,2,1,0,3,0.846577708522646,0.854106255134162
"1073",3,23,1,2,113,3,1,0,2,0.418926658384644,0.432923427261284
"1074",3,28,1,1,114,3,1,1,3,1.02094526056836,0.956060633688922
"1075",3,36,1,2,115,1,2,1,4,0.423079528755201,0.367109939166378
"1076",3,30,1,1,116,1,2,0,3,0.619435322336823,0.558022291085746
"1077",3,34,1,1,117,2,2,0,2,0.621638476167667,0.656301869947322
"1078",3,25,1,2,118,2,2,1,4,0.596424437911184,0.504477319710139
"1079",3,36,1,1,119,3,2,0,1,1.80288703887146,1.68959555202057
"1080",3,36,1,1,120,3,2,0,1,1.56355427018191,1.53353150935908
"1081",3,32,1,1,121,1,1,1,4,0.482878314204285,0.446038643493201
"1082",3,26,1,1,122,2,1,1,3,0.48102843775194,0.484453914236772
"1083",3,23,1,2,123,3,1,0,2,0.473729585851522,0.476519586981349
"1084",3,28,1,1,124,3,2,0,1,1.07577184107908,1.06707656242196
"1085",3,36,1,1,125,1,1,1,4,0.409572742544109,0.45525617856109
"1086",3,30,1,2,126,2,2,1,4,0.447938313641145,0.411876774695647
"1087",3,34,1,1,127,1,1,1,5,0.440991468049238,0.451879697084823
"1088",3,25,1,1,128,1,1,1,5,0.531731092114965,0.475759852842408
"1089",3,36,1,1,129,2,1,1,3,0.558292854947462,0.524123097419376
"1090",3,36,1,1,130,2,1,1,4,0.552024435032093,0.595613256488116
"1091",3,32,1,2,131,1,1,0,4,0.454664184938217,0.381946488558268
"1092",3,26,1,1,132,2,1,1,3,0.732621742436412,0.663004734079737
"1093",3,23,1,2,133,2,2,1,3,0.458669296735032,0.458572875105977
"1094",3,28,1,1,134,3,1,1,2,1.00507042376977,0.988685768153832
"1095",3,36,1,2,135,2,2,1,4,0.562588532895639,0.527269303758668
"1096",3,30,1,2,136,3,2,1,3,1.08595175489465,1.10588621560896
"1097",3,34,1,2,137,1,1,0,4,0.477509383024489,0.536537429691857
"1098",3,25,1,1,138,2,1,1,3,0.78031135947639,0.79449982310889
"1099",3,36,1,2,139,3,2,1,2,0.882901778603819,0.905500324397057
"1100",3,36,1,1,140,1,1,1,5,0.334824269913553,0.354884518594897
"1101",3,32,1,1,141,3,2,0,1,0.585796697013968,0.619639590324885
"1102",3,26,1,2,142,1,1,0,3,0.507533285909425,0.5271288604828
"1103",3,23,1,2,143,3,1,0,2,0.772078638840884,0.718911605407514
"1104",3,28,1,1,144,1,1,1,5,0.43610554034965,0.34447782314449
"1105",3,36,1,2,145,1,1,0,4,0.368729246007923,0.397113681170391
"1106",3,30,1,2,146,1,2,1,4,0.366884729395447,0.514744307302879
"1107",3,34,1,1,147,3,1,1,2,0.563188632471559,0.558742663776662
"1108",3,25,1,2,148,3,1,0,1,1.17551292104403,1.21792789228653
"1109",3,36,1,2,149,2,1,0,2,0.665993286127068,0.698566400635595
"1110",3,36,1,1,150,2,2,0,3,0.663540402150435,0.595714065304706
"1111",3,32,1,2,151,1,1,0,3,0.53945252337654,0.522532949697234
"1112",3,26,1,1,152,2,1,1,3,0.528427529433157,0.461110916744679
"1113",3,23,1,1,153,3,1,1,3,0.891470313838309,0.94996900712619
"1114",3,28,1,2,154,3,1,0,1,0.53455020468223,0.457994553833844
"1115",3,36,1,2,155,2,1,0,3,0.710109323541244,0.741494691972836
"1116",3,30,1,2,156,2,2,1,3,0.863817625901718,0.909834898315706
"1117",3,34,1,1,157,2,2,0,2,0.687867203507273,0.759911062462794
"1118",3,25,1,1,158,1,2,0,3,0.486437191550637,0.413355599428384
"1119",3,36,1,2,159,2,1,0,3,0.85655877132114,0.797483809727352
"1120",3,36,1,2,160,3,1,0,1,0.71769976025106,0.685251753501755
"1121",3,32,1,2,161,2,2,1,4,0.311531622600321,0.384707240898227
"1122",3,26,1,1,162,2,1,1,4,0.709245144564774,0.7358634326106
"1123",3,23,1,1,163,2,1,1,3,0.683069401392471,0.689280190033161
"1124",3,28,1,1,164,1,1,1,5,0.365277205193478,0.35751283546987
"1125",3,36,1,1,165,2,2,0,3,0.725291621779225,0.729964858612396
"1126",3,30,1,2,166,1,2,1,5,0.317891229729444,0.21607680126044
"1127",3,34,1,2,167,3,2,1,3,0.93275773660219,0.908144340105676
"1128",3,25,1,1,168,1,1,1,5,0.428393731157924,0.428604470224303
"1129",3,36,1,2,169,2,1,0,3,0.264781522511148,0.296753973784421
"1130",3,36,1,1,170,3,1,1,2,0.80667875647458,0.722156477389396
"1131",3,32,1,2,171,1,2,1,5,0.292346693119089,0.201147602160638
"1132",3,26,1,2,172,3,2,1,3,0.879211311993433,0.783512228114612
"1133",3,23,1,1,173,3,1,1,3,0.718285123160695,0.789021445078253
"1134",3,28,1,2,174,1,2,1,4,0.34827055128465,0.252370254703732
"1135",3,36,1,1,175,1,2,0,3,0.588298808707156,0.649476263486286
"1136",3,30,1,2,176,2,1,0,2,0.670101385002213,0.609678040718258
"1137",3,34,1,2,177,2,2,1,3,0.550588725061943,0.665730406719909
"1138",3,25,1,2,178,1,1,0,4,0.55824557412623,0.526385787995909
"1139",3,36,1,1,179,1,2,0,4,0.395548877974817,0.388331415936929
"1140",3,36,1,1,180,3,2,0,2,0.973914325057052,1.01645210739952
"1141",3,32,1,1,181,3,2,0,1,0.859460526993499,0.792845734387196
"1142",3,26,1,2,182,3,2,1,2,0.580559851279638,0.542882821938362
"1143",3,23,1,1,183,3,1,1,2,0.5398783245284,0.54909158848838
"1144",3,28,1,2,184,3,2,1,2,0.552873142978811,0.554446586990401
"1145",3,36,1,1,185,2,2,0,2,0.700456550779443,0.737590655364313
"1146",3,30,1,2,186,2,2,1,4,0.444630136176748,0.523457769314943
"1147",3,34,1,2,187,1,2,1,5,0.454247826205219,0.398956997364204
"1148",3,25,1,1,188,3,1,1,3,0.827839705921283,0.793049144575521
"1149",3,36,1,2,189,3,2,1,2,0.700882232435515,0.613549440354563
"1150",3,36,1,2,190,1,1,0,4,0.455961362172573,0.432131422853004
"1151",3,32,1,2,191,2,2,1,4,0.517319360778407,0.506094806976948
"1152",3,26,1,1,192,2,1,1,3,0.592035558135331,0.51960219717732
"1153",3,23,1,2,193,3,1,0,1,1.13696743784268,1.08601061836526
"1154",3,28,1,1,194,2,2,0,3,0.516909706936376,0.448937373193025
"1155",3,36,1,1,195,1,1,1,5,0.357879090940351,0.293094244128221
"1156",3,30,1,1,196,1,2,0,4,0.62642039015215,0.596822395733748
"1157",3,34,1,2,197,3,2,1,3,0.90485939312383,0.845785517123619
"1158",3,25,1,1,198,1,1,1,5,0.540119156440242,0.527051247671537
"1159",3,36,1,2,199,1,2,1,4,0.245005984503773,0.199209037740729
"1160",3,36,1,1,200,1,1,1,4,0.276808287725847,0.326852075648471
"1161",3,32,1,2,201,2,2,1,4,0.597808234180325,0.691794558387381
"1162",3,26,1,2,202,1,2,1,4,0.321316013809068,0.343309823775258
"1163",3,23,1,1,203,1,1,1,5,0.331948041409665,0.374077009828849
"1164",3,28,1,1,204,1,2,0,4,0.503664568817103,0.550474348240847
"1165",3,36,1,1,205,1,1,1,5,0.442090880390911,0.418817496144346
"1166",3,30,1,1,206,2,1,1,4,0.682010567481121,0.693867563135313
"1167",3,34,1,1,207,1,2,0,4,0.506119865230355,0.514863490057099
"1168",3,25,1,2,208,2,1,0,2,0.666073141308604,0.592884248989564
"1169",3,36,1,1,209,3,2,0,1,1.08875213518865,1.13910145126248
"1170",3,36,1,1,210,2,2,0,3,0.507778775788525,0.524049545826903
"1171",3,32,1,1,211,3,2,0,1,0.590424513483696,0.622955333273962
"1172",3,26,1,1,212,2,1,1,4,0.646313894307305,0.597670698021818
"1173",3,23,1,1,213,2,1,1,3,0.627504726314497,0.606826280595202
"1174",3,28,1,2,214,1,2,1,4,0.388560812475813,0.302297374918047
"1175",3,36,1,2,215,2,1,0,2,0.403563567965667,0.470348790859339
"1176",3,30,1,2,216,2,1,0,3,0.682343183742098,0.687647247678503
"1177",3,34,1,1,217,1,1,1,5,0.289815964104586,0.250359683454757
"1178",3,25,1,2,218,1,1,0,4,0.615076163986245,0.588431762422474
"1179",3,36,1,2,219,3,2,1,2,1.12051067772154,1.18480600467171
"1180",3,36,1,1,220,1,2,0,3,0.353773023075873,0.426337872804547
"1181",3,32,1,1,221,3,2,0,1,1.19154525548747,1.1775289706686
"1182",3,26,1,2,222,3,2,1,3,0.759110760593931,0.814857743153912
"1183",3,23,1,2,223,3,1,0,1,0.380497862398197,0.404233957600715
"1184",3,28,1,2,224,1,2,1,5,0.461205820647775,0.418263100338732
"1185",3,36,1,2,225,3,1,0,2,0.430794058322908,0.497246331227335
"1186",3,30,1,1,226,3,1,1,2,0.755532423155396,0.758859144411119
"1187",3,34,1,1,227,2,1,1,4,0.497405794795563,0.490430252502237
"1188",3,25,1,2,228,3,2,1,2,0.965800959618994,0.932521603171582
"1189",3,36,1,2,229,1,1,0,3,0.617064007596749,0.655936195174284
"1190",3,36,1,1,230,2,1,1,4,0.67076951578368,0.726833048710899
"1191",3,32,1,1,231,1,1,1,4,0.302947643190785,0.310625778024865
"1192",3,26,1,2,232,3,1,0,1,0.735140895249913,0.645413334162079
"1193",3,23,1,1,233,1,1,1,5,0.364981330194427,0.431890462919466
"1194",3,28,1,1,234,2,2,0,3,0.6299139508236,0.565187946658337
"1195",3,36,1,2,235,3,1,0,1,0.938431072629766,1.0478614772901
"1196",3,30,1,2,236,1,1,0,3,0.732848390096784,0.688143974811361
"1197",3,34,1,2,237,1,2,1,5,0.302639527116442,0.31338108019718
"1198",3,25,1,2,238,2,1,0,3,0.602106107788471,0.547559997918437
"1199",3,36,1,1,239,3,2,0,2,1.35313332443208,1.34167880970986
"1200",3,36,1,1,240,3,2,0,2,0.848766869291996,0.854678935538838
"1201",2,29,2,2,1,1,2,1,4,0.307825927612126,0.349340877046093
"1202",2,30,2,1,2,1,2,0,3,0.638524137129286,0.640064306619794
"1203",2,23,2,2,3,3,2,1,3,1.07345366951871,1.1607775844035
"1204",2,31,2,2,4,2,2,1,3,0.537210743716399,0.527334659589053
"1205",2,24,2,1,5,1,2,0,3,0.645352464967526,0.64967696406535
"1206",2,19,2,1,6,3,1,1,3,1.30700477109985,1.30640766913641
"1207",2,18,2,2,7,3,2,1,3,0.572668639902578,0.508447536431238
"1208",2,30,2,1,8,3,2,0,1,0.228672568487545,0.134365594195329
"1209",2,36,2,2,9,2,2,1,4,0.777981382513584,0.712205943137448
"1210",2,24,2,2,10,2,2,1,4,0.514455884995571,0.568445503461315
"1211",2,29,2,2,11,2,2,1,4,0.531258212599121,0.523759598640115
"1212",2,30,2,2,12,1,2,1,5,0.360424666863812,0.320472550470237
"1213",2,23,2,1,13,1,2,0,3,0.525798049800293,0.488189849131512
"1214",2,31,2,1,14,2,1,1,3,0.615512285831575,0.623636771484178
"1215",2,24,2,1,15,2,1,1,4,0.406023050930838,0.405171295551132
"1216",2,19,2,2,16,1,2,1,5,0.436885038776161,0.386547430295274
"1217",2,18,2,1,17,3,1,1,3,0.522673988933901,0.45073751235809
"1218",2,30,2,2,18,1,2,1,5,0.32972485705909,0.334149761452721
"1219",2,36,2,2,19,1,2,1,5,0.368929790996315,0.343828128226858
"1220",2,24,2,2,20,2,2,1,4,0.813888926193426,0.78494552408526
"1221",2,29,2,2,21,3,1,0,1,0.91157682288672,0.888832163763314
"1222",2,30,2,2,22,2,2,1,4,0.683550483740515,0.699743669392543
"1223",2,23,2,2,23,2,2,1,3,0.68513453728084,0.68245899836134
"1224",2,31,2,1,24,3,1,1,2,1.44148296837781,1.48618389310393
"1225",2,24,2,2,25,3,2,1,3,0.680704671661052,0.64199354421007
"1226",2,19,2,2,26,3,1,0,2,1.14451401283544,1.18741220476666
"1227",2,18,2,2,27,1,1,0,3,0.495237989018769,0.465558608764788
"1228",2,30,2,2,28,3,2,1,3,0.95557201307114,0.939184618148721
"1229",2,36,2,2,29,3,2,1,3,0.564586089827822,0.541836118101714
"1230",2,24,2,1,30,3,1,1,3,0.843348160423081,0.781709431481319
"1231",2,29,2,2,31,1,2,1,5,0.370826243500393,0.367181874214971
"1232",2,30,2,2,32,1,2,1,5,0.45481200750584,0.419791237345818
"1233",2,23,2,1,33,1,1,1,5,0.553608851713855,0.55680947384587
"1234",2,31,2,2,34,3,2,1,2,0.689124575233709,0.675312092052574
"1235",2,24,2,1,35,1,2,0,4,0.638007330680735,0.662299095504475
"1236",2,19,2,2,36,3,1,0,2,1.55474729107777,1.65650417356353
"1237",2,18,2,2,37,2,2,1,3,0.614461797137802,0.594200182457867
"1238",2,30,2,1,38,1,1,1,5,0.505708994283195,0.566386766828385
"1239",2,36,2,2,39,2,2,1,3,0.568729281740675,0.609941013425346
"1240",2,24,2,2,40,3,1,0,2,1.28249562000125,1.3322211504362
"1241",2,29,2,2,41,1,2,1,4,0.314371230729743,0.301623837977644
"1242",2,30,2,1,42,1,2,0,3,0.455275579016058,0.405385423086034
"1243",2,23,2,2,43,1,1,0,3,0.325485692952192,0.261589686099266
"1244",2,31,2,1,44,3,2,0,2,0.393484765607332,0.38486291940542
"1245",2,24,2,1,45,1,1,1,4,0.439793207211534,0.382640881281721
"1246",2,19,2,1,46,2,2,0,3,0.456440543717022,0.493148224168743
"1247",2,18,2,1,47,3,1,1,3,0.526277844615532,0.594652155309704
"1248",2,30,2,1,48,1,1,1,4,0.415505401021585,0.460434007857479
"1249",2,36,2,1,49,1,1,1,4,0.329274452908705,0.381543842474349
"1250",2,24,2,2,50,2,2,1,3,0.596614926296987,0.675373121539945
"1251",2,29,2,1,51,2,2,0,2,0.717797939144096,0.769758107019447
"1252",2,30,2,1,52,1,1,1,5,0.458422853901484,0.511937470463266
"1253",2,23,2,1,53,1,1,1,5,0.525080566713531,0.485920360894946
"1254",2,31,2,1,54,3,2,0,1,0.670950586110419,0.699483542331368
"1255",2,24,2,2,55,2,2,1,3,0.62906684780995,0.587418244834197
"1256",2,19,2,2,56,3,1,0,2,0.825981060604639,0.812430928310081
"1257",2,18,2,2,57,1,1,0,4,0.377579340082498,0.415969967462555
"1258",2,30,2,1,58,1,1,1,5,0.499774989321276,0.459525558292011
"1259",2,36,2,1,59,2,2,0,2,0.693461587934904,0.771341774733281
"1260",2,24,2,1,60,2,1,1,4,0.739335128812696,0.700263056606413
"1261",2,29,2,1,61,1,2,0,3,0.404456359725126,0.485003149967597
"1262",2,30,2,1,62,2,1,1,3,0.747215687587336,0.809281434784973
"1263",2,23,2,1,63,3,1,1,2,0.604882263974048,0.65014192252317
"1264",2,31,2,1,64,3,2,0,2,1.46969704814762,1.47696676159076
"1265",2,24,2,1,65,2,2,0,3,0.805387342448435,0.774964571364865
"1266",2,19,2,1,66,1,1,1,5,0.52577863930292,0.475548265202021
"1267",2,18,2,1,67,2,2,0,3,0.773596653117871,0.786146471464631
"1268",2,30,2,1,68,1,1,1,5,0.471104276075072,0.367710150675185
"1269",2,36,2,2,69,2,2,1,3,0.574535252161228,0.639696221027287
"1270",2,24,2,2,70,3,1,0,2,1.0374478171774,1.07527746352307
"1271",2,29,2,2,71,2,1,0,3,0.770083302785991,0.760230627690223
"1272",2,30,2,1,72,3,1,1,2,1.02969958706948,1.06262246155126
"1273",2,23,2,2,73,2,2,1,4,0.521496008371874,0.591262937854008
"1274",2,31,2,1,74,1,1,1,5,0.443140616186309,0.409190251956228
"1275",2,24,2,1,75,2,2,0,3,0.850429181977906,0.945730916504628
"1276",2,19,2,1,76,3,1,1,2,0.909315736463144,0.969135365923296
"1277",2,18,2,2,77,2,2,1,3,0.743923089473106,0.828195198383896
"1278",2,30,2,2,78,2,1,0,3,0.482768515908632,0.498031838187053
"1279",2,36,2,2,79,2,2,1,4,0.73102512641281,0.721192821679688
"1280",2,24,2,2,80,3,2,1,3,0.870870058617699,0.848898267645156
"1281",2,29,2,1,81,3,2,0,1,0.280628302645692,0.248798226547846
"1282",2,30,2,2,82,2,1,0,3,0.678301238096266,0.749439970347768
"1283",2,23,2,1,83,2,1,1,4,0.650628977813042,0.615949667696536
"1284",2,31,2,1,84,1,1,1,5,0.443267662449697,0.510227716992895
"1285",2,24,2,2,85,2,1,0,3,0.665838779831391,0.664946874342505
"1286",2,19,2,1,86,1,1,1,5,0.367716457353922,0.421664433200439
"1287",2,18,2,2,87,1,2,1,5,0.351973118219382,0.369092812448489
"1288",2,30,2,2,88,1,2,1,5,0.366204943612109,0.389342361650273
"1289",2,36,2,1,89,1,2,0,4,0.669406182995299,0.702020586584612
"1290",2,24,2,2,90,2,1,0,3,0.499237075779494,0.486139880211445
"1291",2,29,2,2,91,1,2,1,4,0.331355409767223,0.376446068765544
"1292",2,30,2,2,92,3,1,0,1,0.975498512162797,1.00101431874665
"1293",2,23,2,2,93,3,2,1,2,0.906493583713619,0.934041668471099
"1294",2,31,2,2,94,2,1,0,2,0.750132989912898,0.738154373808309
"1295",2,24,2,2,95,3,2,1,2,0.980222168892825,1.08987516121452
"1296",2,19,2,2,96,2,1,0,3,0.433845443557366,0.394956608712208
"1297",2,18,2,1,97,3,1,1,3,0.928212438753839,0.887309657656283
"1298",2,30,2,2,98,2,2,1,4,0.507746648396596,0.560761553645319
"1299",2,36,2,1,99,1,1,1,5,0.44724253295836,0.404323092030743
"1300",2,24,2,2,100,1,1,0,4,0.683320578530383,0.585336488879172
"1301",2,29,2,2,101,2,2,1,3,0.639403070795113,0.700273908097907
"1302",2,30,2,2,102,2,2,1,3,0.505998867950109,0.444853295840766
"1303",2,23,2,2,103,1,2,1,5,0.46243806315807,0.448403639243696
"1304",2,31,2,2,104,3,1,0,1,0.731904510472913,0.73311311440599
"1305",2,24,2,2,105,3,2,1,3,0.76728520063583,0.757674819068954
"1306",2,19,2,2,106,3,1,0,1,0.983329610943787,1.03562182563975
"1307",2,18,2,2,107,2,2,1,4,0.423222181233247,0.452372806786484
"1308",2,30,2,1,108,3,1,1,3,0.741859741696189,0.768857614465194
"1309",2,36,2,1,109,3,2,0,2,1.37257087812312,1.44166787079905
"1310",2,24,2,2,110,2,1,0,3,0.60056307561953,0.601999485526905
"1311",2,29,2,1,111,1,2,0,3,0.550019242161704,0.557447315586393
"1312",2,30,2,1,112,3,1,1,2,0.647649110983665,0.679508445231021
"1313",2,23,2,2,113,2,1,0,2,0.69023599358618,0.631582278254226
"1314",2,31,2,1,114,1,1,1,4,0.375088792091569,0.374335781059225
"1315",2,24,2,1,115,1,2,0,3,0.606273265570163,0.637646494451962
"1316",2,19,2,1,116,2,2,0,2,0.464332904578189,0.486194409631243
"1317",2,18,2,1,117,2,1,1,4,0.702070339526233,0.686032314826467
"1318",2,30,2,2,118,3,1,0,2,0.394619060902603,0.394446756540433
"1319",2,36,2,1,119,3,2,0,1,0.741263884100549,0.793929372273546
"1320",2,24,2,2,120,2,2,1,4,0.534454098299786,0.503200261552254
"1321",2,29,2,2,121,2,2,1,3,0.48783826460731,0.534228228208734
"1322",2,30,2,1,122,3,1,1,3,0.608897695942477,0.660296313227812
"1323",2,23,2,1,123,1,1,1,5,0.421250080869539,0.507958886111866
"1324",2,31,2,2,124,3,1,0,2,0.653612832641144,0.593851096135652
"1325",2,24,2,2,125,2,2,1,4,0.769311914932148,0.710852010932773
"1326",2,19,2,2,126,1,2,1,4,0.409965796370864,0.429446730154079
"1327",2,18,2,1,127,1,1,1,5,0.307171929223267,0.222242897091857
"1328",2,30,2,2,128,2,2,1,3,0.747486173187407,0.731131503715645
"1329",2,36,2,1,129,2,2,0,3,0.64887007223542,0.732914591471116
"1330",2,24,2,2,130,2,2,1,3,0.61289321609718,0.672526924168684
"1331",2,29,2,1,131,2,2,0,3,0.542975560685735,0.585085225666211
"1332",2,30,2,2,132,1,1,0,3,0.614394728643297,0.554110893852708
"1333",2,23,2,1,133,3,2,0,1,1.67823198340622,1.68737450877597
"1334",2,31,2,1,134,2,2,0,2,0.815962888090597,0.866387393531157
"1335",2,24,2,1,135,2,1,1,3,0.746928066747567,0.773883415311102
"1336",2,19,2,1,136,3,1,1,3,0.831350172085234,0.809396490764703
"1337",2,18,2,1,137,2,1,1,3,0.584023909244825,0.579453331679869
"1338",2,30,2,1,138,1,1,1,4,0.486099078741565,0.479439066928403
"1339",2,36,2,1,139,3,1,1,2,0.868004995480365,0.881354259811265
"1340",2,24,2,2,140,3,1,0,2,0.524149378365875,0.456685126463331
"1341",2,29,2,2,141,3,1,0,1,1.06381442764358,1.04168938536597
"1342",2,30,2,1,142,1,1,1,5,0.488305771797793,0.463015893551177
"1343",2,23,2,2,143,3,1,0,2,1.28499148249662,1.27453176364777
"1344",2,31,2,1,144,1,1,1,5,0.45512818658519,0.452347259713322
"1345",2,24,2,1,145,2,1,1,3,0.720152972309226,0.752181615780318
"1346",2,19,2,1,146,2,1,1,3,0.687452357555225,0.779564294786915
"1347",2,18,2,2,147,1,2,1,4,0.248599353246836,0.343945096575247
"1348",2,30,2,1,148,3,1,1,3,0.70670310539959,0.769678578121183
"1349",2,36,2,2,149,3,2,1,3,0.956093608318841,1.06837463549007
"1350",2,24,2,2,150,2,2,1,4,0.382501005674026,0.324031667021097
"1351",2,29,2,2,151,2,1,0,2,0.675596512705127,0.714773328837582
"1352",2,30,2,2,152,3,1,0,1,0.591033484787438,0.629157576377295
"1353",2,23,2,2,153,3,1,0,2,1.7064104380919,1.68008624011666
"1354",2,31,2,2,154,3,1,0,1,1.0523186094332,0.979260081917214
"1355",2,24,2,2,155,2,2,1,4,0.441566292317846,0.422234598717815
"1356",2,19,2,1,156,3,1,1,3,0.731427952614895,0.835056434156009
"1357",2,18,2,1,157,3,1,1,2,1.22110425309543,1.23808714130656
"1358",2,30,2,2,158,1,2,1,5,0.35982647716495,0.314582070989122
"1359",2,36,2,1,159,3,2,0,2,1.14793837296173,1.14849144541141
"1360",2,24,2,1,160,2,1,1,3,0.598058483409569,0.606868126395626
"1361",2,29,2,2,161,3,1,0,2,0.632321076825544,0.668088874402939
"1362",2,30,2,2,162,2,2,1,3,0.507069816741937,0.533664846904909
"1363",2,23,2,2,163,2,2,1,3,0.493510409613952,0.442990594319601
"1364",2,31,2,1,164,2,2,0,2,0.864926949586852,0.879423857155122
"1365",2,24,2,1,165,3,2,0,2,1.17020239990169,1.17491633747127
"1366",2,19,2,2,166,1,2,1,4,0.46438837693434,0.427241984392488
"1367",2,18,2,1,167,2,1,1,3,0.662263893980079,0.692014911613544
"1368",2,30,2,1,168,1,1,1,5,0.501959797551918,0.549681342870604
"1369",2,36,2,2,169,3,1,0,1,1.17731698992747,1.13148806473863
"1370",2,24,2,2,170,3,2,1,2,0.899399366872338,0.912056472847233
"1371",2,29,2,2,171,3,2,1,3,0.934874791567773,0.921262913290997
"1372",2,30,2,1,172,2,2,0,3,0.723091634372032,0.734760984187966
"1373",2,23,2,2,173,2,2,1,4,0.635783859548135,0.610307584200694
"1374",2,31,2,2,174,1,2,1,5,0.286038260826545,0.208921420996886
"1375",2,24,2,1,175,1,1,1,5,0.525848342585995,0.520444871019912
"1376",2,19,2,2,176,1,2,1,5,0.365227011250395,0.326096802034786
"1377",2,18,2,2,177,3,2,1,3,1.00429388019101,0.972506074574232
"1378",2,30,2,2,178,3,1,0,1,0.958511371754967,0.941185791378252
"1379",2,36,2,2,179,3,2,1,2,0.893167003590354,0.936369027243504
"1380",2,24,2,1,180,1,1,1,4,0.396371616914351,0.39602345041021
"1381",2,29,2,2,181,1,2,1,5,0.348416139819614,0.432788789804225
"1382",2,30,2,1,182,2,2,0,3,0.694060228732695,0.714669945051879
"1383",2,23,2,1,183,3,2,0,1,1.49161791763756,1.53147334609473
"1384",2,31,2,2,184,2,1,0,3,0.657302251553164,0.684164597143414
"1385",2,24,2,1,185,2,1,1,4,0.872613723305313,0.815389029761652
"1386",2,19,2,2,186,1,2,1,4,0.623143780779115,0.638718961517483
"1387",2,18,2,1,187,1,1,1,4,0.357578075640367,0.313079330823752
"1388",2,30,2,1,188,1,1,1,4,0.46030743359445,0.532820292585484
"1389",2,36,2,1,189,1,2,0,4,0.50322188330232,0.450270620202412
"1390",2,24,2,2,190,1,2,1,5,0.404645641419018,0.403659288219842
"1391",2,29,2,1,191,1,1,1,4,0.395433157470664,0.422274560419842
"1392",2,30,2,1,192,1,1,1,4,0.441516353959975,0.355822669045548
"1393",2,23,2,1,193,2,1,1,3,0.508684840981365,0.508678958679723
"1394",2,31,2,2,194,2,2,1,3,0.687446393719485,0.72356340520749
"1395",2,24,2,1,195,1,1,1,4,0.32631095062184,0.319153722663809
"1396",2,19,2,1,196,2,1,1,4,0.703035787228118,0.679783566685342
"1397",2,18,2,2,197,2,1,0,2,0.467446126193439,0.439940786495133
"1398",2,30,2,2,198,3,1,0,1,1.12953448992096,1.08986528393948
"1399",2,36,2,2,199,3,2,1,2,0.996808153038961,0.998609848637765
"1400",2,24,2,2,200,2,2,1,4,0.651895912466213,0.673241682900095
"1401",2,29,2,1,201,1,1,1,4,0.401587401592338,0.414388085375663
"1402",2,30,2,1,202,3,1,1,3,0.760331732573609,0.715377923564332
"1403",2,23,2,1,203,3,2,0,2,1.03709433599631,0.940771477811039
"1404",2,31,2,1,204,1,1,1,4,0.40891988037293,0.36718557901497
"1405",2,24,2,1,205,1,2,0,3,0.479477184668388,0.50130171133572
"1406",2,19,2,2,206,3,1,0,1,1.03996562519115,1.04054391083243
"1407",2,18,2,2,207,1,2,1,5,0.566750574902414,0.613977912698441
"1408",2,30,2,1,208,1,2,0,3,0.811390313324064,0.801268821878268
"1409",2,36,2,1,209,3,2,0,2,1.02529412679057,0.965491384454414
"1410",2,24,2,2,210,2,1,0,3,0.561359383827133,0.603784661631821
"1411",2,29,2,1,211,1,2,0,4,0.598538297698157,0.561730044632932
"1412",2,30,2,2,212,2,2,1,3,0.539849490241403,0.61193687280093
"1413",2,23,2,1,213,2,2,0,2,0.590558803867898,0.486772356215682
"1414",2,31,2,2,214,3,1,0,2,0.707407615838119,0.725058968769854
"1415",2,24,2,2,215,2,1,0,3,0.717871201857977,0.69958044748648
"1416",2,19,2,2,216,1,2,1,5,0.300828114146642,0.308210195116928
"1417",2,18,2,1,217,3,2,0,1,0.890334596633183,0.871896440217281
"1418",2,30,2,1,218,2,2,0,3,0.436088317907247,0.487071253281327
"1419",2,36,2,1,219,3,2,0,2,0.706986064410092,0.779595923165012
"1420",2,24,2,1,220,1,2,0,4,0.610887683842392,0.628864365559872
"1421",2,29,2,1,221,3,1,1,2,0.485718549424359,0.518596217307493
"1422",2,30,2,1,222,2,1,1,3,0.714920727502609,0.686600608802447
"1423",2,23,2,2,223,1,1,0,4,0.441312352661949,0.447974751328556
"1424",2,31,2,1,224,3,2,0,1,0.673858935964375,0.474735378966049
"1425",2,24,2,1,225,3,1,1,2,0.676198479329817,0.689008407531497
"1426",2,19,2,2,226,2,2,1,4,0.61306734051867,0.590083168934101
"1427",2,18,2,1,227,1,1,1,5,0.481972725737098,0.478989068853095
"1428",2,30,2,1,228,1,2,0,4,0.696942112431985,0.756609336061398
"1429",2,36,2,1,229,3,2,0,2,1.21761798182272,1.25344277002059
"1430",2,24,2,2,230,1,2,1,4,0.351249420010153,0.352589086374714
"1431",2,29,2,1,231,1,2,0,4,0.595221923094598,0.611318748272007
"1432",2,30,2,1,232,2,2,0,2,0.673661039478626,0.640991167421828
"1433",2,23,2,2,233,3,1,0,2,0.851352446325734,0.748881686287955
"1434",2,31,2,2,234,3,1,0,1,1.08627434149572,0.97629151636303
"1435",2,24,2,1,235,3,1,1,3,0.73848890737531,0.745070115988635
"1436",2,19,2,1,236,2,1,1,4,0.363545231402675,0.281435759590901
"1437",2,18,2,2,237,3,1,0,2,1.34782685543658,1.37486498605342
"1438",2,30,2,2,238,1,2,1,4,0.366133758492454,0.483037311443243
"1439",2,36,2,1,239,1,1,1,5,0.357674784920111,0.403764879133345
"1440",2,24,2,1,240,1,1,1,4,0.432387966101586,0.434399562374814
"1441",1,21,1,2,1,1,2,1,4,0.511131044948446,0.531028323491356
"1442",1,27,1,1,2,3,2,0,1,1.2946032491484,1.30580434834082
"1443",1,22,1,2,3,1,2,1,4,0.46478565980636,0.467153088726951
"1444",1,24,1,1,4,1,1,1,5,0.465723909610536,0.428475121845287
"1445",1,28,1,2,5,3,1,0,2,1.4165335582955,1.48581907903819
"1446",1,18,1,1,6,3,1,1,2,0.69954031622141,0.643604633655415
"1447",1,30,1,1,7,2,1,1,3,0.474521534368628,0.387322502748871
"1448",1,20,1,2,8,3,1,0,1,0.933837888663129,0.837331261026105
"1449",1,24,1,2,9,2,1,0,3,0.880597084917368,0.935501812753139
"1450",1,30,1,1,10,1,1,1,5,0.445316226361087,0.489689566814466
"1451",1,21,1,2,11,1,2,1,5,0.473364523929757,0.458605670877355
"1452",1,27,1,2,12,2,2,1,4,0.597416961011793,0.655240158642548
"1453",1,22,1,2,13,3,1,0,2,1.44317421457198,1.43557872474569
"1454",1,24,1,2,14,3,1,0,1,1.76789090940301,1.70040538618033
"1455",1,28,1,2,15,2,1,0,2,0.760606527231361,0.781672683158117
"1456",1,18,1,1,16,1,1,1,4,0.342921473771935,0.352726789085545
"1457",1,30,1,1,17,3,1,1,3,1.16097412086524,1.18085127707399
"1458",1,20,1,1,18,3,2,0,1,1.21525600450439,1.2118327223562
"1459",1,24,1,2,19,3,2,1,2,0.994591073015597,0.909679213019991
"1460",1,30,1,1,20,2,1,1,4,0.57409475605304,0.568599905909885
"1461",1,21,1,1,21,2,1,1,3,0.458944619657573,0.465550458807876
"1462",1,27,1,1,22,1,2,0,4,0.644897548186476,0.576436797261806
"1463",1,22,1,1,23,1,1,1,4,0.514799298060145,0.476026425658899
"1464",1,24,1,2,24,3,1,0,2,0.964153634621129,0.926941254416852
"1465",1,28,1,2,25,2,2,1,4,0.589583468212377,0.598819757628063
"1466",1,18,1,2,26,3,1,0,2,1.12237943239978,1.13679465154197
"1467",1,30,1,2,27,2,2,1,3,0.623481667266047,0.675742776102735
"1468",1,20,1,1,28,2,2,0,2,0.978783621803776,0.948476243615369
"1469",1,24,1,1,29,2,1,1,4,0.543836206566741,0.636447439495082
"1470",1,30,1,2,30,3,1,0,1,0.716421687177578,0.709148895295997
"1471",1,21,1,1,31,2,1,1,4,0.612397021979969,0.616544050992558
"1472",1,27,1,1,32,1,1,1,5,0.354857976017558,0.323284171043852
"1473",1,22,1,1,33,3,1,1,3,0.869872811099416,0.932872129959902
"1474",1,24,1,1,34,3,2,0,2,0.728019629951335,0.754722269627724
"1475",1,28,1,1,35,3,2,0,1,1.4877927438297,1.35041566890501
"1476",1,18,1,1,36,1,1,1,5,0.327780721103251,0.347045104948748
"1477",1,30,1,2,37,3,2,1,2,0.634072837193129,0.675651813998854
"1478",1,20,1,2,38,3,2,1,3,0.550976015116222,0.577138821791497
"1479",1,24,1,1,39,2,2,0,3,0.586019548938069,0.461611012864397
"1480",1,30,1,1,40,1,2,0,4,0.483119659141653,0.456711940340567
"1481",1,21,1,2,41,1,1,0,4,0.478721846385571,0.596123269080685
"1482",1,27,1,1,42,1,1,1,4,0.379350924223148,0.358250826668659
"1483",1,22,1,2,43,1,2,1,5,0.497028960388875,0.57985944752853
"1484",1,24,1,1,44,1,1,1,4,0.460780925136986,0.515651579452275
"1485",1,28,1,2,45,1,2,1,4,0.423278132660969,0.440911896938876
"1486",1,18,1,2,46,1,2,1,4,0.395022854518108,0.400466432443847
"1487",1,30,1,2,47,1,1,0,4,0.469305521353502,0.405878685948521
"1488",1,20,1,2,48,1,2,1,4,0.468867690659062,0.531877052832564
"1489",1,24,1,2,49,3,2,1,3,0.996693957283393,0.986366729743638
"1490",1,30,1,2,50,2,1,0,3,0.680875983408453,0.736831237447345
"1491",1,21,1,1,51,1,1,1,5,0.351114082526812,0.288624077075077
"1492",1,27,1,2,52,2,2,1,4,0.658244396673651,0.651148665866024
"1493",1,22,1,1,53,2,1,1,3,0.62657213443398,0.58469589859446
"1494",1,24,1,2,54,3,2,1,2,0.893763330182194,0.931237713539078
"1495",1,28,1,2,55,2,1,0,3,0.563316907817656,0.582987720254843
"1496",1,18,1,2,56,2,2,1,4,0.773690895686286,0.776876506680434
"1497",1,30,1,1,57,2,2,0,3,0.579887759549574,0.650975660636161
"1498",1,20,1,2,58,1,2,1,4,0.427030709052703,0.365078787485985
"1499",1,24,1,2,59,3,2,1,2,0.868004541318908,0.835951086301639
"1500",1,30,1,2,60,1,2,1,5,0.366662477053639,0.428361637981435
"1501",1,21,1,2,61,1,1,0,4,0.577671160566949,0.584666090596017
"1502",1,27,1,2,62,2,1,0,3,0.638592491473913,0.527202064373161
"1503",1,22,1,2,63,2,2,1,4,0.474322869632312,0.449621778329335
"1504",1,24,1,2,64,2,2,1,4,0.645795469320829,0.539504142965262
"1505",1,28,1,2,65,1,1,0,3,0.56790219429595,0.598483208280687
"1506",1,18,1,1,66,2,2,0,2,0.846019267824825,0.876634527040294
"1507",1,30,1,1,67,1,1,1,5,0.459476358385241,0.495802793230611
"1508",1,20,1,2,68,2,2,1,3,0.85883700131707,0.757264462852127
"1509",1,24,1,2,69,3,1,0,2,0.730583566092207,0.703942218341777
"1510",1,30,1,2,70,3,2,1,2,0.430287948091,0.425568879105255
"1511",1,21,1,1,71,3,2,0,2,0.604662713667169,0.590034490844296
"1512",1,27,1,1,72,3,2,0,2,1.58304402895484,1.54022674305177
"1513",1,22,1,2,73,2,1,0,3,0.68872858811325,0.734409318010559
"1514",1,24,1,2,74,1,2,1,5,0.425292512437614,0.399892173620457
"1515",1,28,1,2,75,3,2,1,3,0.618314498721885,0.601025926047092
"1516",1,18,1,2,76,2,1,0,2,0.874250932216962,0.765721554371044
"1517",1,30,1,2,77,2,2,1,4,0.750145761380622,0.756042046762688
"1518",1,20,1,2,78,1,2,1,4,0.343600084382965,0.28451666169695
"1519",1,24,1,2,79,1,2,1,5,0.379390400142429,0.366942685029674
"1520",1,30,1,1,80,1,2,0,3,0.364594872859748,0.327716409102149
"1521",1,21,1,1,81,1,1,1,4,0.459988705512096,0.392248981606605
"1522",1,27,1,2,82,2,2,1,4,0.530955862554663,0.620833307995781
"1523",1,22,1,2,83,1,2,1,5,0.437711613479164,0.430828236087038
"1524",1,24,1,2,84,3,2,1,3,0.758712211329201,0.789419697497941
"1525",1,28,1,1,85,1,1,1,4,0.321291735315582,0.392004112424123
"1526",1,18,1,2,86,2,1,0,2,0.708412750454164,0.720786380517912
"1527",1,30,1,1,87,3,1,1,3,1.20071034954907,1.13314722464384
"1528",1,20,1,2,88,2,2,1,3,0.90345923729137,0.897217799556638
"1529",1,24,1,2,89,2,1,0,2,0.859662602162165,0.880437892619175
"1530",1,30,1,1,90,2,1,1,3,0.396535227897093,0.337659883331438
"1531",1,21,1,1,91,2,1,1,4,0.522181277832133,0.583746289029608
"1532",1,27,1,2,92,1,1,0,4,0.603304059191692,0.595201436187275
"1533",1,22,1,1,93,3,2,0,1,0.830072040362344,0.776303390539697
"1534",1,24,1,1,94,3,2,0,2,1.18709334693784,1.20296918237841
"1535",1,28,1,1,95,1,1,1,4,0.50941955799934,0.508496460565407
"1536",1,18,1,2,96,1,2,1,4,0.477707360798221,0.524911028285974
"1537",1,30,1,2,97,1,2,1,5,0.474141166051955,0.434281166065451
"1538",1,20,1,1,98,2,1,1,3,0.368594829072786,0.396310482354375
"1539",1,24,1,1,99,3,1,1,2,0.762257484555621,0.693781140282345
"1540",1,30,1,2,100,3,1,0,1,0.993247592521547,0.997435045593107
"1541",1,21,1,1,101,2,1,1,3,0.491363073000845,0.432012398032025
"1542",1,27,1,1,102,1,1,1,5,0.347535053823806,0.357083506098468
"1543",1,22,1,2,103,3,2,1,3,0.941422540284413,0.98830530008885
"1544",1,24,1,2,104,1,2,1,5,0.481386472613986,0.426922608032469
"1545",1,28,1,1,105,2,2,0,3,0.353971276761928,0.299206547692424
"1546",1,18,1,2,106,2,1,0,2,0.815947040036428,0.868107300030562
"1547",1,30,1,1,107,2,1,1,3,0.825681296062062,0.840984734978894
"1548",1,20,1,2,108,2,2,1,4,0.505285122619931,0.52699169775444
"1549",1,24,1,2,109,3,2,1,3,0.697269932253011,0.639826269570569
"1550",1,30,1,1,110,2,1,1,4,0.61045203441459,0.638819213213114
"1551",1,21,1,1,111,3,2,0,2,1.34499585016767,1.29920790061392
"1552",1,27,1,1,112,3,2,0,1,0.815928240076352,0.904690153636941
"1553",1,22,1,2,113,1,2,1,5,0.344434545605719,0.371969045670703
"1554",1,24,1,1,114,3,2,0,1,1.04238248680444,1.11467932010645
"1555",1,28,1,1,115,3,1,1,2,0.819202933593275,0.851488076613608
"1556",1,18,1,2,116,1,2,1,4,0.327165980178145,0.202416314498094
"1557",1,30,1,2,117,2,2,1,3,0.57596226689233,0.524408312930556
"1558",1,20,1,1,118,3,2,0,1,1.57783560232018,1.657506500083
"1559",1,24,1,1,119,3,2,0,1,0.88015315221562,0.858153069761743
"1560",1,30,1,2,120,1,2,1,4,0.365711113097599,0.39352654476846
"1561",1,21,1,1,121,2,2,0,2,0.583443225487888,0.637330956042537
"1562",1,27,1,2,122,1,2,1,4,0.499664084699248,0.507862120907243
"1563",1,22,1,2,123,2,1,0,3,0.775604071346679,0.763202970844155
"1564",1,24,1,2,124,1,2,1,4,0.523026308878101,0.541221382282044
"1565",1,28,1,2,125,3,1,0,1,0.986664487899319,1.05877413851634
"1566",1,18,1,1,126,2,2,0,3,0.703073984960076,0.696678090201532
"1567",1,30,1,1,127,3,2,0,2,0.84252365087319,0.753082571044682
"1568",1,20,1,2,128,2,2,1,4,0.461611756331357,0.500312313895762
"1569",1,24,1,2,129,3,2,1,2,0.62522562145086,0.643258210048403
"1570",1,30,1,2,130,3,2,1,3,0.719908029871008,0.682302310348705
"1571",1,21,1,2,131,1,2,1,4,0.500854431402427,0.493129273513929
"1572",1,27,1,2,132,3,1,0,2,0.749402300672071,0.741142071008312
"1573",1,22,1,2,133,3,2,1,3,0.711331758823504,0.737788634779124
"1574",1,24,1,1,134,3,1,1,2,0.735641975139235,0.698367098277632
"1575",1,28,1,2,135,3,1,0,2,0.596705765407635,0.593397148247547
"1576",1,18,1,1,136,3,1,1,3,1.02352127802138,0.983275878976964
"1577",1,30,1,2,137,1,2,1,4,0.530913474897889,0.526002728393363
"1578",1,20,1,2,138,3,2,1,2,0.776301102868618,0.817320951544076
"1579",1,24,1,1,139,1,2,0,4,0.693378332224076,0.648097091365676
"1580",1,30,1,1,140,1,1,1,4,0.461769984693436,0.512705127746822
"1581",1,21,1,1,141,3,2,0,2,0.705337579340268,0.70105222529329
"1582",1,27,1,1,142,1,2,0,3,0.547138409987077,0.497643160819632
"1583",1,22,1,1,143,2,1,1,3,0.385709864814352,0.46869940594714
"1584",1,24,1,1,144,2,2,0,2,0.488116771516539,0.385981344020075
"1585",1,28,1,1,145,1,1,1,4,0.472762864182277,0.417140581499166
"1586",1,18,1,1,146,1,1,1,4,0.294184679496449,0.366437167602331
"1587",1,30,1,1,147,2,1,1,4,0.557029949710978,0.498229584118871
"1588",1,20,1,2,148,3,2,1,3,0.519678270225653,0.575003175929729
"1589",1,24,1,2,149,3,2,1,2,0.683203463612692,0.622149167178659
"1590",1,30,1,2,150,1,2,1,4,0.393187585023974,0.264116825661306
"1591",1,21,1,1,151,1,1,1,4,0.527362686669648,0.437000316581872
"1592",1,27,1,2,152,1,2,1,4,0.311476496192469,0.299551387430514
"1593",1,22,1,1,153,3,2,0,2,1.25934940779481,1.25171696298366
"1594",1,24,1,1,154,1,1,1,5,0.386593110456272,0.355883925967361
"1595",1,28,1,2,155,3,2,1,3,0.854466171439643,0.832467677160963
"1596",1,18,1,1,156,1,1,1,4,0.541348982521919,0.522912087045735
"1597",1,30,1,2,157,2,1,0,3,0.832500873223576,0.824153786733136
"1598",1,20,1,1,158,1,1,1,4,0.519131929269692,0.539943238778994
"1599",1,24,1,2,159,2,2,1,3,0.53545459929517,0.550461033319781
"1600",1,30,1,1,160,2,1,1,4,0.388339573998029,0.443213345962109
"1601",1,21,1,2,161,1,2,1,4,0.444793951280989,0.399140715161771
