"","subj_no","age","group","stim","trial","difficulty","resp","corr","conf","RT_day1","RT_day2"
"1",8,25,2,2,1,1,2,1,5,0.447355194779502,0.435185673387758
"2",8,29,2,1,2,2,1,1,3,0.501894175351073,0.516238061816859
"3",8,36,2,1,3,3,1,1,2,0.647452861696636,0.592442105440995
"4",8,24,2,2,4,1,2,1,5,0.379689013232585,0.36635424851274
"5",8,26,2,1,5,2,1,1,4,0.440398841701087,0.516735792021698
"6",8,24,2,1,6,3,2,0,1,0.507858144242385,0.569484687806798
"7",8,18,2,2,7,2,2,1,4,0.586282917925728,0.621139702024015
"8",8,29,2,2,8,2,2,1,4,0.59791173191676,0.54861238283483
"9",8,26,2,1,9,3,2,0,1,0.925466239206447,0.963302096655656
"10",8,40,2,1,10,3,2,0,1,1.90348341894872,1.90968663720606
"11",8,25,2,1,11,2,2,0,2,0.440279385266187,0.501279546194949
"12",8,29,2,2,12,1,1,0,3,0.606427428726431,0.633454634996147
"13",8,36,2,2,13,2,1,0,2,0.940016981057062,0.924244400451584
"14",8,24,2,1,14,3,2,0,1,1.15845609091502,1.13242203392792
"15",8,26,2,2,15,2,1,0,3,0.728771160439023,0.729343612528954
"16",8,24,2,2,16,2,2,1,4,0.505526127079105,0.495635933903531
"17",8,18,2,2,17,1,2,1,4,0.609194504873378,0.585629961849806
"18",8,29,2,2,18,1,2,1,5,0.389464256162636,0.317284592535981
"19",8,26,2,1,19,3,1,1,3,0.634386775805567,0.654542191424583
"20",8,40,2,2,20,1,2,1,5,0.343922586603336,0.373628665247031
"21",8,25,2,1,21,2,1,1,3,0.531271404261042,0.569478368945902
"22",8,29,2,1,22,2,1,1,3,0.515391163812925,0.516532722371175
"23",8,36,2,2,23,3,2,1,2,0.501261315554868,0.50192544083842
"24",8,24,2,2,24,2,2,1,4,0.585983792493868,0.562715503002204
"25",8,26,2,1,25,3,2,0,1,0.591302884358714,0.616603486543898
"26",8,24,2,1,26,2,2,0,2,0.697668585656101,0.749526605286621
"27",8,18,2,1,27,2,2,0,2,1.01819048161914,0.977482109187783
"28",8,29,2,2,28,3,2,1,2,0.914271410659162,0.83729513290107
"29",8,26,2,1,29,3,2,0,1,0.404019724221067,0.459647999336913
"30",8,40,2,2,30,1,2,1,5,0.356099707289722,0.305452590889567
"31",8,25,2,1,31,2,1,1,4,0.392575217700998,0.370823748098441
"32",8,29,2,2,32,2,2,1,3,0.663137368569141,0.595109020997462
"33",8,36,2,2,33,2,2,1,3,0.625780471045837,0.714882184041426
"34",8,24,2,2,34,1,2,1,4,0.370000890378865,0.329936558432351
"35",8,26,2,1,35,3,1,1,2,0.560253732991497,0.681132782776033
"36",8,24,2,1,36,2,2,0,3,0.778216558124218,0.789820901517849
"37",8,18,2,2,37,3,2,1,3,0.618315022314984,0.676800525366936
"38",8,29,2,1,38,1,1,1,4,0.420333110416713,0.397124556174992
"39",8,26,2,1,39,3,2,0,1,1.37346336545174,1.44286433845982
"40",8,40,2,1,40,1,1,1,4,0.467367553689032,0.506693444097519
"41",8,25,2,1,41,1,1,1,5,0.375926858541547,0.408484300444797
"42",8,29,2,2,42,2,1,0,2,0.931230260225897,0.904361560249584
"43",8,36,2,1,43,2,1,1,3,0.645828099792656,0.646435068072739
"44",8,24,2,2,44,3,2,1,3,0.83556495791918,0.916692926319606
"45",8,26,2,1,45,3,2,0,2,1.23330952003239,1.20438488153527
"46",8,24,2,2,46,2,2,1,4,0.793621487007659,0.716172107517705
"47",8,18,2,1,47,1,1,1,5,0.538220212945384,0.595341866538349
"48",8,29,2,1,48,2,1,1,4,0.652948935351025,0.660017202516517
"49",8,26,2,1,49,2,2,0,3,0.577754105596341,0.549182374910527
"50",8,40,2,1,50,2,1,1,3,0.662617792328292,0.683699714993023
"51",8,25,2,2,51,1,2,1,5,0.537981488509203,0.533207561012038
"52",8,29,2,2,52,1,2,1,5,0.417672991010284,0.438920264691193
"53",8,36,2,1,53,3,2,0,2,1.72443428044018,1.7677133229947
"54",8,24,2,2,54,1,2,1,5,0.341813683850917,0.357291610616741
"55",8,26,2,2,55,2,1,0,3,0.561714867482602,0.512762847227437
"56",8,24,2,1,56,2,1,1,3,0.613266042360486,0.540178250490268
"57",8,18,2,1,57,3,2,0,1,0.940270815884429,1.02240999721771
"58",8,29,2,1,58,2,1,1,3,0.626635398847689,0.644564911138921
"59",8,26,2,2,59,1,1,0,3,0.438802112489629,0.407328381789253
"60",8,40,2,1,60,2,1,1,3,0.475939806738888,0.5089102571859
"61",8,25,2,2,61,2,1,0,2,0.745232839267564,0.770086094417666
"62",8,29,2,2,62,2,2,1,3,0.477791066070191,0.494921650810822
"63",8,36,2,1,63,3,1,1,3,1.14362683625875,1.11529035299409
"64",8,24,2,1,64,3,1,1,3,0.502394023750084,0.546437420372125
"65",8,26,2,2,65,2,1,0,3,0.668902154524443,0.657183344844729
"66",8,24,2,1,66,3,1,1,2,0.813767838472413,0.773963163562223
"67",8,18,2,2,67,2,2,1,3,0.490908454812801,0.452311344176246
"68",8,29,2,2,68,1,1,0,3,0.544736154736409,0.715964230443846
"69",8,26,2,1,69,3,1,1,2,0.677158445124841,0.676195760127592
"70",8,40,2,1,70,2,1,1,4,0.709374420607403,0.818011174804222
"71",8,25,2,2,71,3,1,0,2,1.3301435073135,1.38847035126371
"72",8,29,2,1,72,1,1,1,4,0.506180139815885,0.536246552633793
"73",8,36,2,1,73,3,2,0,2,1.97960907189574,1.99394748599309
"74",8,24,2,2,74,3,2,1,3,0.825169436477175,0.74101155037829
"75",8,26,2,2,75,1,2,1,4,0.588609329923316,0.606936558671978
"76",8,24,2,1,76,3,1,1,2,0.709057722076699,0.70255148475462
"77",8,18,2,1,77,3,2,0,2,1.22170140714539,1.16935524331636
"78",8,29,2,2,78,3,1,0,1,0.907762354232288,0.95869229558043
"79",8,26,2,1,79,3,2,0,1,0.282113766633115,0.240344862749923
"80",8,40,2,2,80,1,2,1,4,0.468504582113313,0.445847751261371
"81",8,25,2,2,81,3,2,1,3,0.834278921942316,0.815154107830798
"82",8,29,2,2,82,1,1,0,4,0.461626227542265,0.48143477771817
"83",8,36,2,2,83,3,1,0,1,1.29242293962277,1.34585532767705
"84",8,24,2,2,84,1,1,0,3,0.509122407319641,0.521160712398566
"85",8,26,2,1,85,3,1,1,3,0.893970410229266,0.989391721241342
"86",8,24,2,2,86,2,2,1,3,0.616920604521232,0.641896111171976
"87",8,18,2,2,87,2,2,1,3,0.503102296855253,0.55321834228968
"88",8,29,2,2,88,3,1,0,2,0.458857111277517,0.45876244097127
"89",8,26,2,1,89,2,2,0,2,0.49311288016718,0.488690576125992
"90",8,40,2,1,90,3,2,0,2,0.500256954113519,0.48772183341016
"91",8,25,2,1,91,1,1,1,5,0.401089082858463,0.382067144866102
"92",8,29,2,1,92,1,1,1,5,0.43565686757108,0.442679778842227
"93",8,36,2,2,93,1,2,1,5,0.355273785584596,0.400623034037569
"94",8,24,2,1,94,3,2,0,1,1.01424639867563,0.999312981883384
"95",8,26,2,1,95,2,1,1,4,0.59414771269608,0.567317814810201
"96",8,24,2,1,96,1,1,1,4,0.459464116397264,0.499451758124037
"97",8,18,2,2,97,3,2,1,2,0.82701209743223,0.86185283489994
"98",8,29,2,2,98,1,2,1,4,0.4328353025597,0.311304593619222
"99",8,26,2,2,99,1,2,1,5,0.442978319583477,0.328655507659121
"100",8,40,2,1,100,1,1,1,5,0.400902101677776,0.431826775490472
"101",8,25,2,2,101,2,2,1,4,0.597817572440092,0.633631168558085
"102",8,29,2,2,102,2,2,1,4,0.53294080474654,0.548455447333106
"103",8,36,2,2,103,2,2,1,4,0.529446958373694,0.544284551838894
"104",8,24,2,2,104,3,1,0,2,1.5132675889515,1.38133741361564
"105",8,26,2,2,105,1,2,1,4,0.365147543180565,0.401314259673055
"106",8,24,2,2,106,3,1,0,1,1.35330739389971,1.39177303367817
"107",8,18,2,1,107,3,1,1,2,1.16115892065534,1.12829813638141
"108",8,29,2,1,108,1,1,1,5,0.256090698852642,0.356669234437719
"109",8,26,2,1,109,2,2,0,2,0.756362607780273,0.709991880822487
"110",8,40,2,1,110,1,1,1,4,0.412619210013442,0.401265410688075
"111",8,25,2,2,111,3,2,1,3,0.971267672761889,0.923833197811246
"112",8,29,2,1,112,1,1,1,4,0.46836413482391,0.485082172881049
"113",8,36,2,2,113,2,2,1,3,0.359288041558526,0.403652303879073
"114",8,24,2,1,114,2,2,0,3,0.555571497294243,0.589298266544882
"115",8,26,2,1,115,2,1,1,4,0.543177639934075,0.588460879734583
"116",8,24,2,2,116,2,2,1,4,0.638066180369477,0.632988882495356
"117",8,18,2,1,117,1,2,0,3,0.497506037598912,0.432552699954712
"118",8,29,2,1,118,3,1,1,2,0.87991562039797,0.92515534693274
"119",8,26,2,2,119,3,2,1,2,0.874181782921385,0.831507969735616
"120",8,40,2,1,120,1,1,1,5,0.31570163790316,0.168116344813977
"121",8,25,2,1,121,1,1,1,4,0.394022411448637,0.400591506492161
"122",8,29,2,2,122,3,1,0,2,1.17392461834834,1.27096286299174
"123",8,36,2,2,123,1,2,1,5,0.523534560382486,0.547167756403458
"124",8,24,2,2,124,2,2,1,4,0.86091730371759,0.930073663752056
"125",8,26,2,1,125,1,1,1,5,0.411068815572306,0.419782912587058
"126",8,24,2,1,126,3,2,0,1,0.887802504376871,0.886481043942604
"127",8,18,2,2,127,3,2,1,3,1.02433981807411,1.08018493951372
"128",8,29,2,2,128,1,2,1,5,0.475778060765422,0.562998155228529
"129",8,26,2,2,129,1,2,1,4,0.347368094439281,0.317357595392851
"130",8,40,2,2,130,1,2,1,4,0.287065759343853,0.295975111896649
"131",8,25,2,2,131,3,2,1,2,0.895962084965728,0.938338480403261
"132",8,29,2,2,132,1,2,1,4,0.354112656052486,0.363234661445691
"133",8,36,2,2,133,2,2,1,4,0.70030157364186,0.75454848877776
"134",8,24,2,2,134,2,2,1,3,0.605933624120547,0.590104993251656
"135",8,26,2,2,135,2,2,1,4,0.302651889480622,0.325030773295859
"136",8,24,2,2,136,1,2,1,4,0.34781450732564,0.330988503268593
"137",8,18,2,2,137,1,2,1,4,0.514399829560869,0.42485385084177
"138",8,29,2,1,138,1,1,1,5,0.344054852683698,0.281979895189459
"139",8,26,2,1,139,1,1,1,4,0.430323792696465,0.553643420027153
"140",8,40,2,2,140,1,2,1,4,0.24585815505533,0.28401203313301
"141",8,25,2,2,141,3,2,1,3,1.02230704438542,0.9652435558593
"142",8,29,2,1,142,2,1,1,3,0.503081495025328,0.55273369142125
"143",8,36,2,2,143,1,2,1,4,0.426939213641537,0.368730548093955
"144",8,24,2,1,144,1,2,0,3,0.550970083133601,0.498100568783377
"145",8,26,2,2,145,2,1,0,2,0.778759023486518,0.731357822138392
"146",8,24,2,1,146,3,1,1,2,0.948321740069682,1.00707855864207
"147",8,18,2,1,147,2,1,1,3,0.631777080961858,0.77019084529959
"148",8,29,2,2,148,1,1,0,4,0.569959569417338,0.590373550446681
"149",8,26,2,2,149,1,2,1,5,0.357874567308009,0.401679770823211
"150",8,40,2,1,150,3,2,0,2,0.652871271783723,0.709031017862734
"151",8,25,2,1,151,3,1,1,2,0.887189943111652,0.921650168076909
"152",8,29,2,1,152,1,1,1,5,0.378930293629456,0.288081551508042
"153",8,36,2,2,153,1,2,1,4,0.358849520361469,0.383008420467066
"154",8,24,2,1,154,1,1,1,5,0.280694341849357,0.262692403226558
"155",8,26,2,1,155,3,1,1,2,0.403951765400643,0.509558823571452
"156",8,24,2,1,156,2,1,1,4,0.552467883964853,0.581720305847251
"157",8,18,2,1,157,1,1,1,4,0.503838043382249,0.589007776995276
"158",8,29,2,1,158,2,1,1,4,0.600187445909798,0.582608426554717
"159",8,26,2,2,159,2,1,0,3,0.747928385422762,0.794444248795817
"160",8,40,2,2,160,1,1,0,4,0.751403105753448,0.771222384018085
"161",8,25,2,2,161,2,1,0,3,0.588318368857612,0.596560737163674
"162",8,29,2,1,162,1,1,1,4,0.351857134361,0.282991426968115
"163",8,36,2,2,163,2,1,0,3,0.826553722772596,0.842398269416401
"164",8,24,2,1,164,3,2,0,2,0.703875453200761,0.710478527309166
"165",8,26,2,2,165,1,2,1,4,0.458629480525408,0.466056256109116
"166",8,24,2,2,166,3,1,0,2,0.960480332525888,0.957390342027986
"167",8,18,2,1,167,3,2,0,1,1.28472746649312,1.25933094783912
"168",8,29,2,1,168,2,2,0,3,1.03623817707491,1.0718262864028
"169",8,26,2,1,169,2,1,1,4,0.593149032163002,0.50690224915934
"170",8,40,2,1,170,1,2,0,4,0.390339307746261,0.411736773220502
"171",8,25,2,2,171,3,2,1,3,1.04545730994697,0.943774276875753
"172",8,29,2,1,172,1,1,1,4,0.464869867524482,0.410193376568058
"173",8,36,2,2,173,2,1,0,3,0.703857723416131,0.773571321717561
"174",8,24,2,2,174,2,2,1,3,0.593533706651842,0.685640378448827
"175",8,26,2,1,175,1,2,0,4,0.623774967129582,0.689882954911253
"176",8,24,2,2,176,3,2,1,3,0.737379619705466,0.741862412896906
"177",8,18,2,1,177,3,1,1,3,0.901190757952735,0.896443442203246
"178",8,29,2,1,178,2,2,0,3,0.796517349116661,0.76736538565063
"179",8,26,2,1,179,1,1,1,5,0.360764788799683,0.401787525464603
"180",8,40,2,1,180,2,1,1,4,0.646336100387512,0.738331867707778
"181",8,25,2,1,181,2,2,0,3,0.76626481341667,0.756142075254816
"182",8,29,2,2,182,3,2,1,3,0.452443419502724,0.397304338044458
"183",8,36,2,1,183,3,2,0,1,0.829503378246545,0.847642030429694
"184",8,24,2,1,184,2,1,1,3,0.726423660073513,0.743379452664702
"185",8,26,2,1,185,1,1,1,5,0.380291936211686,0.444922963493648
"186",8,24,2,1,186,2,1,1,3,0.536559477647242,0.474633825717097
"187",8,18,2,1,187,2,2,0,3,0.741078838657062,0.710424009004013
"188",8,29,2,2,188,2,2,1,4,0.698992269052947,0.633704801752729
"189",8,26,2,2,189,3,1,0,2,1.09209211696707,1.01295618323555
"190",8,40,2,1,190,1,1,1,5,0.373334204823981,0.488108882586822
"191",8,25,2,2,191,3,2,1,3,0.910860539305415,0.887590201943453
"192",8,29,2,1,192,2,2,0,3,0.584202660013638,0.572847394307756
"193",8,36,2,1,193,2,2,0,3,0.815872487021943,0.838893448390328
"194",8,24,2,2,194,3,1,0,1,0.922270863242305,0.931206048448566
"195",8,26,2,2,195,3,2,1,3,0.89945450214336,0.831198749629082
"196",8,24,2,1,196,1,2,0,3,0.583738659076814,0.670310179468915
"197",8,18,2,2,197,1,2,1,4,0.457734033136205,0.468394448601428
"198",8,29,2,2,198,2,2,1,4,0.241765441474859,0.368911756060693
"199",8,26,2,2,199,1,2,1,5,0.253145003344356,0.255130458849931
"200",8,40,2,1,200,3,1,1,2,0.95894313498766,0.922782458801335
"201",8,25,2,1,201,1,1,1,5,0.262651284205141,0.304026052098582
"202",8,29,2,1,202,1,2,0,4,0.584684035312062,0.579890622298879
"203",8,36,2,1,203,3,2,0,1,0.749017606611517,0.836206082759988
"204",8,24,2,2,204,3,1,0,1,0.908956853968664,0.888703279702688
"205",8,26,2,1,205,3,2,0,1,1.39303355243112,1.44470510011941
"206",8,24,2,1,206,2,1,1,3,0.434174862026252,0.505845800784392
"207",8,18,2,2,207,1,2,1,4,0.4264980020802,0.348494221829439
"208",8,29,2,1,208,3,2,0,1,0.90947100472802,0.922368326046569
"209",8,26,2,2,209,3,2,1,3,0.889718272686289,0.896463269155504
"210",8,40,2,1,210,1,1,1,4,0.496054449349722,0.617353617860125
"211",8,25,2,2,211,1,2,1,5,0.489153105423598,0.488718828550249
"212",8,29,2,2,212,1,2,1,5,0.44367119947944,0.364817574924628
"213",8,36,2,2,213,2,2,1,4,0.646847203008385,0.701295594412305
"214",8,24,2,1,214,1,1,1,5,0.310344862165222,0.327772087008449
"215",8,26,2,1,215,1,1,1,5,0.350085749160311,0.334046159754821
"216",8,24,2,2,216,2,2,1,4,0.688788572894213,0.753663917563623
"217",8,18,2,2,217,3,1,0,1,0.831883791819577,0.808211692163294
"218",8,29,2,2,218,1,2,1,4,0.370232265475411,0.394194067957408
"219",8,26,2,2,219,1,2,1,5,0.44597139465753,0.456172949523269
"220",8,40,2,1,220,3,1,1,2,0.754884870583915,0.691100857237437
"221",8,25,2,1,221,3,2,0,1,0.830134013725719,0.764657545579487
"222",8,29,2,2,222,3,2,1,3,0.792882722055749,0.817524777278109
"223",8,36,2,2,223,2,1,0,2,0.782709486272879,0.85030447082542
"224",8,24,2,1,224,3,2,0,2,0.804243582173378,0.792082525188879
"225",8,26,2,2,225,3,2,1,2,0.648750525323384,0.543744354763841
"226",8,24,2,2,226,3,1,0,2,1.02080584395785,1.0524776701755
"227",8,18,2,2,227,3,1,0,1,1.08794619077527,1.09570021355003
"228",8,29,2,2,228,3,2,1,2,0.883074155591711,0.930873681638643
"229",8,26,2,1,229,1,1,1,4,0.267201373863107,0.238718760352165
"230",8,40,2,2,230,1,2,1,4,0.517153923700359,0.51766754664645
"231",8,25,2,1,231,3,2,0,1,0.455068172775007,0.470378214230881
"232",8,29,2,2,232,3,1,0,2,1.28697939764584,1.34480042068096
"233",8,36,2,2,233,2,1,0,3,0.519746987257192,0.50238489932429
"234",8,24,2,2,234,3,2,1,3,1.17362731134724,1.1694813280487
"235",8,26,2,2,235,2,1,0,2,0.748763001107284,0.830237840534248
"236",8,24,2,2,236,2,2,1,4,0.474182219402259,0.484105342483068
"237",8,18,2,1,237,2,1,1,3,0.606255362385484,0.590805057534723
"238",8,29,2,1,238,1,1,1,5,0.398876476460736,0.322088872390726
"239",8,26,2,1,239,2,2,0,3,0.618727004670933,0.612732827109044
"240",8,40,2,1,240,2,1,1,3,0.699108663874083,0.742009985071085
"241",7,25,1,2,1,1,1,0,3,0.674650458103023,0.645068596139425
"242",7,21,1,2,2,2,1,0,3,0.916274799446267,0.762510583941606
"243",7,22,1,1,3,3,2,0,2,0.0624557059715228,-0.00741029133811043
"244",7,38,1,2,4,3,2,1,2,0.689730641844946,0.699724898262371
"245",7,22,1,1,5,2,1,1,3,0.464209125582957,0.445170750878776
"246",7,20,1,1,6,1,1,1,5,0.284664030004402,0.399888287507002
"247",7,30,1,1,7,3,1,1,2,0.855944494282443,0.851111562023323
"248",7,23,1,1,8,1,2,0,3,0.623112658175899,0.635993464306322
"249",7,34,1,1,9,3,2,0,1,1.14308313534451,1.15046806903497
"250",7,38,1,1,10,2,2,0,3,0.86749416466,0.852645712306647
"251",7,25,1,1,11,2,2,0,2,0.784130290381065,0.766092042588847
"252",7,21,1,2,12,1,2,1,5,0.261133739594462,0.223997629025206
"253",7,22,1,2,13,2,2,1,3,0.439994888125023,0.482015531023103
"254",7,38,1,1,14,2,1,1,4,0.399728115725416,0.362835930838332
"255",7,22,1,2,15,1,2,1,5,0.396950046806984,0.485116607496365
"256",7,20,1,2,16,3,2,1,2,0.554418679354026,0.573238304822605
"257",7,30,1,1,17,1,1,1,4,0.424498106377637,0.281304700998199
"258",7,23,1,2,18,1,2,1,5,0.32034541763552,0.294030489004784
"259",7,34,1,2,19,1,2,1,4,0.333367760246219,0.207806385997952
"260",7,38,1,1,20,1,1,1,5,0.481830844069339,0.483921132072852
"261",7,25,1,1,21,2,1,1,3,0.771287089795918,0.760823947094857
"262",7,21,1,1,22,3,2,0,1,0.761564456725552,0.764697158849615
"263",7,22,1,2,23,3,2,1,2,0.653426120457971,0.684967240510888
"264",7,38,1,2,24,3,1,0,2,0.995083498678059,0.948393101092202
"265",7,22,1,2,25,3,2,1,2,0.818692823341687,0.758047216163279
"266",7,20,1,2,26,2,1,0,3,0.946919376458828,0.968258578764756
"267",7,30,1,1,27,1,2,0,4,0.448100321256458,0.431713238174332
"268",7,23,1,2,28,2,1,0,2,0.611252780776858,0.573302622106388
"269",7,34,1,1,29,1,1,1,5,0.327166064690082,0.254607772167632
"270",7,38,1,2,30,3,1,0,2,0.243958212888956,0.303219396348172
"271",7,25,1,2,31,1,2,1,4,0.378579470468459,0.358525156421181
"272",7,21,1,1,32,1,1,1,4,0.390083328825271,0.426070319315555
"273",7,22,1,2,33,2,2,1,3,0.556220715301603,0.640741495496265
"274",7,38,1,2,34,3,1,0,2,1.35495043382481,1.47701139698025
"275",7,22,1,1,35,2,1,1,3,0.420013607935369,0.321696742404489
"276",7,20,1,2,36,1,1,0,4,0.559307967802981,0.626073536919545
"277",7,30,1,1,37,2,2,0,2,0.79898868351116,0.757655541994363
"278",7,23,1,2,38,1,1,0,4,0.665733269855283,0.711233055559598
"279",7,34,1,2,39,1,1,0,4,0.464949646187919,0.511579456205086
"280",7,38,1,2,40,1,2,1,4,0.301217628090768,0.286323196904582
"281",7,25,1,2,41,3,2,1,3,0.481867424188238,0.467033502520218
"282",7,21,1,1,42,3,1,1,3,0.631571680126034,0.667636760880477
"283",7,22,1,2,43,1,1,0,3,0.581588000297861,0.537150614828939
"284",7,38,1,2,44,1,1,0,4,0.6781934354922,0.649792231760399
"285",7,22,1,2,45,1,2,1,5,0.466136158759821,0.533989026349033
"286",7,20,1,1,46,2,1,1,3,0.680896128570058,0.633062675326708
"287",7,30,1,2,47,3,2,1,3,1.13031920384238,1.16168218938566
"288",7,23,1,2,48,3,1,0,1,0.331632073766928,0.359002654657561
"289",7,34,1,2,49,3,1,0,2,0.802556986214027,0.762135082690003
"290",7,38,1,1,50,2,1,1,4,0.732660904280798,0.794137594934271
"291",7,25,1,2,51,2,2,1,3,0.569815442830982,0.550745673064276
"292",7,21,1,2,52,1,2,1,4,0.447117046895566,0.404497429402499
"293",7,22,1,1,53,2,2,0,3,0.766982496920935,0.837193198018442
"294",7,38,1,2,54,3,2,1,2,0.635359375758455,0.695615815096305
"295",7,22,1,2,55,1,1,0,3,0.5222231689731,0.504881067620147
"296",7,20,1,1,56,1,1,1,4,0.405552329986564,0.42934549887652
"297",7,30,1,2,57,1,2,1,5,0.362950215378816,0.33745166649269
"298",7,23,1,2,58,2,1,0,3,0.600840597358612,0.664484807555078
"299",7,34,1,2,59,2,2,1,3,0.669780585134789,0.667577413411896
"300",7,38,1,1,60,2,2,0,2,0.650495944117157,0.683135782390837
"301",7,25,1,2,61,2,2,1,3,0.47065187066312,0.433070785437801
"302",7,21,1,1,62,1,2,0,3,0.602755315886537,0.598279067256206
"303",7,22,1,2,63,2,1,0,2,0.644218599078207,0.607003412426859
"304",7,38,1,1,64,3,1,1,3,0.724633118956832,0.710457835120469
"305",7,22,1,1,65,2,2,0,2,0.726527818921799,0.715465331357481
"306",7,20,1,1,66,1,1,1,4,0.487249548960601,0.483323714111301
"307",7,30,1,1,67,3,1,1,2,0.441027905685045,0.518543417219971
"308",7,23,1,2,68,3,2,1,2,0.728108957129379,0.755090696081553
"309",7,34,1,1,69,1,1,1,5,0.338055373199081,0.314039164463541
"310",7,38,1,2,70,1,2,1,5,0.413247615307163,0.451445118763215
"311",7,25,1,1,71,1,1,1,5,0.310339913637503,0.225809461676489
"312",7,21,1,1,72,3,2,0,1,1.17430250186025,1.19941226493685
"313",7,22,1,2,73,1,2,1,4,0.536911185675625,0.608273442181405
"314",7,38,1,2,74,2,2,1,3,0.578497278461932,0.584708484273798
"315",7,22,1,2,75,2,2,1,3,0.571440921123179,0.535818601798256
"316",7,20,1,1,76,1,1,1,4,0.43119413492136,0.404848241050777
"317",7,30,1,2,77,2,1,0,2,0.656133979858573,0.694013131352183
"318",7,23,1,1,78,1,1,1,4,0.334798425430192,0.343890974103865
"319",7,34,1,2,79,3,2,1,2,0.776770976406359,0.813890139439292
"320",7,38,1,1,80,2,1,1,3,0.751048551153987,0.823546379757735
"321",7,25,1,1,81,2,2,0,3,0.474077967869436,0.466377610495686
"322",7,21,1,2,82,1,2,1,4,0.242436821229565,0.312245747678687
"323",7,22,1,1,83,1,1,1,5,0.533781239265837,0.567819083725817
"324",7,38,1,2,84,1,2,1,5,0.325067415906203,0.379165573789141
"325",7,22,1,1,85,1,1,1,5,0.316063226797277,0.361469154190755
"326",7,20,1,2,86,2,1,0,2,1.04530508646229,1.16748199617339
"327",7,30,1,2,87,2,2,1,4,0.4382726225257,0.463587726256194
"328",7,23,1,1,88,3,1,1,2,0.572627658837634,0.529383015675468
"329",7,34,1,2,89,3,2,1,3,0.681595673025845,0.698992546243298
"330",7,38,1,1,90,1,1,1,5,0.354415418799224,0.407490601360792
"331",7,25,1,2,91,2,1,0,2,0.812400831537665,0.857265903060796
"332",7,21,1,1,92,3,1,1,3,0.686359427792364,0.656207430030201
"333",7,22,1,2,93,3,1,0,2,0.15170333985423,0.0918797922070946
"334",7,38,1,1,94,1,2,0,4,0.575504864012776,0.563910705710836
"335",7,22,1,2,95,1,2,1,5,0.289951030107781,0.223322985056512
"336",7,20,1,2,96,3,2,1,3,0.833300312935575,0.80028901912214
"337",7,30,1,2,97,2,2,1,3,0.439216167791632,0.433600168874637
"338",7,23,1,1,98,3,1,1,3,0.742685288965402,0.697032258391113
"339",7,34,1,2,99,2,1,0,3,0.732121887935091,0.718727772479267
"340",7,38,1,2,100,1,2,1,4,0.345714503398856,0.39193141320494
"341",7,25,1,1,101,1,2,0,3,0.305866668374236,0.423957481299695
"342",7,21,1,1,102,3,1,1,3,0.628992525535681,0.650524838863734
"343",7,22,1,1,103,3,1,1,2,1.160340144804,1.09997542263886
"344",7,38,1,1,104,2,1,1,4,0.577618402370791,0.642109303869155
"345",7,22,1,2,105,3,1,0,1,0.825178938947426,0.875616147760141
"346",7,20,1,2,106,3,2,1,3,0.881115966030917,0.845333557283028
"347",7,30,1,1,107,3,2,0,1,1.1576975838784,1.13114766532604
"348",7,23,1,1,108,1,1,1,5,0.213289473179679,0.165985420474523
"349",7,34,1,1,109,2,2,0,2,0.804785811677614,0.722917503944125
"350",7,38,1,1,110,3,1,1,2,0.814613937065962,0.786195879768899
"351",7,25,1,1,111,1,1,1,4,0.507021624897344,0.41635280219521
"352",7,21,1,2,112,2,2,1,3,0.719321259817653,0.63230933980253
"353",7,22,1,2,113,3,2,1,2,0.644755431008049,0.630709070677889
"354",7,38,1,1,114,2,2,0,3,0.31536716050409,0.324505600749596
"355",7,22,1,1,115,1,1,1,4,0.299399410170708,0.328279912438657
"356",7,20,1,1,116,2,1,1,4,0.7346051131986,0.807934338591005
"357",7,30,1,1,117,3,2,0,2,0.612609622122194,0.622538974912277
"358",7,23,1,2,118,2,2,1,3,0.735338664340817,0.718134372700205
"359",7,34,1,1,119,2,1,1,3,0.839752251022365,0.95452948507065
"360",7,38,1,1,120,3,1,1,2,0.8560930270758,0.738931762369834
"361",7,25,1,1,121,3,2,0,2,1.33874226884531,1.32337606568881
"362",7,21,1,1,122,1,2,0,3,0.651064628292485,0.609407149692492
"363",7,22,1,1,123,2,1,1,4,0.388180027359731,0.390690546492851
"364",7,38,1,2,124,3,1,0,1,1.15764177067523,1.12960856048511
"365",7,22,1,1,125,2,1,1,4,0.629401029627519,0.643900379121075
"366",7,20,1,2,126,1,2,1,5,0.477276504407721,0.597715297052618
"367",7,30,1,1,127,1,2,0,3,0.546351936927193,0.592551476030684
"368",7,23,1,1,128,2,1,1,3,0.364785447897512,0.330779134597521
"369",7,34,1,1,129,1,1,1,4,0.454245692988195,0.400541582284736
"370",7,38,1,2,130,2,2,1,3,0.374936684750078,0.321493738176158
"371",7,25,1,2,131,2,2,1,4,0.739834532501929,0.819473623182179
"372",7,21,1,2,132,1,2,1,5,0.380024009707388,0.421852513075666
"373",7,22,1,2,133,3,1,0,1,1.38214467825374,1.44793396773953
"374",7,38,1,2,134,3,1,0,1,1.07047526756401,1.08857506912023
"375",7,22,1,1,135,3,1,1,3,0.512800764313409,0.572766371574754
"376",7,20,1,2,136,2,2,1,4,0.696111386875759,0.685928094326058
"377",7,30,1,1,137,1,1,1,5,0.48968271412239,0.486219088404638
"378",7,23,1,1,138,3,2,0,2,0.987144930095319,0.95248977787121
"379",7,34,1,2,139,3,2,1,2,1.20573078853536,1.09563593479239
"380",7,38,1,1,140,2,2,0,2,0.826040031199273,0.837593444302384
"381",7,25,1,1,141,2,2,0,2,0.748471891108322,0.875313417698756
"382",7,21,1,1,142,3,1,1,2,0.923124806547839,0.959469239929275
"383",7,22,1,2,143,2,1,0,2,0.731387101104778,0.665140293504617
"384",7,38,1,1,144,2,2,0,3,0.83001738672561,0.864388145219854
"385",7,22,1,2,145,2,1,0,2,0.917892124785743,0.999287460687053
"386",7,20,1,1,146,1,1,1,5,0.342805812726156,0.308802923187508
"387",7,30,1,2,147,3,2,1,2,0.553106343996507,0.505324031866102
"388",7,23,1,2,148,1,2,1,4,0.397798761396958,0.421412069601875
"389",7,34,1,1,149,1,1,1,4,0.467532372394586,0.500400382622096
"390",7,38,1,1,150,1,1,1,5,0.458992494007152,0.364332474452517
"391",7,25,1,1,151,2,2,0,2,0.775673436526688,0.822787783162154
"392",7,21,1,1,152,3,1,1,3,0.777694705932389,0.79286991898705
"393",7,22,1,2,153,2,2,1,3,0.672721930905124,0.615258306912913
"394",7,38,1,2,154,1,2,1,4,0.585794896980498,0.644977184263603
"395",7,22,1,1,155,1,1,1,4,0.310507343858544,0.32525691857018
"396",7,20,1,1,156,2,2,0,3,0.936188199598686,0.869546918030806
"397",7,30,1,2,157,3,2,1,3,0.551684646815696,0.488448094328052
"398",7,23,1,1,158,2,1,1,3,0.44122143251311,0.366217265176581
"399",7,34,1,2,159,3,2,1,2,0.819517765144173,0.789758172286399
"400",7,38,1,2,160,2,2,1,4,0.523331346602372,0.542181303774069
"401",7,25,1,2,161,3,1,0,2,0.900733816982342,0.812153034232418
"402",7,21,1,1,162,1,1,1,5,0.448456487461028,0.524049510329138
"403",7,22,1,2,163,3,1,0,2,0.80409465496503,0.830689922497077
"404",7,38,1,1,164,1,1,1,4,0.613234288962199,0.611086463407448
"405",7,22,1,2,165,1,2,1,5,0.29764857284194,0.219641136503351
"406",7,20,1,1,166,3,2,0,2,1.43366848873477,1.41338598611865
"407",7,30,1,2,167,2,2,1,4,0.576150143780315,0.598874181410908
"408",7,23,1,1,168,3,2,0,1,0.874867983117073,0.914822103455419
"409",7,34,1,1,169,3,2,0,1,1.44163760654005,1.47845107153999
"410",7,38,1,1,170,3,1,1,3,0.908617638291351,0.903686327465632
"411",7,25,1,1,171,1,1,1,5,0.361852744541636,0.385131954368915
"412",7,21,1,2,172,3,1,0,2,0.424506636540621,0.39852688142267
"413",7,22,1,1,173,2,2,0,3,0.746972245551078,0.708838627476885
"414",7,38,1,2,174,3,1,0,1,0.790907927688731,0.868803776735422
"415",7,22,1,2,175,2,1,0,3,0.847881365329221,0.867370289663942
"416",7,20,1,2,176,2,1,0,2,0.496602464660703,0.573134405171118
"417",7,30,1,2,177,2,1,0,2,0.773872839237303,0.738997114830181
"418",7,23,1,2,178,2,2,1,3,0.561585492595319,0.539915070252142
"419",7,34,1,2,179,2,2,1,4,0.501607077064995,0.496967475604465
"420",7,38,1,1,180,1,1,1,4,0.196522587229628,0.19520355613541
"421",7,25,1,1,181,3,2,0,2,0.292915676546289,0.416471073937938
"422",7,21,1,2,182,1,2,1,5,0.319391525878821,0.354647910008052
"423",7,22,1,1,183,2,1,1,4,0.674367438532311,0.689450522494962
"424",7,38,1,2,184,2,1,0,2,0.936611659043285,0.936382614572259
"425",7,22,1,1,185,1,1,1,4,0.391467539030302,0.410591385445709
"426",7,20,1,2,186,3,1,0,1,1.16006773691083,1.08906040880224
"427",7,30,1,2,187,2,1,0,2,0.654837927010579,0.700757100271664
"428",7,23,1,2,188,1,2,1,4,0.512468749391711,0.492388005264325
"429",7,34,1,1,189,3,2,0,1,0.473272280600756,0.550723075327385
"430",7,38,1,1,190,1,2,0,4,0.606211854036751,0.575922292251895
"431",7,25,1,2,191,2,1,0,3,0.590642534514672,0.518755353950525
"432",7,21,1,2,192,3,2,1,2,0.930677812196044,0.897453690500463
"433",7,22,1,1,193,2,1,1,3,0.682786574822486,0.754033901746185
"434",7,38,1,1,194,3,2,0,1,0.226503703503033,0.197338245115367
"435",7,22,1,2,195,1,2,1,5,0.365526363755487,0.332914280795507
"436",7,20,1,1,196,1,1,1,4,0.371480475153065,0.342339641771127
"437",7,30,1,2,197,3,2,1,2,1.12775052231653,1.03420502795069
"438",7,23,1,1,198,2,2,0,2,0.747477862117827,0.740899529152541
"439",7,34,1,2,199,2,2,1,3,0.614723751071252,0.664671001026683
"440",7,38,1,1,200,3,1,1,3,0.725905101322914,0.732997981869746
"441",7,25,1,2,201,3,1,0,1,0.633660479885451,0.648313324246342
"442",7,21,1,1,202,3,1,1,3,0.89629703019587,0.962042786495204
"443",7,22,1,2,203,3,2,1,3,0.748963155813985,0.734195951875163
"444",7,38,1,2,204,1,2,1,4,0.531483923845755,0.499619505217745
"445",7,22,1,1,205,1,2,0,4,0.597655789379961,0.659530826996598
"446",7,20,1,1,206,1,1,1,4,0.488658201554566,0.535214172217377
"447",7,30,1,1,207,2,2,0,3,0.636942200393932,0.620734682690851
"448",7,23,1,1,208,3,1,1,3,0.919457969538909,0.92678611433242
"449",7,34,1,2,209,1,2,1,5,0.516661407787501,0.48325569953602
"450",7,38,1,2,210,2,1,0,2,0.687427969135949,0.711436025640128
"451",7,25,1,1,211,1,1,1,5,0.438656561961984,0.386430623848352
"452",7,21,1,1,212,3,1,1,3,0.968708035275454,0.970696825630793
"453",7,22,1,2,213,3,2,1,3,0.854068094148,0.880099332652271
"454",7,38,1,1,214,1,1,1,5,0.240353673714328,0.344282743227491
"455",7,22,1,2,215,3,2,1,2,0.792811898323255,0.783237892301217
"456",7,20,1,2,216,1,2,1,5,0.380879146255859,0.443908732437065
"457",7,30,1,1,217,2,2,0,2,0.528734860477335,0.524480817960954
"458",7,23,1,1,218,3,1,1,3,0.890035331775893,0.798477381675919
"459",7,34,1,1,219,2,2,0,3,0.766936624375546,0.699385574742822
"460",7,38,1,1,220,1,2,0,3,0.524197975138216,0.628640999344404
"461",7,25,1,2,221,3,1,0,1,1.110918590716,1.13391623546772
"462",7,21,1,1,222,3,1,1,3,0.749207974389297,0.811812669130632
"463",7,22,1,1,223,3,1,1,3,0.980711778659274,0.930324851234409
"464",7,38,1,2,224,2,1,0,2,0.59429059490441,0.623904254364259
"465",7,22,1,1,225,3,2,0,2,1.77343222443418,1.78038416851246
"466",7,20,1,2,226,2,1,0,3,0.556373821493325,0.548181038570775
"467",7,30,1,2,227,2,2,1,3,0.623012189471347,0.562278211482913
"468",7,23,1,1,228,2,1,1,3,0.529006470706386,0.633107087303399
"469",7,34,1,2,229,2,1,0,2,0.610013791861983,0.556108939507936
"470",7,38,1,1,230,2,1,1,3,0.696851548495721,0.70126124687254
"471",7,25,1,2,231,1,2,1,5,0.283877817149879,0.282754445275765
"472",7,21,1,1,232,1,1,1,4,0.449122940126095,0.421774795847091
"473",7,22,1,1,233,3,1,1,2,0.476340633596247,0.596482216151334
"474",7,38,1,2,234,3,2,1,3,0.725864474885561,0.713758277692896
"475",7,22,1,2,235,2,2,1,4,0.586347895398427,0.529964078994043
"476",7,20,1,2,236,1,2,1,4,0.22263760367082,0.247080751675521
"477",7,30,1,1,237,1,1,1,4,0.428478470369383,0.448102672721173
"478",7,23,1,2,238,3,2,1,3,0.623948149865029,0.707468112312291
"479",7,34,1,2,239,1,1,0,3,0.603691098841103,0.548287273478951
"480",7,38,1,1,240,3,2,0,1,1.13581379160399,1.10298707182675
"481",6,33,2,1,1,3,1,1,3,1.03824039679244,1.06510589070156
"482",6,27,2,1,2,1,1,1,5,0.349931701345092,0.35082002864078
"483",6,18,2,2,3,1,2,1,4,0.299125265587015,0.293954575308023
"484",6,37,2,1,4,2,1,1,4,0.776161733023447,0.824338903772419
"485",6,31,2,2,5,1,2,1,5,0.290418058261035,0.301700227614356
"486",6,21,2,2,6,2,1,0,2,0.6504007374516,0.635213297492402
"487",6,38,2,1,7,2,2,0,2,0.627808517082233,0.548391234645745
"488",6,35,2,2,8,2,1,0,3,0.766796372384394,0.657370844678483
"489",6,38,2,1,9,3,2,0,2,0.995625823377756,0.967143927392465
"490",6,34,2,2,10,2,1,0,2,0.621866409004176,0.55556827632152
"491",6,33,2,2,11,2,2,1,3,0.549378812924114,0.456072320790366
"492",6,27,2,2,12,3,2,1,2,0.997157027098263,0.968079359073155
"493",6,18,2,2,13,2,2,1,3,0.461695967552611,0.48219892580756
"494",6,37,2,1,14,2,1,1,4,0.584360107268247,0.550847985924487
"495",6,31,2,2,15,3,1,0,1,0.618288381579448,0.638646881647415
"496",6,21,2,1,16,1,1,1,4,0.231353660564811,0.175027222922454
"497",6,38,2,1,17,2,2,0,3,0.458945828838854,0.458004013879282
"498",6,35,2,1,18,3,2,0,2,1.44946236398301,1.45706184913004
"499",6,38,2,2,19,3,1,0,1,0.657187823116472,0.676085473315758
"500",6,34,2,2,20,1,2,1,5,0.4815217878756,0.47439744019194
"501",6,33,2,1,21,2,2,0,2,0.638837135420905,0.590351187691894
"502",6,27,2,2,22,1,2,1,5,0.41239216485885,0.384847609970081
"503",6,18,2,1,23,2,2,0,3,0.832181525553572,0.825169321660106
"504",6,37,2,1,24,2,2,0,2,1.00923526992783,0.983214610627652
"505",6,31,2,2,25,2,2,1,3,0.582797450187622,0.559576117797385
"506",6,21,2,1,26,2,2,0,3,0.666012481759335,0.617993660293144
"507",6,38,2,2,27,3,1,0,2,0.633155392625956,0.655100008231066
"508",6,35,2,1,28,2,1,1,4,0.69198254080852,0.72911932325063
"509",6,38,2,2,29,2,2,1,4,0.480062623800568,0.493464515889184
"510",6,34,2,1,30,3,1,1,3,0.93484498034414,0.996336670799279
"511",6,33,2,2,31,3,2,1,3,0.990357638829902,1.05796532898844
"512",6,27,2,2,32,1,2,1,5,0.353269091816329,0.321116822962521
"513",6,18,2,1,33,3,1,1,3,0.736678127187188,0.685546368486118
"514",6,37,2,2,34,3,2,1,3,1.1228518563864,1.04125374253197
"515",6,31,2,2,35,1,2,1,4,0.539191112810538,0.528262245905969
"516",6,21,2,2,36,1,2,1,4,0.253242186257427,0.233472958372231
"517",6,38,2,2,37,2,1,0,2,0.630695893949033,0.61375076012668
"518",6,35,2,1,38,3,1,1,2,0.937247040574658,0.985128853402522
"519",6,38,2,2,39,3,2,1,2,0.889576788119703,0.901392348546712
"520",6,34,2,2,40,1,2,1,4,0.501043844418538,0.501720408146335
"521",6,33,2,1,41,3,1,1,2,0.649822579629056,0.656082585342076
"522",6,27,2,2,42,3,2,1,3,1.07881237415338,1.07726407548356
"523",6,18,2,1,43,2,1,1,4,0.911332880671903,0.84517436814751
"524",6,37,2,2,44,2,2,1,4,0.659858816094364,0.690027442719406
"525",6,31,2,1,45,2,2,0,2,0.77499669458995,0.834666413570906
"526",6,21,2,1,46,1,1,1,4,0.393186065291051,0.387775063249805
"527",6,38,2,2,47,3,2,1,3,0.927339781327421,0.994384472984084
"528",6,35,2,2,48,2,2,1,3,0.608425325799533,0.603877794721995
"529",6,38,2,2,49,1,1,0,3,0.538995332602547,0.554002195294895
"530",6,34,2,2,50,2,1,0,2,0.409029664241605,0.453496794564663
"531",6,33,2,2,51,1,2,1,5,0.388983271178758,0.336620481412693
"532",6,27,2,1,52,1,1,1,5,0.444918700838451,0.595002596122087
"533",6,18,2,1,53,3,2,0,2,1.20545085587611,1.25608764787427
"534",6,37,2,2,54,2,1,0,3,0.54526113418241,0.612570389242949
"535",6,31,2,2,55,3,2,1,3,0.450778661252667,0.594890828266716
"536",6,21,2,2,56,3,1,0,1,0.465365164103059,0.349538787749296
"537",6,38,2,2,57,2,2,1,3,0.583187822553,0.611429054918409
"538",6,35,2,1,58,3,2,0,1,0.556139780828632,0.526659440845769
"539",6,38,2,2,59,3,2,1,2,0.469657803139499,0.512130805305085
"540",6,34,2,1,60,1,1,1,4,0.44842055771046,0.536762039532831
"541",6,33,2,2,61,2,2,1,4,0.584656346129393,0.605860662397332
"542",6,27,2,1,62,1,2,0,4,0.709068274247987,0.752968381022114
"543",6,18,2,2,63,2,2,1,3,0.505298028107118,0.414651976511749
"544",6,37,2,1,64,1,1,1,4,0.379060582154364,0.326609819336076
"545",6,31,2,2,65,3,1,0,2,0.800299475355103,0.848697511846852
"546",6,21,2,2,66,1,2,1,4,0.423135206186609,0.384332848040955
"547",6,38,2,2,67,3,1,0,2,0.823807036126807,0.772787675107327
"548",6,35,2,1,68,1,1,1,5,0.467988863705388,0.560947705979848
"549",6,38,2,1,69,2,2,0,3,0.63907970938211,0.61263863511029
"550",6,34,2,2,70,3,1,0,1,1.25693464128644,1.22227646777044
"551",6,33,2,2,71,3,2,1,2,1.15702412410349,1.22014852597907
"552",6,27,2,1,72,3,1,1,3,0.666471712150941,0.655784194501611
"553",6,18,2,2,73,2,2,1,3,0.806674422412019,0.780247607087884
"554",6,37,2,1,74,1,1,1,4,0.505809253081548,0.424988994981197
"555",6,31,2,1,75,1,2,0,3,0.443060768727824,0.43047682840719
"556",6,21,2,2,76,1,2,1,5,0.496552547884305,0.416944650453249
"557",6,38,2,2,77,2,1,0,3,0.668160997384419,0.567070778513305
"558",6,35,2,2,78,2,1,0,3,0.443170779754518,0.466826665580121
"559",6,38,2,2,79,2,2,1,3,0.593440421266239,0.56804997319501
"560",6,34,2,2,80,3,1,0,1,1.31523444684973,1.20215546459469
"561",6,33,2,1,81,1,2,0,4,0.582431502671152,0.534250182033243
"562",6,27,2,1,82,1,2,0,3,0.63744221427708,0.670691594227592
"563",6,18,2,1,83,1,1,1,4,0.485369656688211,0.529529023031685
"564",6,37,2,1,84,3,1,1,2,0.85011707555027,0.791712595491998
"565",6,31,2,1,85,2,2,0,3,0.781171324912079,0.742076310314178
"566",6,21,2,2,86,1,2,1,4,0.445729573240984,0.48795960065467
"567",6,38,2,2,87,1,2,1,5,0.37117800006891,0.379022145464665
"568",6,35,2,2,88,3,1,0,2,0.960856287625555,0.960726693039078
"569",6,38,2,2,89,3,1,0,1,0.292780639073467,0.336912301631555
"570",6,34,2,2,90,3,1,0,2,1.188282266727,1.17795844867212
"571",6,33,2,1,91,3,1,1,2,1.08213849017359,1.06172617292739
"572",6,27,2,1,92,2,2,0,3,0.733543889199399,0.725807224285299
"573",6,18,2,1,93,1,1,1,4,0.350094413818698,0.389685764744422
"574",6,37,2,1,94,3,1,1,3,0.843284367095503,0.932890834159181
"575",6,31,2,2,95,3,1,0,1,0.981898250625864,1.00465617686551
"576",6,21,2,2,96,3,1,0,2,1.09727924361732,1.09592588821863
"577",6,38,2,1,97,1,1,1,4,0.365537056901511,0.346316184887041
"578",6,35,2,1,98,1,1,1,5,0.489617762401573,0.462236775378444
"579",6,38,2,2,99,1,2,1,5,0.359775134475616,0.333511342413256
"580",6,34,2,1,100,1,2,0,3,0.561109296111588,0.608205066317669
"581",6,33,2,1,101,3,1,1,3,0.47221238079325,0.527207003844611
"582",6,27,2,1,102,2,2,0,2,0.672338738345904,0.718155579422482
"583",6,18,2,2,103,3,1,0,2,1.20079600306021,1.25140191339563
"584",6,37,2,2,104,1,2,1,4,0.543315116450589,0.545128787159619
"585",6,31,2,2,105,2,2,1,4,0.577420393553489,0.598586674472592
"586",6,21,2,2,106,2,2,1,4,0.635798677832187,0.734623369695689
"587",6,38,2,1,107,1,1,1,4,0.417069746159717,0.524380720244012
"588",6,35,2,2,108,1,1,0,3,0.561639400455706,0.546991758846541
"589",6,38,2,1,109,2,2,0,2,0.729348259417464,0.750503957330132
"590",6,34,2,2,110,3,1,0,1,0.714177483253376,0.747500679561866
"591",6,33,2,1,111,2,1,1,3,0.44788726548984,0.330147961458665
"592",6,27,2,1,112,2,1,1,4,0.673418164440661,0.669963738107711
"593",6,18,2,1,113,3,2,0,1,1.64934168372303,1.58828248755953
"594",6,37,2,1,114,3,1,1,3,0.392204866285938,0.411943206199695
"595",6,31,2,2,115,3,2,1,3,0.858940794707269,0.861281911974048
"596",6,21,2,2,116,2,1,0,2,0.696438966985921,0.68432195938617
"597",6,38,2,1,117,1,1,1,4,0.293274487513971,0.319230838695178
"598",6,35,2,2,118,3,2,1,3,0.545859006619132,0.500199938758618
"599",6,38,2,1,119,3,2,0,1,1.12127677747221,1.10588354391455
"600",6,34,2,1,120,3,1,1,3,0.425511187682777,0.361448784292717
"601",6,33,2,1,121,2,1,1,3,0.710928132730733,0.740505511922503
"602",6,27,2,1,122,2,1,1,4,0.475165878690085,0.49374902413669
"603",6,18,2,1,123,3,2,0,2,1.48735228163522,1.37617180304822
"604",6,37,2,1,124,1,1,1,4,0.356896118082042,0.306475083865314
"605",6,31,2,2,125,2,1,0,3,0.723386031472775,0.79399421427057
"606",6,21,2,1,126,2,1,1,4,0.418143895224357,0.382480471373817
"607",6,38,2,1,127,1,1,1,5,0.360512865851039,0.357843854859561
"608",6,35,2,1,128,1,1,1,4,0.55933819738095,0.626129954064588
"609",6,38,2,1,129,2,2,0,2,0.684704246692626,0.683181603682682
"610",6,34,2,1,130,1,1,1,4,0.316824604930207,0.317777814687775
"611",6,33,2,1,131,2,1,1,4,0.761261835021647,0.798603423045738
"612",6,27,2,2,132,1,2,1,4,0.386266343777847,0.430098760819692
"613",6,18,2,2,133,1,2,1,4,0.366843375787272,0.323690246496971
"614",6,37,2,2,134,1,2,1,5,0.354114796671236,0.374052281387049
"615",6,31,2,2,135,3,2,1,3,0.498679118741025,0.48568781366103
"616",6,21,2,1,136,2,1,1,4,0.661751995290277,0.709001454169576
"617",6,38,2,1,137,3,2,0,2,0.879192271758916,0.901991765703062
"618",6,35,2,2,138,1,2,1,5,0.422699820887377,0.324353966123612
"619",6,38,2,1,139,1,1,1,5,0.433099859289096,0.393379990213543
"620",6,34,2,1,140,2,2,0,2,0.882790134872455,0.894153784703605
"621",6,33,2,1,141,2,2,0,2,0.869760265231231,0.840502426369268
"622",6,27,2,2,142,2,2,1,4,0.866527472973808,0.897817489625824
"623",6,18,2,2,143,3,1,0,1,0.16058712511662,0.197800139895925
"624",6,37,2,2,144,3,2,1,2,0.678513293068906,0.76659324760857
"625",6,31,2,2,145,2,1,0,3,0.159429622997681,0.173922242355041
"626",6,21,2,1,146,1,1,1,5,0.376815976206802,0.383743394287473
"627",6,38,2,2,147,1,2,1,5,0.350137006869499,0.403351549069651
"628",6,35,2,1,148,3,1,1,3,0.754067211469087,0.750357398490844
"629",6,38,2,2,149,3,1,0,2,0.676671860034727,0.693143201056949
"630",6,34,2,2,150,1,2,1,4,0.432303153247797,0.458669558556457
"631",6,33,2,1,151,1,1,1,5,0.453013793087476,0.461965521053255
"632",6,27,2,1,152,3,2,0,1,0.944019554973171,0.962488105970631
"633",6,18,2,2,153,1,1,0,3,0.423208963921113,0.364518980015549
"634",6,37,2,1,154,2,1,1,4,0.780763784000444,0.780852791137786
"635",6,31,2,2,155,2,1,0,2,0.581324685228717,0.58560752468758
"636",6,21,2,1,156,2,1,1,4,0.507668674795024,0.538025662124416
"637",6,38,2,1,157,1,1,1,5,0.439027595431222,0.419269916921556
"638",6,35,2,2,158,3,2,1,3,0.864302446421781,0.795368136422868
"639",6,38,2,2,159,2,1,0,3,0.8107378615465,0.827281472134056
"640",6,34,2,2,160,2,1,0,2,0.691137311925585,0.646604316404601
"641",6,33,2,2,161,3,2,1,3,0.7996202052556,0.776375822068644
"642",6,27,2,1,162,1,1,1,4,0.417680672509649,0.458313732321001
"643",6,18,2,2,163,3,2,1,3,0.975698257955844,1.01744955505797
"644",6,37,2,2,164,2,1,0,3,0.798244795832979,0.832217102310021
"645",6,31,2,1,165,1,1,1,5,0.329603463741773,0.431137165513908
"646",6,21,2,2,166,3,1,0,2,0.712793678875002,0.704581164202595
"647",6,38,2,1,167,1,1,1,5,0.414349965064145,0.431752628254002
"648",6,35,2,1,168,1,1,1,4,0.312768518418006,0.320301331411963
"649",6,38,2,2,169,3,1,0,1,0.732827019966061,0.756075097647215
"650",6,34,2,1,170,1,2,0,4,0.467298630312516,0.47550739136935
"651",6,33,2,1,171,3,2,0,1,0.67576913295173,0.732328403679291
"652",6,27,2,2,172,2,2,1,3,0.617470284522803,0.59690907207442
"653",6,18,2,1,173,1,1,1,4,0.343008015558071,0.303045594981243
"654",6,37,2,2,174,1,2,1,4,0.391116863916972,0.382486418660286
"655",6,31,2,1,175,2,2,0,2,0.658629316205074,0.662973979327777
"656",6,21,2,1,176,2,1,1,4,0.59524472588983,0.531497396691206
"657",6,38,2,2,177,3,2,1,3,1.05207526809425,0.994350802387017
"658",6,35,2,1,178,2,1,1,3,0.532528754446279,0.514538719634133
"659",6,38,2,1,179,1,2,0,4,0.514637992491172,0.51416636576741
"660",6,34,2,2,180,2,2,1,3,0.746093684418643,0.731272801345557
"661",6,33,2,2,181,2,1,0,3,0.604944374094875,0.55528112696345
"662",6,27,2,2,182,1,2,1,5,0.495908919298338,0.544307330701331
"663",6,18,2,1,183,1,1,1,5,0.327364659752822,0.336851954032835
"664",6,37,2,2,184,1,2,1,5,0.43683630015368,0.476126232648688
"665",6,31,2,1,185,3,2,0,1,1.2187755286342,1.11079766365855
"666",6,21,2,2,186,2,2,1,3,0.403893981707733,0.444619080767785
"667",6,38,2,1,187,2,1,1,4,0.566294647356747,0.474042944316499
"668",6,35,2,1,188,2,1,1,3,0.638443845338112,0.600726052032935
"669",6,38,2,1,189,2,2,0,3,0.711951467508976,0.724693596630252
"670",6,34,2,1,190,2,1,1,4,0.546289590773656,0.554826115088647
"671",6,33,2,1,191,3,1,1,2,0.972125137675919,1.01544441103752
"672",6,27,2,2,192,1,2,1,4,0.460554252624795,0.394343927113836
"673",6,18,2,2,193,3,1,0,1,1.00710841131838,1.01480202895491
"674",6,37,2,2,194,3,2,1,3,0.930263695594861,0.85460350485632
"675",6,31,2,2,195,2,1,0,3,0.658632621297003,0.714106765802188
"676",6,21,2,1,196,3,1,1,3,0.810840047859052,0.873206846787296
"677",6,38,2,2,197,3,2,1,2,0.844188328203684,0.791041035585391
"678",6,35,2,1,198,1,1,1,5,0.416744530722904,0.484346433306093
"679",6,38,2,2,199,2,2,1,3,0.42030142360304,0.434461970502085
"680",6,34,2,1,200,1,1,1,4,0.353316318298955,0.365087316313082
"681",6,33,2,1,201,2,1,1,3,0.506638009972306,0.496452054894099
"682",6,27,2,1,202,2,2,0,2,0.739870449039718,0.70613651745863
"683",6,18,2,1,203,1,1,1,5,0.405176977087846,0.351621556407533
"684",6,37,2,1,204,3,2,0,2,1.28473204648538,1.3100023672472
"685",6,31,2,2,205,1,1,0,4,0.446024350459496,0.414022504819188
"686",6,21,2,1,206,3,2,0,2,0.273218897857104,0.371113355823706
"687",6,38,2,2,207,1,2,1,5,0.377755642042531,0.427576831307045
"688",6,35,2,1,208,2,1,1,4,0.594521695088792,0.528207899556307
"689",6,38,2,1,209,3,2,0,1,0.375980841692928,0.414600342222527
"690",6,34,2,2,210,1,2,1,4,0.463082377450251,0.483539976098866
"691",6,33,2,2,211,1,2,1,5,0.40802644008315,0.401329307532214
"692",6,27,2,1,212,3,1,1,2,1.21608199578592,1.20451668411956
"693",6,18,2,2,213,1,2,1,5,0.457668872477503,0.541923408962617
"694",6,37,2,2,214,2,2,1,3,0.844614287964925,0.839004742372319
"695",6,31,2,1,215,3,2,0,1,1.02171116240491,1.03694873501806
"696",6,21,2,1,216,2,1,1,4,0.554455144239287,0.602350469958257
"697",6,38,2,2,217,2,2,1,3,0.482985670376132,0.567275525732927
"698",6,35,2,2,218,3,2,1,2,0.723619326403066,0.742497546758112
"699",6,38,2,2,219,2,2,1,3,0.419324944084236,0.479798426397003
"700",6,34,2,2,220,2,2,1,3,0.555836192249387,0.495239479647039
"701",6,33,2,1,221,1,1,1,5,0.347693813110601,0.385915238317895
"702",6,27,2,1,222,1,1,1,5,0.340544436616311,0.314568879214588
"703",6,18,2,1,223,3,2,0,1,1.46010831993494,1.43123698129062
"704",6,37,2,2,224,3,2,1,3,0.847831542264908,0.890221713120005
"705",6,31,2,1,225,3,2,0,1,1.04821612890547,1.02348801063568
"706",6,21,2,1,226,1,1,1,4,0.448365496174411,0.445514360295514
"707",6,38,2,1,227,1,1,1,4,0.425494362147744,0.431539692856561
"708",6,35,2,2,228,2,1,0,3,0.875061731126681,0.791572800997912
"709",6,38,2,2,229,3,1,0,2,0.842150621754288,0.965014121685308
"710",6,34,2,2,230,3,2,1,3,0.485809799193683,0.451127291489917
"711",6,33,2,1,231,1,2,0,4,0.587274048032101,0.62138524044474
"712",6,27,2,2,232,3,2,1,2,0.661329198949467,0.602643480480845
"713",6,18,2,1,233,3,2,0,2,1.62121830900062,1.62048782559864
"714",6,37,2,2,234,3,1,0,1,0.968122001596814,0.965240859607324
"715",6,31,2,2,235,1,2,1,5,0.280825336069487,0.232794221433386
"716",6,21,2,1,236,1,2,0,4,0.669112226199599,0.689384725945762
"717",6,38,2,2,237,1,2,1,5,0.426998778348062,0.441925422610255
"718",6,35,2,1,238,2,2,0,3,0.51912187917926,0.55716675214333
"719",6,38,2,1,239,3,2,0,1,0.848783072913074,0.714132013710066
"720",6,34,2,1,240,1,1,1,5,0.327115124057836,0.372145924067948
"721",5,31,1,2,1,2,1,0,3,0.453007417594605,0.385012433501047
"722",5,32,1,2,2,2,2,1,4,0.615512037120161,0.613402875224354
"723",5,24,1,2,3,2,2,1,4,0.468516044606558,0.530790174017446
"724",5,37,1,2,4,2,2,1,4,0.716352792584234,0.762324622919692
"725",5,19,1,2,5,1,2,1,5,0.3031626253707,0.314780373960688
"726",5,38,1,2,6,1,1,0,4,0.62924232300726,0.596954034552569
"727",5,33,1,2,7,3,1,0,2,0.683713614819782,0.71037019180832
"728",5,24,1,1,8,3,1,1,3,0.880394505735528,0.876709783315578
"729",5,30,1,2,9,2,2,1,3,0.291179663727054,0.240212521277396
"730",5,37,1,2,10,2,2,1,3,0.75183648500899,0.775830277656621
"731",5,31,1,2,11,2,2,1,3,0.586922851132247,0.643745538224123
"732",5,32,1,1,12,1,2,0,3,0.499462199661743,0.50268972922205
"733",5,24,1,2,13,1,2,1,5,0.272532660256892,0.256540764930021
"734",5,37,1,2,14,3,2,1,3,0.678454917517359,0.643149290659215
"735",5,19,1,1,15,3,1,1,2,0.793432244769265,0.873846400813409
"736",5,38,1,1,16,3,1,1,3,0.665894281908457,0.720806743631099
"737",5,33,1,2,17,3,2,1,3,0.914683491375875,0.862930789486309
"738",5,24,1,1,18,3,1,1,2,0.248789931659605,0.291956419608407
"739",5,30,1,2,19,1,2,1,5,0.534101290565317,0.528945253634409
"740",5,37,1,2,20,2,1,0,2,0.683320667764236,0.633377007045884
"741",5,31,1,2,21,3,2,1,3,1.06252199138265,1.04804153108887
"742",5,32,1,2,22,1,2,1,5,0.488267218480129,0.5157148831352
"743",5,24,1,2,23,1,2,1,5,0.504203982930992,0.399455820908023
"744",5,37,1,1,24,1,1,1,5,0.29780285238023,0.318876355491624
"745",5,19,1,2,25,1,2,1,5,0.246474627136455,0.21730320073803
"746",5,38,1,1,26,1,2,0,4,0.296127483224334,0.38159547961199
"747",5,33,1,1,27,3,1,1,3,0.710277257330969,0.668501994299129
"748",5,24,1,1,28,1,1,1,4,0.402578892662655,0.407038262804489
"749",5,30,1,1,29,1,2,0,4,0.661649185982652,0.623310908056132
"750",5,37,1,2,30,2,2,1,3,0.57060489864789,0.650546705547833
"751",5,31,1,1,31,3,2,0,1,1.64605947883202,1.52530804626717
"752",5,32,1,2,32,1,2,1,4,0.318330068950833,0.383770578542198
"753",5,24,1,1,33,3,1,1,3,0.695929166204405,0.646043718535735
"754",5,37,1,1,34,2,1,1,4,0.498490852591887,0.528687240732038
"755",5,19,1,2,35,2,2,1,3,0.507693011442929,0.39870750880241
"756",5,38,1,1,36,2,2,0,2,0.567345212493142,0.601815272037692
"757",5,33,1,1,37,3,1,1,2,1.19564791058239,1.24045454875104
"758",5,24,1,2,38,1,1,0,3,0.476580995122917,0.423088546966593
"759",5,30,1,2,39,1,2,1,5,0.410199788332385,0.371592880207489
"760",5,37,1,1,40,3,1,1,3,0.902665827002397,0.873765330327106
"761",5,31,1,1,41,2,1,1,3,0.792103871046817,0.763167942574119
"762",5,32,1,2,42,3,1,0,1,0.703607023290633,0.709949774956959
"763",5,24,1,2,43,2,2,1,3,0.518902938816934,0.576386010153584
"764",5,37,1,2,44,2,1,0,2,0.602635540643482,0.612963919299578
"765",5,19,1,2,45,3,1,0,2,0.893482777213326,0.874755117216253
"766",5,38,1,1,46,1,1,1,4,0.243446190488541,0.269419076739325
"767",5,33,1,2,47,2,2,1,4,0.576527617699607,0.531052848916297
"768",5,24,1,1,48,3,1,1,2,0.788623682320221,0.841257301188245
"769",5,30,1,2,49,2,2,1,4,0.602124765413162,0.672030133830741
"770",5,37,1,1,50,1,1,1,5,0.276231423708257,0.296394363445731
"771",5,31,1,2,51,2,2,1,3,0.745451670606446,0.727614542056266
"772",5,32,1,2,52,3,2,1,2,0.873351830472918,0.830608278934664
"773",5,24,1,1,53,3,2,0,1,1.33765652533451,1.33165662824462
"774",5,37,1,2,54,3,2,1,3,0.941288282416913,0.917831831117339
"775",5,19,1,2,55,1,2,1,4,0.510607751715549,0.489176469655373
"776",5,38,1,2,56,2,1,0,2,0.89485223999122,0.90619052922992
"777",5,33,1,2,57,3,2,1,2,1.08778281149666,1.04335540914691
"778",5,24,1,2,58,3,1,0,2,1.05012319100503,1.07635393718605
"779",5,30,1,1,59,3,1,1,3,0.639553204221574,0.689849473403186
"780",5,37,1,2,60,1,2,1,4,0.500051104916561,0.537407607665233
"781",5,31,1,1,61,1,1,1,4,0.517701137838306,0.525322034584696
"782",5,32,1,2,62,2,2,1,3,0.560922187842661,0.591717059259187
"783",5,24,1,2,63,1,2,1,5,0.381695899554554,0.379033476390301
"784",5,37,1,1,64,2,1,1,4,0.75657475747406,0.722611984978246
"785",5,19,1,2,65,1,2,1,4,0.372026061578258,0.343968121684305
"786",5,38,1,2,66,1,2,1,5,0.38586464893245,0.418637272603915
"787",5,33,1,1,67,2,1,1,4,0.540831546895048,0.539929710405577
"788",5,24,1,2,68,3,1,0,1,1.23558030507569,1.23654681291616
"789",5,30,1,1,69,3,1,1,3,0.846245034408336,0.785177494607868
"790",5,37,1,1,70,3,2,0,2,0.606703586388162,0.536736750168182
"791",5,31,1,1,71,3,1,1,3,0.957752078036014,0.971926772583454
"792",5,32,1,2,72,2,1,0,2,0.777976324799986,0.768433074277947
"793",5,24,1,1,73,1,1,1,5,0.447149211916497,0.416514601242006
"794",5,37,1,1,74,3,2,0,2,1.52817269543202,1.45925875465482
"795",5,19,1,1,75,3,1,1,2,0.57799849231002,0.633350942215147
"796",5,38,1,1,76,1,1,1,4,0.300855775459977,0.221024552879939
"797",5,33,1,2,77,3,2,1,2,0.724017539384578,0.738540002311038
"798",5,24,1,1,78,1,1,1,5,0.329470688910858,0.356116529323848
"799",5,30,1,2,79,1,1,0,4,0.594172509966116,0.670924015026163
"800",5,37,1,1,80,2,2,0,3,0.703511634149873,0.656270960811645
"801",5,31,1,2,81,1,2,1,5,0.432630249805049,0.445338265905749
"802",5,32,1,1,82,3,2,0,1,1.21218983819761,1.19088385621647
"803",5,24,1,1,83,2,2,0,2,0.746308299861437,0.739803085804071
"804",5,37,1,2,84,3,1,0,1,0.983889764422634,1.04953754878111
"805",5,19,1,2,85,2,2,1,3,0.689711364268613,0.684104624126034
"806",5,38,1,1,86,1,1,1,5,0.43898337688891,0.422785330785303
"807",5,33,1,1,87,2,2,0,3,0.562076273174443,0.613215541599442
"808",5,24,1,2,88,3,2,1,3,0.580519259336781,0.525740864331217
"809",5,30,1,1,89,2,1,1,4,0.401209720603638,0.477978134471256
"810",5,37,1,1,90,2,1,1,3,0.748258499462617,0.728105634821012
"811",5,31,1,1,91,2,2,0,2,0.698514866876269,0.689202195013592
"812",5,32,1,1,92,2,2,0,3,0.798811058665075,0.861337173057629
"813",5,24,1,1,93,3,1,1,3,0.973068612901538,0.879695092785725
"814",5,37,1,2,94,3,2,1,3,0.697694769085012,0.679276668784686
"815",5,19,1,2,95,1,2,1,4,0.353199763777235,0.361849741078475
"816",5,38,1,2,96,3,1,0,1,1.12956988410326,1.15906720378114
"817",5,33,1,1,97,1,1,1,4,0.527892091900163,0.574834882518449
"818",5,24,1,1,98,1,1,1,4,0.398260059693893,0.443868695903521
"819",5,30,1,1,99,1,2,0,3,0.512697042672339,0.498718836616148
"820",5,37,1,1,100,3,1,1,2,0.681973834143873,0.654733578617372
"821",5,31,1,1,101,1,1,1,4,0.534463264927475,0.567821209023211
"822",5,32,1,1,102,2,2,0,3,1.00733659732623,1.10977311966315
"823",5,24,1,2,103,1,2,1,4,0.272320733319638,0.26152424046202
"824",5,37,1,2,104,1,2,1,4,0.504845030133099,0.591633095516367
"825",5,19,1,2,105,1,2,1,5,0.376931037296066,0.387681538159083
"826",5,38,1,1,106,3,1,1,3,0.811993908949612,0.862205039780267
"827",5,33,1,1,107,2,1,1,4,0.737391652303238,0.738290351000262
"828",5,24,1,1,108,3,2,0,2,1.39649278484908,1.44248302120635
"829",5,30,1,1,109,1,1,1,5,0.299298995612781,0.272831308689591
"830",5,37,1,2,110,1,2,1,5,0.479075175922228,0.456912696753248
"831",5,31,1,2,111,3,2,1,3,0.720929756702798,0.780829962083283
"832",5,32,1,1,112,2,1,1,4,0.526957129481977,0.527116259706544
"833",5,24,1,2,113,2,2,1,4,0.515699251626578,0.504983582590784
"834",5,37,1,2,114,1,1,0,4,0.454829321701694,0.409762623419492
"835",5,19,1,2,115,1,2,1,4,0.306307756026748,0.340772526667843
"836",5,38,1,1,116,2,2,0,2,0.818298772420395,0.763168393896752
"837",5,33,1,1,117,2,1,1,3,0.601256261074197,0.600339011833047
"838",5,24,1,1,118,2,2,0,2,0.486916883373757,0.507123553094504
"839",5,30,1,2,119,2,1,0,3,0.835124463630216,0.838594468239173
"840",5,37,1,2,120,3,1,0,2,1.01694029240889,1.08086356886679
"841",5,31,1,1,121,2,2,0,3,0.521906726134632,0.595037351581999
"842",5,32,1,2,122,1,2,1,5,0.441098396791266,0.496890719334709
"843",5,24,1,2,123,2,1,0,2,0.968293429978257,0.863905158030966
"844",5,37,1,2,124,1,1,0,4,0.652613922366401,0.689556225315027
"845",5,19,1,2,125,1,2,1,4,0.593855482368004,0.607103642286024
"846",5,38,1,1,126,2,1,1,4,0.369518319616391,0.327277201344936
"847",5,33,1,1,127,3,1,1,3,0.734552121475569,0.697052737872431
"848",5,24,1,1,128,3,1,1,3,1.06563168395482,1.03453423521815
"849",5,30,1,1,129,3,2,0,2,0.97091526694006,0.990916720156991
"850",5,37,1,1,130,3,2,0,1,0.553907388894931,0.569586254599026
"851",5,31,1,2,131,2,2,1,3,0.589687277741711,0.488403927004653
"852",5,32,1,2,132,2,1,0,2,0.662948899893924,0.595364063247811
"853",5,24,1,2,133,2,2,1,3,0.707166320356499,0.745849231494701
"854",5,37,1,2,134,1,2,1,4,0.487696609222044,0.413888676946939
"855",5,19,1,2,135,3,2,1,2,0.682759464516478,0.671697527265423
"856",5,38,1,2,136,3,1,0,2,1.33275836589485,1.29561415699668
"857",5,33,1,1,137,2,1,1,4,0.585808058583846,0.577190200816851
"858",5,24,1,2,138,3,2,1,2,0.658259748843853,0.607230165657928
"859",5,30,1,1,139,3,1,1,2,0.66981835000772,0.655802307960555
"860",5,37,1,1,140,1,1,1,5,0.508511175431446,0.457068810683807
"861",5,31,1,1,141,2,2,0,2,0.827154504058315,0.780536863286865
"862",5,32,1,1,142,3,1,1,3,0.767746457223606,0.794181680366263
"863",5,24,1,1,143,3,2,0,2,0.868487347149308,0.939638648090512
"864",5,37,1,1,144,2,2,0,2,0.700041474579912,0.723813041748671
"865",5,19,1,2,145,2,1,0,3,0.960442359994863,0.896141417783591
"866",5,38,1,1,146,2,1,1,3,0.655560655052104,0.552857587504004
"867",5,33,1,2,147,1,2,1,5,0.47867850161803,0.455883093227607
"868",5,24,1,1,148,2,2,0,3,0.625221561332575,0.674414623513487
"869",5,30,1,1,149,2,1,1,3,0.699242681852156,0.724568261551946
"870",5,37,1,2,150,3,1,0,1,0.976368131562776,0.882545746158308
"871",5,31,1,1,151,2,1,1,3,0.684723350955352,0.650461704749403
"872",5,32,1,2,152,1,1,0,4,0.407921839799676,0.400420490166589
"873",5,24,1,2,153,2,2,1,4,0.578276458102528,0.508512574345218
"874",5,37,1,2,154,2,2,1,4,0.513437952251278,0.518573306320485
"875",5,19,1,2,155,3,1,0,1,0.904733862307668,0.923507918954161
"876",5,38,1,2,156,2,1,0,3,0.563329454264778,0.513027793962222
"877",5,33,1,1,157,2,2,0,3,0.661244931894339,0.624929070407089
"878",5,24,1,1,158,1,2,0,3,0.505205688381232,0.548543866634078
"879",5,30,1,1,159,1,1,1,5,0.520140994638072,0.645260171877291
"880",5,37,1,1,160,1,1,1,4,0.543037475796815,0.515213929341874
"881",5,31,1,2,161,3,1,0,1,0.940839912199281,0.913539553349566
"882",5,32,1,2,162,3,1,0,1,1.02974122268356,1.04747127829022
"883",5,24,1,2,163,1,2,1,5,0.23825760171526,0.196379597539696
"884",5,37,1,1,164,3,1,1,3,0.827297877190229,0.84570720850238
"885",5,19,1,1,165,3,2,0,2,1.22891361045038,1.30646049919535
"886",5,38,1,1,166,2,2,0,2,1.00718503839718,0.994642961345043
"887",5,33,1,1,167,2,2,0,2,1.02378981212802,0.978226004833725
"888",5,24,1,2,168,1,2,1,4,0.444351488679223,0.401858824122345
"889",5,30,1,2,169,3,1,0,1,0.995848477549638,0.980102646956395
"890",5,37,1,2,170,1,2,1,5,0.418921946458027,0.440613039628893
"891",5,31,1,2,171,2,2,1,3,0.76184866860444,0.714438924433267
"892",5,32,1,1,172,1,1,1,4,0.265484396879018,0.30906087694165
"893",5,24,1,2,173,1,2,1,5,0.141660642044619,0.105196508413067
"894",5,37,1,1,174,2,2,0,3,0.573520960540417,0.585746722553032
"895",5,19,1,1,175,1,1,1,4,0.3158980345438,0.333952060303871
"896",5,38,1,1,176,3,1,1,3,1.10823798321468,1.00250625618132
"897",5,33,1,1,177,3,1,1,3,0.756490603601633,0.793784734566678
"898",5,24,1,1,178,1,1,1,5,0.487774562005156,0.393404570886812
"899",5,30,1,1,179,2,2,0,3,0.910173807338226,0.818546663132571
"900",5,37,1,1,180,1,2,0,3,0.63354955089375,0.666120861475819
"901",5,31,1,1,181,1,1,1,4,0.369661854542688,0.266776345111226
"902",5,32,1,2,182,2,2,1,3,0.422099894040261,0.391171144466942
"903",5,24,1,2,183,2,1,0,2,0.944555314537308,1.01171892150632
"904",5,37,1,1,184,2,1,1,4,0.529559020059364,0.585690280865538
"905",5,19,1,1,185,2,2,0,2,0.877170778620036,0.906451433492509
"906",5,38,1,2,186,2,2,1,3,0.788694836838262,0.882817206674306
"907",5,33,1,1,187,3,2,0,1,1.77029231422012,1.78097378923063
"908",5,24,1,1,188,1,1,1,5,0.419341713493393,0.448129392090364
"909",5,30,1,2,189,3,2,1,3,0.815444919968383,0.77201949957702
"910",5,37,1,2,190,2,2,1,4,0.607051516673495,0.664583472526831
"911",5,31,1,2,191,3,2,1,2,0.814224536180334,0.8870336241454
"912",5,32,1,1,192,3,2,0,1,-0.0519645231242893,-0.0649649677924959
"913",5,24,1,2,193,2,1,0,3,0.565179926265813,0.585786870493541
"914",5,37,1,2,194,1,1,0,4,0.464570573810851,0.478435283735725
"915",5,19,1,1,195,3,1,1,3,0.674229853909647,0.647086687661618
"916",5,38,1,1,196,1,1,1,5,0.472382643329509,0.45878669309806
"917",5,33,1,1,197,2,2,0,2,0.622261732296996,0.657314107621329
"918",5,24,1,2,198,1,2,1,4,0.550489284421345,0.57180884813296
"919",5,30,1,2,199,3,1,0,1,1.49279923686823,1.57458621156405
"920",5,37,1,2,200,1,1,0,3,0.42324183113988,0.467888915740641
"921",5,31,1,2,201,1,2,1,4,0.38839427632173,0.42676948299901
"922",5,32,1,2,202,1,2,1,5,0.259142222502092,0.314942472491554
"923",5,24,1,1,203,1,1,1,5,0.401143142159168,0.476215670704935
"924",5,37,1,1,204,1,2,0,3,0.419530445378847,0.339411560222903
"925",5,19,1,2,205,3,1,0,2,0.286115426728246,0.271387714032371
"926",5,38,1,1,206,3,2,0,1,0.248139773273486,0.204566754215881
"927",5,33,1,2,207,3,1,0,2,0.282635505595719,0.28408948579233
"928",5,24,1,2,208,3,2,1,3,0.797062318524358,0.733848238384511
"929",5,30,1,2,209,2,2,1,3,0.478064738455978,0.494290094568101
"930",5,37,1,1,210,1,1,1,4,0.282437521800447,0.278206321280817
"931",5,31,1,1,211,2,2,0,3,0.531641299364223,0.58065830998007
"932",5,32,1,2,212,1,2,1,5,0.307192980553586,0.222413907399552
"933",5,24,1,2,213,2,1,0,3,0.699573367032444,0.667933198237923
"934",5,37,1,2,214,1,1,0,4,0.65098251385063,0.718639759212322
"935",5,19,1,1,215,2,1,1,3,0.545848986102501,0.571302370089687
"936",5,38,1,1,216,3,1,1,3,0.698598203022506,0.697080636848544
"937",5,33,1,1,217,2,1,1,3,0.555773276235561,0.46717515998412
"938",5,24,1,1,218,3,1,1,2,0.76033888701009,0.800840537769945
"939",5,30,1,1,219,2,1,1,4,0.686453420437564,0.685364047351149
"940",5,37,1,1,220,1,1,1,4,0.429302339761391,0.331234914752145
"941",5,31,1,2,221,1,2,1,5,0.39078977738633,0.365532505591745
"942",5,32,1,1,222,2,2,0,2,0.814479551403532,0.817467804270437
"943",5,24,1,1,223,2,1,1,4,0.856626289301528,0.855334229074275
"944",5,37,1,2,224,3,1,0,1,1.17557624486907,1.22101620263323
"945",5,19,1,1,225,3,2,0,1,1.01981747608428,0.984863176460358
"946",5,38,1,1,226,3,2,0,1,1.75349836780281,1.75327019011251
"947",5,33,1,2,227,1,2,1,5,0.408446295787234,0.407905860585645
"948",5,24,1,1,228,2,1,1,3,0.447918897061203,0.46634998480918
"949",5,30,1,2,229,1,2,1,5,0.409035615916775,0.450800691668003
"950",5,37,1,1,230,3,1,1,2,1.05467312875007,1.0520515964262
"951",5,31,1,2,231,1,2,1,4,0.235079048253511,0.174344304407582
"952",5,32,1,1,232,1,1,1,5,0.44345489114016,0.293916256993275
"953",5,24,1,2,233,1,2,1,5,0.389522444814802,0.441687342230161
"954",5,37,1,1,234,3,2,0,1,1.06097792154508,1.13770353342145
"955",5,19,1,1,235,3,2,0,2,0.906995771785513,0.895089668457674
"956",5,38,1,1,236,3,2,0,1,1.21468133373556,1.23157035138598
"957",5,33,1,2,237,1,2,1,5,0.467844256749701,0.466743180189251
"958",5,24,1,2,238,3,1,0,2,1.21573903903914,1.28821619853088
"959",5,30,1,2,239,2,2,1,4,0.477062168116997,0.535977271487957
"960",5,37,1,2,240,3,2,1,2,0.68009078213779,0.652846763908022
"961",4,23,2,1,1,1,1,1,5,0.493059492341796,0.475547735689903
"962",4,33,2,2,2,2,2,1,3,0.508186495220846,0.535755839483012
"963",4,32,2,1,3,3,2,0,2,1.09907422160386,1.06980943261466
"964",4,19,2,2,4,2,2,1,4,0.641546990021829,0.614455252508825
"965",4,23,2,2,5,1,2,1,5,0.400291167808732,0.342776904098199
"966",4,36,2,1,6,2,2,0,2,0.78613241756159,0.799686836830033
"967",4,22,2,2,7,1,1,0,3,0.603933555524593,0.680323105680719
"968",4,39,2,2,8,3,2,1,3,0.785700173341339,0.758474364850145
"969",4,24,2,2,9,1,2,1,5,0.518701588664621,0.471551662367027
"970",4,18,2,2,10,1,2,1,4,0.483270925811658,0.565815060600028
"971",4,23,2,1,11,2,1,1,3,0.502232076550323,0.479462612175568
"972",4,33,2,1,12,1,1,1,5,0.450338531020307,0.495084628014577
"973",4,32,2,2,13,1,2,1,4,0.359020147283582,0.34126241273695
"974",4,19,2,2,14,3,1,0,2,1.19019516953236,1.10825239326248
"975",4,23,2,2,15,2,2,1,4,0.41890378592393,0.46510932366848
"976",4,36,2,2,16,3,1,0,1,0.40217651654556,0.416677887256716
"977",4,22,2,2,17,3,2,1,2,0.516735701791263,0.472224283705265
"978",4,39,2,2,18,2,2,1,3,0.605880598077586,0.605278067101887
"979",4,24,2,1,19,2,2,0,2,0.612726290975285,0.645761964854031
"980",4,18,2,1,20,2,2,0,2,0.731863290613291,0.730050483637115
"981",4,23,2,2,21,1,2,1,5,0.357266768919558,0.402677143040663
"982",4,33,2,2,22,2,2,1,4,0.689941719568779,0.689127743730584
"983",4,32,2,1,23,3,1,1,2,0.679002627078985,0.703952020115721
"984",4,19,2,1,24,1,1,1,4,0.308161245582246,0.362486938187832
"985",4,23,2,1,25,3,1,1,3,0.939725964724026,0.889394023844498
"986",4,36,2,2,26,3,1,0,1,1.06892862375964,1.13443435108534
"987",4,22,2,1,27,1,1,1,5,0.50812087801479,0.525405203801369
"988",4,39,2,1,28,3,2,0,2,1.03893272255093,1.07193449888705
"989",4,24,2,1,29,3,1,1,2,1.03496571441792,1.01447318834251
"990",4,18,2,1,30,2,2,0,2,0.510535554006608,0.518075298820716
"991",4,23,2,1,31,2,2,0,3,0.609053735414593,0.612361047851339
"992",4,33,2,2,32,2,1,0,2,0.907089848814579,0.91631113260056
"993",4,32,2,1,33,1,1,1,4,0.434343178888927,0.42828493180325
"994",4,19,2,2,34,2,2,1,4,0.73650864739854,0.690583098879329
"995",4,23,2,1,35,3,1,1,2,0.619684261014196,0.608216187049042
"996",4,36,2,1,36,1,1,1,4,0.384352093136771,0.362150207534625
"997",4,22,2,2,37,1,2,1,4,0.406550540985545,0.446083806516051
"998",4,39,2,2,38,3,1,0,1,1.257440299831,1.28560974379952
"999",4,24,2,1,39,1,1,1,5,0.377676502223165,0.345642201168023
"1000",4,18,2,1,40,3,1,1,2,1.16874897815793,1.08813570021719
"1001",4,23,2,2,41,3,1,0,1,0.703646653378025,0.79254226445669
"1002",4,33,2,2,42,3,2,1,2,0.861390804517252,0.873947466027094
"1003",4,32,2,2,43,2,2,1,4,0.4185329734219,0.426641435910263
"1004",4,19,2,1,44,3,2,0,1,1.28813364557597,1.29052263939696
"1005",4,23,2,1,45,1,1,1,4,0.455189357964039,0.49117586706906
"1006",4,36,2,1,46,1,2,0,3,0.547913448000562,0.517991455880471
"1007",4,22,2,1,47,2,2,0,3,0.528336240452268,0.543370017244572
"1008",4,39,2,1,48,3,1,1,2,0.643372427036263,0.546171637436487
"1009",4,24,2,1,49,1,1,1,4,0.418109215522329,0.553100126836385
"1010",4,18,2,2,50,2,1,0,3,0.65615891661251,0.593827381444142
"1011",4,23,2,1,51,3,2,0,1,1.09691663077072,1.10871382124721
"1012",4,33,2,1,52,1,1,1,4,0.468090256828403,0.417881592832251
"1013",4,32,2,2,53,1,2,1,4,0.328566681128091,0.278151705185172
"1014",4,19,2,1,54,1,1,1,4,0.437113708278437,0.479846358057746
"1015",4,23,2,2,55,2,2,1,3,0.447605335198972,0.456786808528096
"1016",4,36,2,2,56,2,1,0,3,0.778194950945166,0.775002196748435
"1017",4,22,2,2,57,3,1,0,2,0.830127399032492,0.851376625677924
"1018",4,39,2,2,58,2,1,0,3,0.85260925265047,0.871892826171425
"1019",4,24,2,1,59,2,2,0,3,0.960342209634626,1.04572786888269
"1020",4,18,2,2,60,1,2,1,5,0.464468044280097,0.462111073356031
"1021",4,23,2,2,61,1,2,1,4,0.416255146370529,0.491790752057711
"1022",4,33,2,1,62,3,2,0,2,1.28105690985566,1.40267962257755
"1023",4,32,2,2,63,3,2,1,3,0.722821908872166,0.799771257533838
"1024",4,19,2,2,64,3,1,0,1,0.735291423560101,0.731788395725015
"1025",4,23,2,2,65,1,2,1,4,0.44539641329608,0.39278637733631
"1026",4,36,2,1,66,3,2,0,2,1.49065403622773,1.52824036190405
"1027",4,22,2,1,67,2,2,0,3,0.764230100880609,0.737758320320551
"1028",4,39,2,2,68,3,1,0,1,0.86766375902215,0.824161152111226
"1029",4,24,2,1,69,1,1,1,5,0.429500980126736,0.474002356497448
"1030",4,18,2,2,70,1,2,1,5,0.426484532949475,0.450504868206811
"1031",4,23,2,1,71,3,1,1,2,0.894954516368553,0.880647207955712
"1032",4,33,2,1,72,2,1,1,3,0.63655690121233,0.581593670968113
"1033",4,32,2,2,73,1,2,1,5,0.297083894226456,0.284307145200347
"1034",4,19,2,2,74,2,2,1,3,0.546218983241007,0.632869920221016
"1035",4,23,2,2,75,3,2,1,3,0.819553247571662,0.869039909896498
"1036",4,36,2,2,76,2,1,0,2,0.788943807953898,0.752178653495422
"1037",4,22,2,2,77,3,2,1,3,0.703037688927713,0.733353080149044
"1038",4,39,2,1,78,2,1,1,4,0.52959835376312,0.519936395067107
"1039",4,24,2,2,79,2,2,1,4,0.607846741046853,0.591287918768435
"1040",4,18,2,1,80,2,2,0,3,0.781378016103843,0.865755901989234
"1041",4,23,2,2,81,3,2,1,2,0.724598655137244,0.733917709941544
"1042",4,33,2,1,82,1,2,0,4,0.63103301945531,0.683101052828216
"1043",4,32,2,2,83,3,1,0,1,0.865360702847624,0.910380569224
"1044",4,19,2,2,84,2,2,1,4,0.482495276582385,0.551450644660177
"1045",4,23,2,2,85,3,2,1,3,1.12069305814603,1.17436823741466
"1046",4,36,2,2,86,3,2,1,3,0.652938694292451,0.650113845131499
"1047",4,22,2,1,87,1,1,1,5,0.484042217157347,0.465162563824828
"1048",4,39,2,1,88,3,2,0,1,0.908912358221723,0.90568291035768
"1049",4,24,2,1,89,1,2,0,3,0.705728163059789,0.724118243554525
"1050",4,18,2,1,90,2,2,0,2,0.710951708658909,0.674390118568908
"1051",4,23,2,2,91,3,1,0,1,0.932880809545341,0.875388490091641
"1052",4,33,2,2,92,1,1,0,3,0.585276848155333,0.558684811157375
"1053",4,32,2,1,93,2,2,0,2,0.714668769708262,0.674767476042489
"1054",4,19,2,2,94,1,2,1,5,0.403236711096532,0.339039822488578
"1055",4,23,2,1,95,1,2,0,4,0.570331696743496,0.602659150119209
"1056",4,36,2,1,96,3,2,0,1,0.844578118777999,0.752368391982212
"1057",4,22,2,2,97,2,2,1,4,0.565102758592696,0.599215439891676
"1058",4,39,2,2,98,3,2,1,2,0.874843086470974,0.880617144819152
"1059",4,24,2,1,99,3,1,1,2,0.548772813965618,0.580704632201911
"1060",4,18,2,1,100,2,1,1,4,0.699597702664625,0.813543791960388
"1061",4,23,2,1,101,3,1,1,3,0.86718609042508,0.839713049697442
"1062",4,33,2,1,102,1,1,1,5,0.294682939629946,0.308021000343416
"1063",4,32,2,1,103,1,1,1,5,0.345670266193498,0.300095513841669
"1064",4,19,2,2,104,2,2,1,3,0.541712691398525,0.619083827141649
"1065",4,23,2,2,105,1,2,1,4,0.376750108826039,0.320121666120873
"1066",4,36,2,2,106,3,1,0,1,1.17092429971094,1.19229189793409
"1067",4,22,2,1,107,3,1,1,3,1.14757411676463,1.15663421190547
"1068",4,39,2,2,108,1,2,1,5,0.385196545186964,0.320714321282869
"1069",4,24,2,1,109,1,1,1,4,0.28686220620728,0.269704694826291
"1070",4,18,2,2,110,3,1,0,2,1.55963690048573,1.69419061466013
"1071",4,23,2,2,111,2,2,1,3,0.653820757000878,0.639053300445402
"1072",4,33,2,2,112,2,2,1,4,0.638170023353393,0.716294849587002
"1073",4,32,2,1,113,3,1,1,2,1.05364191418261,1.10979799684351
"1074",4,19,2,2,114,1,2,1,5,0.387238811868593,0.490653690331073
"1075",4,23,2,2,115,3,2,1,3,0.617048883193952,0.594641363904074
"1076",4,36,2,1,116,3,1,1,3,0.559543533429837,0.567529551099347
"1077",4,22,2,2,117,3,2,1,3,0.983766266199238,1.06428803434807
"1078",4,39,2,2,118,3,2,1,2,0.860155211800376,0.828968350458579
"1079",4,24,2,2,119,3,1,0,1,1.50589808549094,1.56514612258111
"1080",4,18,2,1,120,1,1,1,4,0.458069088675148,0.460100735635576
"1081",4,23,2,1,121,1,1,1,5,0.239333730284652,0.267321375961834
"1082",4,33,2,1,122,1,1,1,5,0.397297963946282,0.410944390821146
"1083",4,32,2,2,123,2,2,1,4,0.79768253909286,0.829196265520827
"1084",4,19,2,2,124,2,2,1,3,0.610136321663396,0.645141791738406
"1085",4,23,2,1,125,1,1,1,4,0.307409273798329,0.386683219013625
"1086",4,36,2,1,126,1,1,1,4,0.384507844502957,0.400942386559026
"1087",4,22,2,1,127,1,1,1,5,0.370614430122024,0.426947933749455
"1088",4,39,2,1,128,1,1,1,4,0.394364080818131,0.356913676535832
"1089",4,24,2,1,129,1,2,0,4,0.604766476292415,0.529937806121594
"1090",4,18,2,1,130,2,1,1,4,0.59038912774789,0.606874276633551
"1091",4,23,2,2,131,2,2,1,4,0.85223308966151,0.816317220926838
"1092",4,33,2,2,132,1,2,1,5,0.390213910945422,0.435795571344051
"1093",4,32,2,2,133,3,1,0,1,1.29815228478199,1.3571613727838
"1094",4,19,2,2,134,2,1,0,2,0.53057493107361,0.512756155099744
"1095",4,23,2,1,135,2,2,0,2,0.874125817027124,0.876898804488519
"1096",4,36,2,1,136,2,1,1,3,0.386792482711055,0.35883330572944
"1097",4,22,2,1,137,2,2,0,2,0.623032602634279,0.593079671852248
"1098",4,39,2,1,138,2,1,1,3,0.758708099140172,0.740042923466194
"1099",4,24,2,2,139,3,2,1,3,1.14952962836823,1.1442880784344
"1100",4,18,2,1,140,2,1,1,4,0.590062935863335,0.668573731213185
"1101",4,23,2,1,141,1,1,1,5,0.495252592491944,0.508716703079771
"1102",4,33,2,1,142,2,2,0,3,0.715584478553918,0.71034941615921
"1103",4,32,2,2,143,1,2,1,5,0.369429974078904,0.376416200031324
"1104",4,19,2,1,144,3,2,0,2,1.39813959645861,1.44623304995289
"1105",4,23,2,1,145,2,1,1,3,0.447783291567479,0.354618229139662
"1106",4,36,2,2,146,2,1,0,3,0.650233602403229,0.637136126232852
"1107",4,22,2,2,147,2,2,1,4,0.475199493307558,0.570075014442527
"1108",4,39,2,1,148,2,1,1,4,0.76675577319161,0.667061499359729
"1109",4,24,2,1,149,3,2,0,1,0.523577937100125,0.545596164048284
"1110",4,18,2,1,150,1,2,0,3,0.541970467561438,0.524799610155706
"1111",4,23,2,1,151,1,1,1,4,0.460824221490738,0.504643637974206
"1112",4,33,2,2,152,1,2,1,4,0.213849077507494,0.163274605097888
"1113",4,32,2,2,153,2,1,0,3,0.831593535854761,0.917416981357678
"1114",4,19,2,1,154,1,1,1,4,0.349045668366253,0.375195807817573
"1115",4,23,2,1,155,3,2,0,1,1.3614341032861,1.35522859151416
"1116",4,36,2,1,156,3,2,0,1,1.10250397389565,1.02394246185246
"1117",4,22,2,2,157,1,2,1,5,0.415918627297235,0.404265321714116
"1118",4,39,2,1,158,1,1,1,5,0.304437367326916,0.201320719277704
"1119",4,24,2,1,159,1,2,0,4,0.550279133423089,0.578617204924235
"1120",4,18,2,1,160,3,1,1,3,0.854822184929961,0.805168102766946
"1121",4,23,2,2,161,3,1,0,2,0.952624102216871,1.009334777686
"1122",4,33,2,1,162,3,1,1,3,0.557981880620452,0.515295058396551
"1123",4,32,2,2,163,2,2,1,3,0.717222128923915,0.707933914411875
"1124",4,19,2,1,164,3,1,1,3,0.754836707422732,0.770024425033121
"1125",4,23,2,1,165,2,1,1,3,0.498871923634617,0.457535834623652
"1126",4,36,2,1,166,2,2,0,2,0.647271346276361,0.65765553692039
"1127",4,22,2,1,167,1,2,0,4,0.59609684253768,0.680096585614981
"1128",4,39,2,2,168,3,1,0,2,1.38230221290322,1.43143770423359
"1129",4,24,2,1,169,1,2,0,4,0.347842578316282,0.377962787048358
"1130",4,18,2,2,170,2,2,1,3,0.650394741828384,0.634490299109595
"1131",4,23,2,2,171,2,2,1,4,0.485367687439109,0.539641262345116
"1132",4,33,2,1,172,2,1,1,3,0.429744712048388,0.494404897669325
"1133",4,32,2,1,173,1,1,1,4,0.375100614317169,0.359338870472633
"1134",4,19,2,2,174,3,1,0,2,0.843628255241617,0.797575590267916
"1135",4,23,2,2,175,2,2,1,3,0.567650765860671,0.557426567496581
"1136",4,36,2,2,176,2,2,1,4,0.654943341927571,0.667315897496758
"1137",4,22,2,2,177,3,1,0,1,1.00286537899472,1.00913879550729
"1138",4,39,2,2,178,2,2,1,3,0.574906914413448,0.516636947157659
"1139",4,24,2,1,179,2,2,0,2,0.907675004352652,0.852745354425477
"1140",4,18,2,1,180,3,2,0,1,1.4883739070058,1.42725854119703
"1141",4,23,2,2,181,2,1,0,3,0.883512018150736,0.888668469636206
"1142",4,33,2,1,182,1,1,1,4,0.515641589940911,0.521599422477588
"1143",4,32,2,1,183,1,1,1,4,0.28469303352535,0.286517394348375
"1144",4,19,2,2,184,2,1,0,2,0.923966244228594,0.916414485818079
"1145",4,23,2,1,185,1,1,1,4,0.366075842570725,0.304708852219068
"1146",4,36,2,1,186,2,1,1,4,0.703228540750736,0.749992128304195
"1147",4,22,2,2,187,1,2,1,4,0.443548097954318,0.502437463846129
"1148",4,39,2,1,188,3,2,0,2,0.829880278542415,0.78872689721609
"1149",4,24,2,2,189,2,1,0,2,0.799775082861504,0.816089644980583
"1150",4,18,2,2,190,1,2,1,4,0.312969362565482,0.33639075472388
"1151",4,23,2,1,191,3,1,1,2,0.994920620855312,1.07846198627766
"1152",4,33,2,1,192,2,1,1,3,0.504846443673416,0.571209056849611
"1153",4,32,2,2,193,2,1,0,3,0.698053277710992,0.65796091086242
"1154",4,19,2,1,194,1,1,1,4,0.450413252384449,0.471919254442002
"1155",4,23,2,2,195,2,1,0,2,0.310345168315838,0.356206091310836
"1156",4,36,2,2,196,3,2,1,2,0.916612036141817,0.91731020521011
"1157",4,22,2,1,197,3,2,0,2,1.00235323206018,0.863192055509001
"1158",4,39,2,2,198,2,2,1,4,0.432925960737887,0.334939527245175
"1159",4,24,2,2,199,1,1,0,3,0.619433697011807,0.627180236736799
"1160",4,18,2,2,200,1,2,1,5,0.321810165369894,0.372457197373907
"1161",4,23,2,1,201,1,1,1,4,0.578628948279867,0.6272990946782
"1162",4,33,2,1,202,3,1,1,2,0.775739986774015,0.792915109922757
"1163",4,32,2,2,203,3,1,0,2,1.3300089858608,1.29349060686272
"1164",4,19,2,1,204,1,1,1,4,0.38786463887778,0.351229526193975
"1165",4,23,2,2,205,3,1,0,1,0.509437590212385,0.508787689664129
"1166",4,36,2,2,206,3,2,1,2,0.463694476174856,0.411536110409532
"1167",4,22,2,2,207,1,2,1,5,0.420133826690357,0.394706992558243
"1168",4,39,2,2,208,3,2,1,2,1.2343202304516,1.22284715414114
"1169",4,24,2,1,209,1,1,1,4,0.439416398190795,0.387493826929434
"1170",4,18,2,1,210,3,2,0,1,1.35075300227871,1.36490174366025
"1171",4,23,2,2,211,3,1,0,2,0.793405861664403,0.843905566208711
"1172",4,33,2,2,212,1,2,1,4,0.570481720520781,0.600431530830746
"1173",4,32,2,1,213,2,1,1,4,0.481935190560069,0.514591845521256
"1174",4,19,2,1,214,2,2,0,3,0.629674273988714,0.611234641889552
"1175",4,23,2,2,215,1,2,1,4,0.465489363943663,0.442977943936098
"1176",4,36,2,2,216,1,2,1,5,0.432093872610027,0.466805062109156
"1177",4,22,2,1,217,3,1,1,2,0.572176251450721,0.607703732410595
"1178",4,39,2,2,218,3,1,0,1,0.823789831016542,0.816968614085588
"1179",4,24,2,2,219,1,2,1,5,0.571843884147531,0.595095744144473
"1180",4,18,2,2,220,2,2,1,4,0.793845683425315,0.812921087532356
"1181",4,23,2,1,221,1,1,1,5,0.428958756304172,0.369464245612381
"1182",4,33,2,2,222,2,1,0,2,0.721860054653853,0.728731164183817
"1183",4,32,2,1,223,3,1,1,2,0.829366249708231,0.76585982142467
"1184",4,19,2,2,224,3,2,1,2,0.784356253331482,0.776477777366933
"1185",4,23,2,2,225,2,2,1,4,0.463574099544235,0.422856347624474
"1186",4,36,2,1,226,2,2,0,2,0.717838118421432,0.660965216280324
"1187",4,22,2,1,227,1,1,1,5,0.403255124031344,0.450594054775468
"1188",4,39,2,1,228,1,1,1,5,0.332265875385501,0.342479125889202
"1189",4,24,2,2,229,3,1,0,1,0.97784019499481,0.885993236794069
"1190",4,18,2,2,230,2,2,1,4,0.536221710973099,0.562789611709342
"1191",4,23,2,2,231,1,1,0,4,0.59797009856196,0.604439382017763
"1192",4,33,2,1,232,3,1,1,2,0.536455273248092,0.559248774250867
"1193",4,32,2,1,233,1,1,1,5,0.441928159530741,0.441471232016175
"1194",4,19,2,1,234,3,2,0,1,1.12184352326999,1.15414414155687
"1195",4,23,2,1,235,3,2,0,1,0.760702645197494,0.700983655165556
"1196",4,36,2,2,236,2,1,0,2,0.808364942285382,0.769112206656813
"1197",4,22,2,2,237,2,2,1,3,0.624703279889963,0.662791426762995
"1198",4,39,2,1,238,2,2,0,2,0.676383215680137,0.677081983682956
"1199",4,24,2,2,239,2,1,0,2,0.845335145131511,0.870283634951325
"1200",4,18,2,2,240,3,2,1,3,1.09082847278444,1.00414714993908
"1201",3,32,1,2,1,1,2,1,4,0.342558966151848,0.312363450087014
"1202",3,26,1,2,2,2,1,0,2,1.03855331857995,1.10379387487088
"1203",3,23,1,2,3,3,2,1,2,0.733121448622747,0.841750438783056
"1204",3,28,1,1,4,3,1,1,3,0.857857171963613,0.869086127935827
"1205",3,36,1,1,5,3,2,0,2,1.35506722910056,1.40067812086634
"1206",3,30,1,1,6,3,2,0,1,1.13761797054414,1.10820612807686
"1207",3,34,1,2,7,2,2,1,4,0.520482237580037,0.441771061911938
"1208",3,25,1,2,8,2,2,1,3,0.779047567180796,0.823526698990733
"1209",3,36,1,1,9,1,1,1,4,0.488848012361237,0.499023012983835
"1210",3,36,1,2,10,2,1,0,3,0.527954196284212,0.533907984259772
"1211",3,32,1,2,11,1,2,1,5,0.287084887475486,0.211232892045638
"1212",3,26,1,2,12,1,2,1,5,0.518676098970211,0.427845198369344
"1213",3,23,1,2,13,3,1,0,2,0.872160098013974,0.946263343674727
"1214",3,28,1,1,14,1,1,1,4,0.301707956624345,0.327113335401165
"1215",3,36,1,1,15,3,1,1,2,1.09507085507465,1.12314549325953
"1216",3,30,1,2,16,2,2,1,3,0.445587858262692,0.46144605698835
"1217",3,34,1,1,17,3,2,0,2,1.44942523819206,1.42743661504844
"1218",3,25,1,1,18,2,2,0,2,0.696058063784727,0.749509851749257
"1219",3,36,1,1,19,3,1,1,2,1.062568526486,1.03963839056328
"1220",3,36,1,2,20,3,2,1,2,0.696600831997187,0.710404642938316
"1221",3,32,1,1,21,3,2,0,1,0.815638037695072,0.752796715192608
"1222",3,26,1,2,22,1,2,1,4,0.486975704460307,0.491449755548595
"1223",3,23,1,1,23,1,1,1,4,0.469068891945899,0.427902445162226
"1224",3,28,1,2,24,2,2,1,4,0.708913062135858,0.780456350422954
"1225",3,36,1,2,25,1,2,1,4,0.5644399352517,0.580686344838376
"1226",3,30,1,2,26,1,2,1,4,0.259410134491047,0.219662746088071
"1227",3,34,1,2,27,2,1,0,3,0.682398249245773,0.610816109876611
"1228",3,25,1,1,28,3,1,1,2,0.929027743693385,0.876897150228444
"1229",3,36,1,1,29,3,2,0,2,1.25695572462372,1.28960939954184
"1230",3,36,1,1,30,2,2,0,2,0.454359761456062,0.485378506799102
"1231",3,32,1,2,31,1,2,1,4,0.467781703276702,0.473898954550444
"1232",3,26,1,1,32,2,1,1,3,0.469972511441298,0.444003405469066
"1233",3,23,1,2,33,2,1,0,2,0.684119628518303,0.735661349207784
"1234",3,28,1,2,34,1,1,0,4,0.704346620465226,0.702491318116631
"1235",3,36,1,1,35,3,1,1,3,1.04903070508362,1.06428571781062
"1236",3,30,1,1,36,2,2,0,3,0.792837389866524,0.830873058560802
"1237",3,34,1,2,37,1,1,0,4,0.631451028445914,0.537793525062936
"1238",3,25,1,2,38,1,2,1,4,0.534991508505425,0.435496281404505
"1239",3,36,1,2,39,2,1,0,3,0.667250836135581,0.656520559706276
"1240",3,36,1,1,40,3,1,1,3,0.617608935491446,0.613313163610767
"1241",3,32,1,2,41,2,2,1,4,0.547688973590983,0.549317273527866
"1242",3,26,1,1,42,2,2,0,3,0.84032924915304,0.985742041445044
"1243",3,23,1,2,43,3,2,1,2,0.591173426622665,0.587616004057483
"1244",3,28,1,2,44,3,1,0,1,1.36716374293745,1.38616117244945
"1245",3,36,1,2,45,2,2,1,3,0.745375539172682,0.801799193612238
"1246",3,30,1,2,46,3,2,1,2,0.688851490681365,0.840478646433994
"1247",3,34,1,2,47,1,2,1,5,0.426863379506846,0.444725019984955
"1248",3,25,1,1,48,1,1,1,5,0.476407732386773,0.445305421712444
"1249",3,36,1,1,49,2,2,0,2,0.704162074221743,0.705292912407448
"1250",3,36,1,1,50,1,1,1,4,0.38160634071562,0.444284554087223
"1251",3,32,1,1,51,1,1,1,4,0.503442391707304,0.444446101000893
"1252",3,26,1,1,52,1,2,0,3,0.50969350039678,0.451681025026093
"1253",3,23,1,2,53,3,2,1,3,1.09607225663796,1.06932398407913
"1254",3,28,1,1,54,1,1,1,5,0.389225645810161,0.448999830497416
"1255",3,36,1,1,55,1,1,1,5,0.391669994443768,0.409653486826596
"1256",3,30,1,2,56,3,2,1,3,0.82868349774869,0.761899763375864
"1257",3,34,1,2,57,1,2,1,4,0.275047066123672,0.297907111386962
"1258",3,25,1,1,58,2,1,1,4,0.42178633769301,0.366424829163625
"1259",3,36,1,1,59,3,1,1,3,0.629291145886046,0.685700193632103
"1260",3,36,1,2,60,3,2,1,3,0.475110028944023,0.433854870721542
"1261",3,32,1,1,61,3,2,0,1,2.06703076429072,1.98767071084859
"1262",3,26,1,2,62,1,2,1,5,0.462287180896891,0.40119831684925
"1263",3,23,1,2,63,3,2,1,3,1.03295355777394,1.03540045465707
"1264",3,28,1,1,64,1,1,1,4,0.417878752807232,0.422732244807211
"1265",3,36,1,1,65,2,2,0,3,0.503758534086851,0.567944075021173
"1266",3,30,1,2,66,2,1,0,2,0.738549334528011,0.726142354819769
"1267",3,34,1,1,67,3,1,1,3,0.806815277556054,0.814693278696134
"1268",3,25,1,2,68,2,2,1,3,0.624556504287791,0.696473013976809
"1269",3,36,1,2,69,3,2,1,3,0.886127473145335,0.926518292334256
"1270",3,36,1,2,70,1,1,0,3,0.509261812448659,0.476707660425899
"1271",3,32,1,1,71,3,1,1,2,0.53135017860079,0.44845328393426
"1272",3,26,1,1,72,2,1,1,3,0.751989628415194,0.707089863253726
"1273",3,23,1,1,73,3,2,0,1,0.566894104785652,0.604844622202004
"1274",3,28,1,2,74,2,2,1,4,0.595778776767359,0.545178643651397
"1275",3,36,1,1,75,3,1,1,2,0.429223324844826,0.43048634213678
"1276",3,30,1,1,76,2,1,1,3,0.570911690300744,0.614646017570746
"1277",3,34,1,1,77,2,1,1,4,0.291541508178325,0.293240212600808
"1278",3,25,1,1,78,2,1,1,4,0.486230347968484,0.482676024054542
"1279",3,36,1,2,79,2,1,0,3,0.670931763040104,0.652454671011302
"1280",3,36,1,1,80,1,2,0,4,0.69658440541639,0.657992290379827
"1281",3,32,1,1,81,1,2,0,3,0.483632243354106,0.488188976688986
"1282",3,26,1,2,82,1,1,0,3,0.506751213359824,0.4529422226845
"1283",3,23,1,2,83,3,2,1,2,0.79998467770865,0.748936503034752
"1284",3,28,1,2,84,1,2,1,4,0.340115795791694,0.383331701870618
"1285",3,36,1,1,85,2,1,1,3,0.735090451839152,0.701264015165724
"1286",3,30,1,1,86,3,2,0,2,1.27186497709173,1.29043924741359
"1287",3,34,1,2,87,2,2,1,3,0.595226681993616,0.55570619108829
"1288",3,25,1,2,88,2,2,1,4,0.620625786989515,0.728433300477712
"1289",3,36,1,2,89,2,1,0,2,0.782869533575696,0.836676501047028
"1290",3,36,1,1,90,3,2,0,2,1.38501331684497,1.39718653644584
"1291",3,32,1,2,91,2,1,0,2,0.711379471535729,0.801323482228249
"1292",3,26,1,2,92,1,1,0,3,0.586294063219064,0.560419712307011
"1293",3,23,1,2,93,3,1,0,1,0.669278942583654,0.742121977781262
"1294",3,28,1,1,94,2,2,0,3,0.785767447390571,0.686268000405593
"1295",3,36,1,1,95,1,1,1,5,0.634815608373277,0.641305769484868
"1296",3,30,1,2,96,3,1,0,1,1.31194744984607,1.35042651480331
"1297",3,34,1,1,97,1,1,1,5,0.304998533924686,0.332357055639705
"1298",3,25,1,2,98,2,1,0,2,0.851621501629479,0.797478357564446
"1299",3,36,1,1,99,2,1,1,3,0.737460352862493,0.717498652458379
"1300",3,36,1,1,100,2,1,1,3,0.545598924750196,0.599358401896361
"1301",3,32,1,2,101,1,2,1,5,0.395204738584743,0.419905790090985
"1302",3,26,1,1,102,3,2,0,1,0.928177811766037,0.934681346697007
"1303",3,23,1,2,103,3,2,1,3,1.07851948451194,1.10361402608394
"1304",3,28,1,2,104,1,2,1,5,0.516962063389389,0.473848661818492
"1305",3,36,1,2,105,3,2,1,2,0.923673975875154,0.831869181130953
"1306",3,30,1,1,106,1,2,0,4,0.359073778051616,0.347086389344601
"1307",3,34,1,1,107,2,2,0,3,0.7079244332782,0.784022335010884
"1308",3,25,1,2,108,3,1,0,2,0.669579024961309,0.675239519833195
"1309",3,36,1,1,109,1,1,1,4,0.4652730382328,0.408548760474212
"1310",3,36,1,1,110,3,1,1,2,0.781482053396421,0.773390073142212
"1311",3,32,1,2,111,2,1,0,2,0.445025574994135,0.468130347046067
"1312",3,26,1,2,112,2,1,0,3,0.846577708522646,0.854106255134162
"1313",3,23,1,2,113,3,1,0,2,0.418926658384644,0.432923427261284
"1314",3,28,1,1,114,3,1,1,3,1.02094526056836,0.956060633688922
"1315",3,36,1,2,115,1,2,1,4,0.423079528755201,0.367109939166378
"1316",3,30,1,1,116,1,2,0,3,0.619435322336823,0.558022291085746
"1317",3,34,1,1,117,2,2,0,2,0.621638476167667,0.656301869947322
"1318",3,25,1,2,118,2,2,1,4,0.596424437911184,0.504477319710139
"1319",3,36,1,1,119,3,2,0,1,1.80288703887146,1.68959555202057
"1320",3,36,1,1,120,3,2,0,1,1.56355427018191,1.53353150935908
"1321",3,32,1,1,121,1,1,1,4,0.482878314204285,0.446038643493201
"1322",3,26,1,1,122,2,1,1,3,0.48102843775194,0.484453914236772
"1323",3,23,1,2,123,3,1,0,2,0.473729585851522,0.476519586981349
"1324",3,28,1,1,124,3,2,0,1,1.07577184107908,1.06707656242196
"1325",3,36,1,1,125,1,1,1,4,0.409572742544109,0.45525617856109
"1326",3,30,1,2,126,2,2,1,4,0.447938313641145,0.411876774695647
"1327",3,34,1,1,127,1,1,1,5,0.440991468049238,0.451879697084823
"1328",3,25,1,1,128,1,1,1,5,0.531731092114965,0.475759852842408
"1329",3,36,1,1,129,2,1,1,3,0.558292854947462,0.524123097419376
"1330",3,36,1,1,130,2,1,1,4,0.552024435032093,0.595613256488116
"1331",3,32,1,2,131,1,1,0,4,0.454664184938217,0.381946488558268
"1332",3,26,1,1,132,2,1,1,3,0.732621742436412,0.663004734079737
"1333",3,23,1,2,133,2,2,1,3,0.458669296735032,0.458572875105977
"1334",3,28,1,1,134,3,1,1,2,1.00507042376977,0.988685768153832
"1335",3,36,1,2,135,2,2,1,4,0.562588532895639,0.527269303758668
"1336",3,30,1,2,136,3,2,1,3,1.08595175489465,1.10588621560896
"1337",3,34,1,2,137,1,1,0,4,0.477509383024489,0.536537429691857
"1338",3,25,1,1,138,2,1,1,3,0.78031135947639,0.79449982310889
"1339",3,36,1,2,139,3,2,1,2,0.882901778603819,0.905500324397057
"1340",3,36,1,1,140,1,1,1,5,0.334824269913553,0.354884518594897
"1341",3,32,1,1,141,3,2,0,1,0.585796697013968,0.619639590324885
"1342",3,26,1,2,142,1,1,0,3,0.507533285909425,0.5271288604828
"1343",3,23,1,2,143,3,1,0,2,0.772078638840884,0.718911605407514
"1344",3,28,1,1,144,1,1,1,5,0.43610554034965,0.34447782314449
"1345",3,36,1,2,145,1,1,0,4,0.368729246007923,0.397113681170391
"1346",3,30,1,2,146,1,2,1,4,0.366884729395447,0.514744307302879
"1347",3,34,1,1,147,3,1,1,2,0.563188632471559,0.558742663776662
"1348",3,25,1,2,148,3,1,0,1,1.17551292104403,1.21792789228653
"1349",3,36,1,2,149,2,1,0,2,0.665993286127068,0.698566400635595
"1350",3,36,1,1,150,2,2,0,3,0.663540402150435,0.595714065304706
"1351",3,32,1,2,151,1,1,0,3,0.53945252337654,0.522532949697234
"1352",3,26,1,1,152,2,1,1,3,0.528427529433157,0.461110916744679
"1353",3,23,1,1,153,3,1,1,3,0.891470313838309,0.94996900712619
"1354",3,28,1,2,154,3,1,0,1,0.53455020468223,0.457994553833844
"1355",3,36,1,2,155,2,1,0,3,0.710109323541244,0.741494691972836
"1356",3,30,1,2,156,2,2,1,3,0.863817625901718,0.909834898315706
"1357",3,34,1,1,157,2,2,0,2,0.687867203507273,0.759911062462794
"1358",3,25,1,1,158,1,2,0,3,0.486437191550637,0.413355599428384
"1359",3,36,1,2,159,2,1,0,3,0.85655877132114,0.797483809727352
"1360",3,36,1,2,160,3,1,0,1,0.71769976025106,0.685251753501755
"1361",3,32,1,2,161,2,2,1,4,0.311531622600321,0.384707240898227
"1362",3,26,1,1,162,2,1,1,4,0.709245144564774,0.7358634326106
"1363",3,23,1,1,163,2,1,1,3,0.683069401392471,0.689280190033161
"1364",3,28,1,1,164,1,1,1,5,0.365277205193478,0.35751283546987
"1365",3,36,1,1,165,2,2,0,3,0.725291621779225,0.729964858612396
"1366",3,30,1,2,166,1,2,1,5,0.317891229729444,0.21607680126044
"1367",3,34,1,2,167,3,2,1,3,0.93275773660219,0.908144340105676
"1368",3,25,1,1,168,1,1,1,5,0.428393731157924,0.428604470224303
"1369",3,36,1,2,169,2,1,0,3,0.264781522511148,0.296753973784421
"1370",3,36,1,1,170,3,1,1,2,0.80667875647458,0.722156477389396
"1371",3,32,1,2,171,1,2,1,5,0.292346693119089,0.201147602160638
"1372",3,26,1,2,172,3,2,1,3,0.879211311993433,0.783512228114612
"1373",3,23,1,1,173,3,1,1,3,0.718285123160695,0.789021445078253
"1374",3,28,1,2,174,1,2,1,4,0.34827055128465,0.252370254703732
"1375",3,36,1,1,175,1,2,0,3,0.588298808707156,0.649476263486286
"1376",3,30,1,2,176,2,1,0,2,0.670101385002213,0.609678040718258
"1377",3,34,1,2,177,2,2,1,3,0.550588725061943,0.665730406719909
"1378",3,25,1,2,178,1,1,0,4,0.55824557412623,0.526385787995909
"1379",3,36,1,1,179,1,2,0,4,0.395548877974817,0.388331415936929
"1380",3,36,1,1,180,3,2,0,2,0.973914325057052,1.01645210739952
"1381",3,32,1,1,181,3,2,0,1,0.859460526993499,0.792845734387196
"1382",3,26,1,2,182,3,2,1,2,0.580559851279638,0.542882821938362
"1383",3,23,1,1,183,3,1,1,2,0.5398783245284,0.54909158848838
"1384",3,28,1,2,184,3,2,1,2,0.552873142978811,0.554446586990401
"1385",3,36,1,1,185,2,2,0,2,0.700456550779443,0.737590655364313
"1386",3,30,1,2,186,2,2,1,4,0.444630136176748,0.523457769314943
"1387",3,34,1,2,187,1,2,1,5,0.454247826205219,0.398956997364204
"1388",3,25,1,1,188,3,1,1,3,0.827839705921283,0.793049144575521
"1389",3,36,1,2,189,3,2,1,2,0.700882232435515,0.613549440354563
"1390",3,36,1,2,190,1,1,0,4,0.455961362172573,0.432131422853004
"1391",3,32,1,2,191,2,2,1,4,0.517319360778407,0.506094806976948
"1392",3,26,1,1,192,2,1,1,3,0.592035558135331,0.51960219717732
"1393",3,23,1,2,193,3,1,0,1,1.13696743784268,1.08601061836526
"1394",3,28,1,1,194,2,2,0,3,0.516909706936376,0.448937373193025
"1395",3,36,1,1,195,1,1,1,5,0.357879090940351,0.293094244128221
"1396",3,30,1,1,196,1,2,0,4,0.62642039015215,0.596822395733748
"1397",3,34,1,2,197,3,2,1,3,0.90485939312383,0.845785517123619
"1398",3,25,1,1,198,1,1,1,5,0.540119156440242,0.527051247671537
"1399",3,36,1,2,199,1,2,1,4,0.245005984503773,0.199209037740729
"1400",3,36,1,1,200,1,1,1,4,0.276808287725847,0.326852075648471
"1401",3,32,1,2,201,2,2,1,4,0.597808234180325,0.691794558387381
"1402",3,26,1,2,202,1,2,1,4,0.321316013809068,0.343309823775258
"1403",3,23,1,1,203,1,1,1,5,0.331948041409665,0.374077009828849
"1404",3,28,1,1,204,1,2,0,4,0.503664568817103,0.550474348240847
"1405",3,36,1,1,205,1,1,1,5,0.442090880390911,0.418817496144346
"1406",3,30,1,1,206,2,1,1,4,0.682010567481121,0.693867563135313
"1407",3,34,1,1,207,1,2,0,4,0.506119865230355,0.514863490057099
"1408",3,25,1,2,208,2,1,0,2,0.666073141308604,0.592884248989564
"1409",3,36,1,1,209,3,2,0,1,1.08875213518865,1.13910145126248
"1410",3,36,1,1,210,2,2,0,3,0.507778775788525,0.524049545826903
"1411",3,32,1,1,211,3,2,0,1,0.590424513483696,0.622955333273962
"1412",3,26,1,1,212,2,1,1,4,0.646313894307305,0.597670698021818
"1413",3,23,1,1,213,2,1,1,3,0.627504726314497,0.606826280595202
"1414",3,28,1,2,214,1,2,1,4,0.388560812475813,0.302297374918047
"1415",3,36,1,2,215,2,1,0,2,0.403563567965667,0.470348790859339
"1416",3,30,1,2,216,2,1,0,3,0.682343183742098,0.687647247678503
"1417",3,34,1,1,217,1,1,1,5,0.289815964104586,0.250359683454757
"1418",3,25,1,2,218,1,1,0,4,0.615076163986245,0.588431762422474
"1419",3,36,1,2,219,3,2,1,2,1.12051067772154,1.18480600467171
"1420",3,36,1,1,220,1,2,0,3,0.353773023075873,0.426337872804547
"1421",3,32,1,1,221,3,2,0,1,1.19154525548747,1.1775289706686
"1422",3,26,1,2,222,3,2,1,3,0.759110760593931,0.814857743153912
"1423",3,23,1,2,223,3,1,0,1,0.380497862398197,0.404233957600715
"1424",3,28,1,2,224,1,2,1,5,0.461205820647775,0.418263100338732
"1425",3,36,1,2,225,3,1,0,2,0.430794058322908,0.497246331227335
"1426",3,30,1,1,226,3,1,1,2,0.755532423155396,0.758859144411119
"1427",3,34,1,1,227,2,1,1,4,0.497405794795563,0.490430252502237
"1428",3,25,1,2,228,3,2,1,2,0.965800959618994,0.932521603171582
"1429",3,36,1,2,229,1,1,0,3,0.617064007596749,0.655936195174284
"1430",3,36,1,1,230,2,1,1,4,0.67076951578368,0.726833048710899
"1431",3,32,1,1,231,1,1,1,4,0.302947643190785,0.310625778024865
"1432",3,26,1,2,232,3,1,0,1,0.735140895249913,0.645413334162079
"1433",3,23,1,1,233,1,1,1,5,0.364981330194427,0.431890462919466
"1434",3,28,1,1,234,2,2,0,3,0.6299139508236,0.565187946658337
"1435",3,36,1,2,235,3,1,0,1,0.938431072629766,1.0478614772901
"1436",3,30,1,2,236,1,1,0,3,0.732848390096784,0.688143974811361
"1437",3,34,1,2,237,1,2,1,5,0.302639527116442,0.31338108019718
"1438",3,25,1,2,238,2,1,0,3,0.602106107788471,0.547559997918437
"1439",3,36,1,1,239,3,2,0,2,1.35313332443208,1.34167880970986
"1440",3,36,1,1,240,3,2,0,2,0.848766869291996,0.854678935538838
"1441",2,29,2,2,1,1,2,1,4,0.307825927612126,0.349340877046093
"1442",2,30,2,1,2,1,2,0,3,0.638524137129286,0.640064306619794
"1443",2,23,2,2,3,3,2,1,3,1.07345366951871,1.1607775844035
"1444",2,31,2,2,4,2,2,1,3,0.537210743716399,0.527334659589053
"1445",2,24,2,1,5,1,2,0,3,0.645352464967526,0.64967696406535
"1446",2,19,2,1,6,3,1,1,3,1.30700477109985,1.30640766913641
"1447",2,18,2,2,7,3,2,1,3,0.572668639902578,0.508447536431238
"1448",2,30,2,1,8,3,2,0,1,0.228672568487545,0.134365594195329
"1449",2,36,2,2,9,2,2,1,4,0.777981382513584,0.712205943137448
"1450",2,24,2,2,10,2,2,1,4,0.514455884995571,0.568445503461315
"1451",2,29,2,2,11,2,2,1,4,0.531258212599121,0.523759598640115
"1452",2,30,2,2,12,1,2,1,5,0.360424666863812,0.320472550470237
"1453",2,23,2,1,13,1,2,0,3,0.525798049800293,0.488189849131512
"1454",2,31,2,1,14,2,1,1,3,0.615512285831575,0.623636771484178
"1455",2,24,2,1,15,2,1,1,4,0.406023050930838,0.405171295551132
"1456",2,19,2,2,16,1,2,1,5,0.436885038776161,0.386547430295274
"1457",2,18,2,1,17,3,1,1,3,0.522673988933901,0.45073751235809
"1458",2,30,2,2,18,1,2,1,5,0.32972485705909,0.334149761452721
"1459",2,36,2,2,19,1,2,1,5,0.368929790996315,0.343828128226858
"1460",2,24,2,2,20,2,2,1,4,0.813888926193426,0.78494552408526
"1461",2,29,2,2,21,3,1,0,1,0.91157682288672,0.888832163763314
"1462",2,30,2,2,22,2,2,1,4,0.683550483740515,0.699743669392543
"1463",2,23,2,2,23,2,2,1,3,0.68513453728084,0.68245899836134
"1464",2,31,2,1,24,3,1,1,2,1.44148296837781,1.48618389310393
"1465",2,24,2,2,25,3,2,1,3,0.680704671661052,0.64199354421007
"1466",2,19,2,2,26,3,1,0,2,1.14451401283544,1.18741220476666
"1467",2,18,2,2,27,1,1,0,3,0.495237989018769,0.465558608764788
"1468",2,30,2,2,28,3,2,1,3,0.95557201307114,0.939184618148721
"1469",2,36,2,2,29,3,2,1,3,0.564586089827822,0.541836118101714
"1470",2,24,2,1,30,3,1,1,3,0.843348160423081,0.781709431481319
"1471",2,29,2,2,31,1,2,1,5,0.370826243500393,0.367181874214971
"1472",2,30,2,2,32,1,2,1,5,0.45481200750584,0.419791237345818
"1473",2,23,2,1,33,1,1,1,5,0.553608851713855,0.55680947384587
"1474",2,31,2,2,34,3,2,1,2,0.689124575233709,0.675312092052574
"1475",2,24,2,1,35,1,2,0,4,0.638007330680735,0.662299095504475
"1476",2,19,2,2,36,3,1,0,2,1.55474729107777,1.65650417356353
"1477",2,18,2,2,37,2,2,1,3,0.614461797137802,0.594200182457867
"1478",2,30,2,1,38,1,1,1,5,0.505708994283195,0.566386766828385
"1479",2,36,2,2,39,2,2,1,3,0.568729281740675,0.609941013425346
"1480",2,24,2,2,40,3,1,0,2,1.28249562000125,1.3322211504362
"1481",2,29,2,2,41,1,2,1,4,0.314371230729743,0.301623837977644
"1482",2,30,2,1,42,1,2,0,3,0.455275579016058,0.405385423086034
"1483",2,23,2,2,43,1,1,0,3,0.325485692952192,0.261589686099266
"1484",2,31,2,1,44,3,2,0,2,0.393484765607332,0.38486291940542
"1485",2,24,2,1,45,1,1,1,4,0.439793207211534,0.382640881281721
"1486",2,19,2,1,46,2,2,0,3,0.456440543717022,0.493148224168743
"1487",2,18,2,1,47,3,1,1,3,0.526277844615532,0.594652155309704
"1488",2,30,2,1,48,1,1,1,4,0.415505401021585,0.460434007857479
"1489",2,36,2,1,49,1,1,1,4,0.329274452908705,0.381543842474349
"1490",2,24,2,2,50,2,2,1,3,0.596614926296987,0.675373121539945
"1491",2,29,2,1,51,2,2,0,2,0.717797939144096,0.769758107019447
"1492",2,30,2,1,52,1,1,1,5,0.458422853901484,0.511937470463266
"1493",2,23,2,1,53,1,1,1,5,0.525080566713531,0.485920360894946
"1494",2,31,2,1,54,3,2,0,1,0.670950586110419,0.699483542331368
"1495",2,24,2,2,55,2,2,1,3,0.62906684780995,0.587418244834197
"1496",2,19,2,2,56,3,1,0,2,0.825981060604639,0.812430928310081
"1497",2,18,2,2,57,1,1,0,4,0.377579340082498,0.415969967462555
"1498",2,30,2,1,58,1,1,1,5,0.499774989321276,0.459525558292011
"1499",2,36,2,1,59,2,2,0,2,0.693461587934904,0.771341774733281
"1500",2,24,2,1,60,2,1,1,4,0.739335128812696,0.700263056606413
"1501",2,29,2,1,61,1,2,0,3,0.404456359725126,0.485003149967597
"1502",2,30,2,1,62,2,1,1,3,0.747215687587336,0.809281434784973
"1503",2,23,2,1,63,3,1,1,2,0.604882263974048,0.65014192252317
"1504",2,31,2,1,64,3,2,0,2,1.46969704814762,1.47696676159076
"1505",2,24,2,1,65,2,2,0,3,0.805387342448435,0.774964571364865
"1506",2,19,2,1,66,1,1,1,5,0.52577863930292,0.475548265202021
"1507",2,18,2,1,67,2,2,0,3,0.773596653117871,0.786146471464631
"1508",2,30,2,1,68,1,1,1,5,0.471104276075072,0.367710150675185
"1509",2,36,2,2,69,2,2,1,3,0.574535252161228,0.639696221027287
"1510",2,24,2,2,70,3,1,0,2,1.0374478171774,1.07527746352307
"1511",2,29,2,2,71,2,1,0,3,0.770083302785991,0.760230627690223
"1512",2,30,2,1,72,3,1,1,2,1.02969958706948,1.06262246155126
"1513",2,23,2,2,73,2,2,1,4,0.521496008371874,0.591262937854008
"1514",2,31,2,1,74,1,1,1,5,0.443140616186309,0.409190251956228
"1515",2,24,2,1,75,2,2,0,3,0.850429181977906,0.945730916504628
"1516",2,19,2,1,76,3,1,1,2,0.909315736463144,0.969135365923296
"1517",2,18,2,2,77,2,2,1,3,0.743923089473106,0.828195198383896
"1518",2,30,2,2,78,2,1,0,3,0.482768515908632,0.498031838187053
"1519",2,36,2,2,79,2,2,1,4,0.73102512641281,0.721192821679688
"1520",2,24,2,2,80,3,2,1,3,0.870870058617699,0.848898267645156
"1521",2,29,2,1,81,3,2,0,1,0.280628302645692,0.248798226547846
"1522",2,30,2,2,82,2,1,0,3,0.678301238096266,0.749439970347768
"1523",2,23,2,1,83,2,1,1,4,0.650628977813042,0.615949667696536
"1524",2,31,2,1,84,1,1,1,5,0.443267662449697,0.510227716992895
"1525",2,24,2,2,85,2,1,0,3,0.665838779831391,0.664946874342505
"1526",2,19,2,1,86,1,1,1,5,0.367716457353922,0.421664433200439
"1527",2,18,2,2,87,1,2,1,5,0.351973118219382,0.369092812448489
"1528",2,30,2,2,88,1,2,1,5,0.366204943612109,0.389342361650273
"1529",2,36,2,1,89,1,2,0,4,0.669406182995299,0.702020586584612
"1530",2,24,2,2,90,2,1,0,3,0.499237075779494,0.486139880211445
"1531",2,29,2,2,91,1,2,1,4,0.331355409767223,0.376446068765544
"1532",2,30,2,2,92,3,1,0,1,0.975498512162797,1.00101431874665
"1533",2,23,2,2,93,3,2,1,2,0.906493583713619,0.934041668471099
"1534",2,31,2,2,94,2,1,0,2,0.750132989912898,0.738154373808309
"1535",2,24,2,2,95,3,2,1,2,0.980222168892825,1.08987516121452
"1536",2,19,2,2,96,2,1,0,3,0.433845443557366,0.394956608712208
"1537",2,18,2,1,97,3,1,1,3,0.928212438753839,0.887309657656283
"1538",2,30,2,2,98,2,2,1,4,0.507746648396596,0.560761553645319
"1539",2,36,2,1,99,1,1,1,5,0.44724253295836,0.404323092030743
"1540",2,24,2,2,100,1,1,0,4,0.683320578530383,0.585336488879172
"1541",2,29,2,2,101,2,2,1,3,0.639403070795113,0.700273908097907
"1542",2,30,2,2,102,2,2,1,3,0.505998867950109,0.444853295840766
"1543",2,23,2,2,103,1,2,1,5,0.46243806315807,0.448403639243696
"1544",2,31,2,2,104,3,1,0,1,0.731904510472913,0.73311311440599
"1545",2,24,2,2,105,3,2,1,3,0.76728520063583,0.757674819068954
"1546",2,19,2,2,106,3,1,0,1,0.983329610943787,1.03562182563975
"1547",2,18,2,2,107,2,2,1,4,0.423222181233247,0.452372806786484
"1548",2,30,2,1,108,3,1,1,3,0.741859741696189,0.768857614465194
"1549",2,36,2,1,109,3,2,0,2,1.37257087812312,1.44166787079905
"1550",2,24,2,2,110,2,1,0,3,0.60056307561953,0.601999485526905
"1551",2,29,2,1,111,1,2,0,3,0.550019242161704,0.557447315586393
"1552",2,30,2,1,112,3,1,1,2,0.647649110983665,0.679508445231021
"1553",2,23,2,2,113,2,1,0,2,0.69023599358618,0.631582278254226
"1554",2,31,2,1,114,1,1,1,4,0.375088792091569,0.374335781059225
"1555",2,24,2,1,115,1,2,0,3,0.606273265570163,0.637646494451962
"1556",2,19,2,1,116,2,2,0,2,0.464332904578189,0.486194409631243
"1557",2,18,2,1,117,2,1,1,4,0.702070339526233,0.686032314826467
"1558",2,30,2,2,118,3,1,0,2,0.394619060902603,0.394446756540433
"1559",2,36,2,1,119,3,2,0,1,0.741263884100549,0.793929372273546
"1560",2,24,2,2,120,2,2,1,4,0.534454098299786,0.503200261552254
"1561",2,29,2,2,121,2,2,1,3,0.48783826460731,0.534228228208734
"1562",2,30,2,1,122,3,1,1,3,0.608897695942477,0.660296313227812
"1563",2,23,2,1,123,1,1,1,5,0.421250080869539,0.507958886111866
"1564",2,31,2,2,124,3,1,0,2,0.653612832641144,0.593851096135652
"1565",2,24,2,2,125,2,2,1,4,0.769311914932148,0.710852010932773
"1566",2,19,2,2,126,1,2,1,4,0.409965796370864,0.429446730154079
"1567",2,18,2,1,127,1,1,1,5,0.307171929223267,0.222242897091857
"1568",2,30,2,2,128,2,2,1,3,0.747486173187407,0.731131503715645
"1569",2,36,2,1,129,2,2,0,3,0.64887007223542,0.732914591471116
"1570",2,24,2,2,130,2,2,1,3,0.61289321609718,0.672526924168684
"1571",2,29,2,1,131,2,2,0,3,0.542975560685735,0.585085225666211
"1572",2,30,2,2,132,1,1,0,3,0.614394728643297,0.554110893852708
"1573",2,23,2,1,133,3,2,0,1,1.67823198340622,1.68737450877597
"1574",2,31,2,1,134,2,2,0,2,0.815962888090597,0.866387393531157
"1575",2,24,2,1,135,2,1,1,3,0.746928066747567,0.773883415311102
"1576",2,19,2,1,136,3,1,1,3,0.831350172085234,0.809396490764703
"1577",2,18,2,1,137,2,1,1,3,0.584023909244825,0.579453331679869
"1578",2,30,2,1,138,1,1,1,4,0.486099078741565,0.479439066928403
"1579",2,36,2,1,139,3,1,1,2,0.868004995480365,0.881354259811265
"1580",2,24,2,2,140,3,1,0,2,0.524149378365875,0.456685126463331
"1581",2,29,2,2,141,3,1,0,1,1.06381442764358,1.04168938536597
"1582",2,30,2,1,142,1,1,1,5,0.488305771797793,0.463015893551177
"1583",2,23,2,2,143,3,1,0,2,1.28499148249662,1.27453176364777
"1584",2,31,2,1,144,1,1,1,5,0.45512818658519,0.452347259713322
"1585",2,24,2,1,145,2,1,1,3,0.720152972309226,0.752181615780318
"1586",2,19,2,1,146,2,1,1,3,0.687452357555225,0.779564294786915
"1587",2,18,2,2,147,1,2,1,4,0.248599353246836,0.343945096575247
"1588",2,30,2,1,148,3,1,1,3,0.70670310539959,0.769678578121183
"1589",2,36,2,2,149,3,2,1,3,0.956093608318841,1.06837463549007
"1590",2,24,2,2,150,2,2,1,4,0.382501005674026,0.324031667021097
"1591",2,29,2,2,151,2,1,0,2,0.675596512705127,0.714773328837582
"1592",2,30,2,2,152,3,1,0,1,0.591033484787438,0.629157576377295
"1593",2,23,2,2,153,3,1,0,2,1.7064104380919,1.68008624011666
"1594",2,31,2,2,154,3,1,0,1,1.0523186094332,0.979260081917214
"1595",2,24,2,2,155,2,2,1,4,0.441566292317846,0.422234598717815
"1596",2,19,2,1,156,3,1,1,3,0.731427952614895,0.835056434156009
"1597",2,18,2,1,157,3,1,1,2,1.22110425309543,1.23808714130656
"1598",2,30,2,2,158,1,2,1,5,0.35982647716495,0.314582070989122
"1599",2,36,2,1,159,3,2,0,2,1.14793837296173,1.14849144541141
"1600",2,24,2,1,160,2,1,1,3,0.598058483409569,0.606868126395626
"1601",2,29,2,2,161,3,1,0,2,0.632321076825544,0.668088874402939
