subj_no,age,group,stim,trial,difficulty,resp,corr,conf,RT_day1,RT_day2
40,19,2,1,1,3,1,1,3,1.007425474,0.906937868
40,36,2,1,2,1,1,1,4,0.331035777,0.370079306
40,35,2,1,3,3,1,1,3,1.033602562,1.042990699
40,26,2,2,4,1,2,1,4,0.363518942,0.38799966
40,38,2,2,5,1,2,1,4,0.369657535,0.32493785
40,32,2,2,6,2,2,1,4,0.755745911,0.856133053
40,31,2,1,7,1,1,1,5,0.665238137,0.640944756
40,34,2,1,8,2,1,1,4,0.704836065,0.766070059
40,34,2,1,9,1,2,0,3,0.557841426,0.522667528
40,25,2,1,10,2,2,0,2,0.659464072,0.669160834
40,19,2,2,11,3,1,0,2,0.766637495,0.818913133
40,36,2,2,12,3,1,0,2,0.983485747,1.031663888
40,35,2,1,13,3,2,0,1,0.521093705,0.503654494
40,26,2,1,14,3,2,0,1,1.110838718,1.073022114
40,38,2,1,15,3,1,1,3,0.76320186,0.683055888
40,32,2,2,16,2,2,1,3,0.579039267,0.580764156
40,31,2,2,17,2,2,1,3,0.468508714,0.461835686
40,34,2,1,18,2,2,0,2,0.583921864,0.565794294
40,34,2,1,19,1,1,1,5,0.402125891,0.403719748
40,25,2,2,20,1,1,0,3,0.579931358,0.61071928
40,19,2,1,21,3,1,1,3,0.568160072,0.616112746
40,36,2,1,22,1,1,1,5,0.456405989,0.452418473
40,35,2,2,23,3,2,1,2,1.151811275,1.131113263
40,26,2,2,24,2,1,0,2,0.78741029,0.755282092
40,38,2,2,25,2,1,0,3,0.615627084,0.551482767
40,32,2,2,26,3,1,0,2,0.854791954,0.7264531
40,31,2,2,27,3,2,1,3,1.003141655,1.0934148
40,34,2,2,28,2,2,1,4,0.525072435,0.546013723
40,34,2,2,29,2,2,1,4,0.515802693,0.620138658
40,25,2,2,30,3,1,0,1,1.49073829,1.377374363
40,19,2,2,31,1,2,1,4,0.412346138,0.349396091
40,36,2,2,32,1,2,1,5,0.50082314,0.519213655
40,35,2,2,33,2,2,1,4,0.543924219,0.599552613
40,26,2,2,34,3,2,1,3,0.62328909,0.596207652
40,38,2,1,35,2,1,1,3,0.475018263,0.434328485
40,32,2,1,36,1,1,1,5,0.377030182,0.299199848
40,31,2,2,37,3,2,1,2,0.538586671,0.518486248
40,34,2,1,38,2,2,0,3,0.755224916,0.693288905
40,34,2,2,39,2,2,1,3,0.338918858,0.323802231
40,25,2,1,40,2,2,0,3,0.631529306,0.634479166
40,19,2,2,41,2,1,0,3,0.977395473,0.988959329
40,36,2,1,42,1,1,1,4,0.31798076,0.343225339
40,35,2,1,43,3,2,0,1,0.525976754,0.435531574
40,26,2,1,44,2,1,1,3,0.705512295,0.629452716
40,38,2,2,45,3,1,0,2,0.896398194,0.925180708
40,32,2,1,46,3,2,0,1,0.935181826,0.888199658
40,31,2,1,47,2,1,1,3,0.778651487,0.667853378
40,34,2,1,48,1,1,1,4,0.479610189,0.44502216
40,34,2,2,49,1,2,1,4,0.349467431,0.347989227
40,25,2,2,50,1,1,0,3,0.685698817,0.781477031
40,19,2,2,51,3,2,1,2,0.828152697,0.805751924
40,36,2,2,52,2,2,1,4,0.810650015,0.790363427
40,35,2,2,53,1,2,1,4,0.279577243,0.19200356
40,26,2,1,54,1,1,1,4,0.376276448,0.261779768
40,38,2,2,55,2,2,1,4,0.587962528,0.641858832
40,32,2,2,56,1,2,1,4,0.393075907,0.371832154
40,31,2,2,57,2,1,0,2,0.8162562,0.793612983
40,34,2,1,58,1,1,1,4,0.379715443,0.324264976
40,34,2,1,59,1,2,0,4,0.578252723,0.54780526
40,25,2,1,60,3,2,0,2,0.852342922,0.834503501
40,19,2,1,61,1,1,1,5,0.397051767,0.404936646
40,36,2,2,62,3,2,1,3,0.757910122,0.669360774
40,35,2,2,63,3,2,1,2,0.820211875,0.821225928
40,26,2,1,64,1,1,1,4,0.525973245,0.598689974
40,38,2,2,65,1,2,1,5,0.464127998,0.423275142
40,32,2,1,66,3,1,1,3,1.240354111,1.131354101
40,31,2,2,67,1,2,1,5,0.358833142,0.28968069
40,34,2,1,68,2,1,1,4,0.44547956,0.423319945
40,34,2,1,69,2,1,1,4,0.752304517,0.722939933
40,25,2,2,70,1,2,1,4,0.279529068,0.410740845
40,19,2,2,71,3,1,0,1,0.198602268,0.160691448
40,36,2,2,72,2,1,0,2,0.775648849,0.834743843
40,35,2,1,73,3,2,0,1,0.946213676,0.838144926
40,26,2,2,74,3,1,0,1,0.867932026,0.767352928
40,38,2,1,75,3,1,1,2,1.041115391,1.004384342
40,32,2,2,76,2,2,1,3,0.722905199,0.72635052
40,31,2,1,77,1,1,1,5,0.505947075,0.47379283
40,34,2,1,78,1,1,1,4,0.340930727,0.308547584
40,34,2,2,79,3,2,1,2,0.396191053,0.350383362
40,25,2,1,80,3,2,0,1,0.760424581,0.773007993
40,19,2,1,81,3,1,1,2,0.805953482,0.741170208
40,36,2,1,82,2,1,1,4,0.597825253,0.734010302
40,35,2,1,83,2,1,1,3,0.485139668,0.47226351
40,26,2,1,84,2,1,1,3,0.274957317,0.329744994
40,38,2,2,85,2,2,1,3,0.473055336,0.412617786
40,32,2,2,86,3,1,0,2,0.748481929,0.806035954
40,31,2,1,87,2,2,0,2,0.784164534,0.724940179
40,34,2,2,88,1,2,1,5,0.419158125,0.438484863
40,34,2,1,89,2,1,1,3,0.674589678,0.77107854
40,25,2,1,90,3,2,0,2,0.919356147,0.898052578
40,19,2,2,91,1,2,1,5,0.391092861,0.397071753
40,36,2,1,92,2,1,1,3,0.580465597,0.512182971
40,35,2,1,93,2,2,0,2,0.801616432,0.789750907
40,26,2,1,94,3,2,0,1,1.695618687,1.645170436
40,38,2,1,95,1,1,1,5,0.29740512,0.37797334
40,32,2,1,96,1,1,1,5,0.36508698,0.290179048
40,31,2,2,97,2,2,1,4,0.786242908,0.694993784
40,34,2,1,98,1,2,0,4,0.556486809,0.532808693
40,34,2,2,99,3,1,0,2,1.655855671,1.811782543
40,25,2,1,100,3,1,1,3,0.711129391,0.688695357
40,19,2,2,101,3,2,1,3,0.755864974,0.773077725
40,36,2,2,102,1,1,0,4,0.537366924,0.576357046
40,35,2,1,103,1,1,1,5,0.401925693,0.404454213
40,26,2,2,104,1,2,1,5,0.341159377,0.352077984
40,38,2,1,105,2,2,0,3,0.605364681,0.648400979
40,32,2,1,106,3,1,1,2,0.810860842,0.850953293
40,31,2,1,107,3,1,1,3,0.808348826,0.846585779
40,34,2,1,108,2,1,1,4,0.905655663,0.843620083
40,34,2,1,109,2,2,0,2,0.736954469,0.644753816
40,25,2,1,110,2,1,1,4,0.600127996,0.594636477
40,19,2,2,111,2,1,0,3,0.478174658,0.445964696
40,36,2,2,112,3,2,1,2,0.832480952,0.780575732
40,35,2,1,113,2,1,1,4,0.609467471,0.620669721
40,26,2,2,114,1,2,1,5,0.384799469,0.399478798
40,38,2,2,115,1,2,1,4,0.3106315,0.274906677
40,32,2,1,116,2,1,1,4,0.384477566,0.405165695
40,31,2,1,117,3,1,1,3,0.828052774,0.838870247
40,34,2,2,118,2,1,0,3,0.824236009,0.810692975
40,34,2,2,119,2,2,1,4,0.531844569,0.515576497
40,25,2,1,120,1,1,1,4,0.478137775,0.390730296
40,19,2,2,121,2,2,1,3,0.642256577,0.764125391
40,36,2,1,122,1,1,1,4,0.349654096,0.426969079
40,35,2,1,123,1,1,1,5,0.346361683,0.347969173
40,26,2,2,124,1,1,0,3,0.506743332,0.488685093
40,38,2,1,125,2,2,0,2,0.549871275,0.523612757
40,32,2,2,126,3,2,1,3,0.738708685,0.677811545
40,31,2,2,127,2,1,0,3,0.786968755,0.764143195
40,34,2,1,128,1,1,1,4,0.320447191,0.261906825
40,34,2,1,129,1,1,1,4,0.336216878,0.336576708
40,25,2,2,130,1,2,1,4,0.258879651,0.298308748
40,19,2,1,131,2,1,1,4,0.648514568,0.677253333
40,36,2,1,132,3,1,1,3,0.431696362,0.464894152
40,35,2,1,133,3,1,1,3,0.760441022,0.705832343
40,26,2,1,134,2,1,1,4,0.572681762,0.56121421
40,38,2,2,135,1,2,1,5,0.265630327,0.343500607
40,32,2,1,136,3,2,0,2,0.531924329,0.483930128
40,31,2,1,137,2,1,1,3,0.628548992,0.660319236
40,34,2,1,138,2,2,0,2,0.491347326,0.494353158
40,34,2,1,139,3,2,0,2,0.732322312,0.783253837
40,25,2,2,140,2,2,1,3,0.612588733,0.587563063
40,19,2,2,141,3,2,1,2,0.721060327,0.705494551
40,36,2,1,142,3,1,1,3,0.947264199,0.952055709
40,35,2,1,143,1,1,1,5,0.331176603,0.218917712
40,26,2,1,144,1,1,1,4,0.415891843,0.480606262
40,38,2,1,145,1,2,0,3,0.681631672,0.662208546
40,32,2,1,146,3,1,1,2,0.698281693,0.79022865
40,31,2,1,147,2,1,1,3,0.645071509,0.577280874
40,34,2,1,148,1,1,1,5,0.576544762,0.589140552
40,34,2,1,149,1,1,1,5,0.337612213,0.35095369
40,25,2,2,150,2,1,0,3,0.462882402,0.329536297
40,19,2,2,151,1,2,1,4,0.302729353,0.313376025
40,36,2,1,152,2,1,1,3,0.675721902,0.719433186
40,35,2,1,153,1,1,1,4,0.395083296,0.383010356
40,26,2,1,154,2,1,1,3,0.718705759,0.707025147
40,38,2,1,155,3,2,0,2,0.608243094,0.554828379
40,32,2,1,156,1,1,1,4,0.495515104,0.574906616
40,31,2,2,157,1,2,1,5,0.370846889,0.329303847
40,34,2,2,158,2,2,1,3,0.635399712,0.590691073
40,34,2,2,159,3,1,0,1,1.177393303,1.189405477
40,25,2,1,160,2,1,1,4,0.575124144,0.548258271
40,19,2,2,161,3,1,0,1,0.640322301,0.568176518
40,36,2,2,162,1,2,1,5,0.416948646,0.478565429
40,35,2,2,163,1,2,1,5,0.381297719,0.364352136
40,26,2,1,164,3,1,1,3,0.572371021,0.645967587
40,38,2,1,165,3,2,0,1,0.918566035,1.003823537
40,32,2,2,166,3,2,1,2,0.920251169,0.952465959
40,31,2,2,167,3,1,0,1,0.495900503,0.452098951
40,34,2,2,168,2,1,0,3,0.538422837,0.526692887
40,34,2,1,169,3,1,1,3,0.873544166,0.848333516
40,25,2,1,170,2,2,0,2,0.96793901,0.937041474
40,19,2,1,171,2,2,0,3,0.670216484,0.663671519
40,36,2,1,172,2,2,0,2,0.637814193,0.621245111
40,35,2,2,173,1,2,1,5,0.411686778,0.407931796
40,26,2,2,174,1,2,1,4,0.475498349,0.489342826
40,38,2,2,175,3,2,1,3,0.744871652,0.765634633
40,32,2,1,176,2,1,1,3,0.294620175,0.280960042
40,31,2,2,177,2,1,0,3,0.743195285,0.67941823
40,34,2,1,178,3,1,1,2,0.883757363,0.988416349
40,34,2,2,179,1,2,1,5,0.335583956,0.367879946
40,25,2,2,180,3,2,1,3,0.927660656,0.910884066
40,19,2,2,181,1,2,1,4,0.513266743,0.453012064
40,36,2,1,182,2,2,0,3,0.68049713,0.797826455
40,35,2,2,183,3,2,1,2,0.378684382,0.352119965
40,26,2,1,184,3,1,1,3,0.706281782,0.813151512
40,38,2,2,185,3,1,0,2,1.332301744,1.34479986
40,32,2,2,186,1,2,1,5,0.41897777,0.483052724
40,31,2,1,187,1,1,1,5,0.485589033,0.570495112
40,34,2,2,188,1,2,1,4,0.382156586,0.381371936
40,34,2,2,189,1,2,1,4,0.319589239,0.351191621
40,25,2,1,190,2,1,1,3,0.713457315,0.724543928
40,19,2,2,191,1,2,1,5,0.464121821,0.49776837
40,36,2,1,192,2,2,0,2,0.850638442,0.769550119
40,35,2,2,193,2,2,1,3,0.359030438,0.370232617
40,26,2,1,194,1,1,1,5,0.377495487,0.405135795
40,38,2,1,195,3,2,0,1,1.517891513,1.577481028
40,32,2,2,196,3,2,1,2,0.669538721,0.668069294
40,31,2,1,197,2,2,0,2,0.819308742,0.805016589
40,34,2,1,198,1,1,1,5,0.486093697,0.492487713
40,34,2,2,199,3,1,0,2,0.504485327,0.547093612
40,25,2,2,200,1,2,1,4,0.442651272,0.503671013
40,19,2,2,201,1,2,1,4,0.494372098,0.546332248
40,36,2,2,202,3,1,0,2,0.975253521,0.951194255
40,35,2,2,203,1,1,0,4,0.427944577,0.414638895
40,26,2,2,204,2,2,1,3,0.61133392,0.562773339
40,38,2,1,205,3,2,0,1,0.987004052,1.059216967
40,32,2,1,206,1,1,1,5,0.400476534,0.371559776
40,31,2,2,207,1,2,1,5,0.355762302,0.374350147
40,34,2,1,208,2,1,1,3,0.413479577,0.411994999
40,34,2,1,209,3,1,1,3,0.88809876,0.816985003
40,25,2,2,210,2,1,0,3,0.826513019,0.822903864
40,19,2,2,211,3,2,1,3,0.723716035,0.710400497
40,36,2,2,212,2,2,1,3,0.806632735,0.813537634
40,35,2,1,213,3,2,0,1,0.762578667,0.7103156
40,26,2,2,214,2,1,0,3,0.628512871,0.639356424
40,38,2,1,215,3,2,0,2,0.568202565,0.643928851
40,32,2,1,216,3,2,0,2,1.185102029,1.117012211
40,31,2,2,217,2,1,0,2,0.914234663,0.912147796
40,34,2,2,218,3,1,0,1,0.588376474,0.58530567
40,34,2,2,219,3,2,1,2,0.835585926,0.81615732
40,25,2,2,220,1,2,1,4,0.412313135,0.388095317
40,19,2,2,221,3,2,1,3,0.976326932,0.888841688
40,36,2,2,222,2,1,0,3,0.510957412,0.517980128
40,35,2,2,223,1,2,1,5,0.422745504,0.496536191
40,26,2,1,224,2,2,0,2,0.789637839,0.794450798
40,38,2,2,225,1,2,1,4,0.403403294,0.436706528
40,32,2,2,226,3,2,1,2,1.029423341,1.02732651
40,31,2,2,227,3,2,1,3,0.992473594,0.95935069
40,34,2,1,228,1,1,1,5,0.395724558,0.363625695
40,34,2,2,229,1,2,1,5,0.490498509,0.495556342
40,25,2,2,230,3,2,1,2,0.810032647,0.662014777
40,19,2,1,231,2,1,1,4,0.675600963,0.658122647
40,36,2,2,232,2,1,0,3,0.995686919,0.983748719
40,35,2,1,233,1,2,0,4,0.555372108,0.523967449
40,26,2,2,234,2,2,1,3,0.643874787,0.655465581
40,38,2,2,235,3,2,1,2,0.848539736,0.855660921
40,32,2,2,236,2,2,1,3,0.613400647,0.716737079
40,31,2,2,237,3,1,0,1,0.997218276,0.995449521
40,34,2,2,238,1,2,1,4,0.338751773,0.335175165
40,34,2,1,239,3,2,0,1,1.089145491,1.155855625
40,25,2,1,240,1,1,1,5,0.408540855,0.400592614
39,22,1,2,1,3,1,0,1,0.949740336,0.944563744
39,24,1,1,2,1,1,1,5,0.367449445,0.331160606
39,20,1,2,3,2,1,0,2,0.546207135,0.547346061
39,38,1,1,4,2,2,0,2,0.651185922,0.624448477
39,29,1,1,5,3,2,0,1,0.729529504,0.640921053
39,40,1,2,6,2,1,0,3,0.512539569,0.489223467
39,32,1,1,7,2,1,1,4,0.516047888,0.618626987
39,24,1,1,8,2,1,1,3,0.570925253,0.59478643
39,26,1,2,9,3,1,0,1,1.579594249,1.52828901
39,21,1,2,10,1,1,0,4,0.739093598,0.725948092
39,22,1,2,11,1,2,1,5,0.457538816,0.412211264
39,24,1,1,12,2,1,1,3,0.880946587,0.867181813
39,20,1,1,13,2,2,0,2,0.72766708,0.757927181
39,38,1,2,14,3,2,1,2,0.733614942,0.824046038
39,29,1,1,15,2,2,0,3,0.756772691,0.762768137
39,40,1,2,16,1,2,1,4,0.3856592,0.371673561
39,32,1,1,17,1,2,0,3,0.600971278,0.635217044
39,24,1,1,18,1,1,1,4,0.440726707,0.505522198
39,26,1,2,19,3,1,0,2,0.907842779,0.942150998
39,21,1,1,20,1,1,1,4,0.321204443,0.278463396
39,22,1,2,21,2,1,0,3,0.279841871,0.212607257
39,24,1,2,22,1,2,1,5,0.461869648,0.469376633
39,20,1,2,23,3,2,1,3,0.813947417,0.830846347
39,38,1,2,24,3,1,0,2,0.36079798,0.315766328
39,29,1,1,25,2,2,0,3,0.636011401,0.620020095
39,40,1,2,26,2,2,1,3,0.556237768,0.511050411
39,32,1,2,27,1,1,0,4,0.420881347,0.421588268
39,24,1,1,28,1,1,1,4,0.377688006,0.414322798
39,26,1,2,29,3,2,1,3,0.786939937,0.712001119
39,21,1,2,30,1,1,0,3,0.48369428,0.396489976
39,22,1,1,31,3,2,0,1,0.641916688,0.569914613
39,24,1,1,32,2,2,0,3,0.599976164,0.554540625
39,20,1,2,33,2,2,1,4,0.662336436,0.634390751
39,38,1,2,34,3,1,0,1,1.153887664,1.172934492
39,29,1,1,35,3,1,1,3,1.276666935,1.250357927
39,40,1,2,36,3,2,1,2,0.52575105,0.463154172
39,32,1,2,37,3,2,1,3,1.078934566,1.105217322
39,24,1,1,38,3,2,0,1,0.655801065,0.695378892
39,26,1,1,39,2,2,0,2,0.670320957,0.728086407
39,21,1,2,40,2,1,0,3,0.531586197,0.50889493
39,22,1,2,41,1,2,1,5,0.548147697,0.608033331
39,24,1,2,42,1,2,1,5,0.387697674,0.310508419
39,20,1,1,43,2,1,1,4,0.543657627,0.566920438
39,38,1,2,44,2,2,1,4,0.915183265,0.898971437
39,29,1,1,45,2,1,1,4,0.563368318,0.592176319
39,40,1,1,46,1,1,1,5,0.344996794,0.442692218
39,32,1,2,47,3,2,1,3,0.452484587,0.452848813
39,24,1,1,48,1,1,1,5,0.260023551,0.232954806
39,26,1,2,49,1,2,1,4,0.363280254,0.436463302
39,21,1,2,50,2,2,1,3,0.710431512,0.738101778
39,22,1,2,51,3,2,1,2,0.264759132,0.274123067
39,24,1,2,52,2,2,1,3,0.622771602,0.643680444
39,20,1,1,53,3,2,0,1,1.018059832,1.045458379
39,38,1,1,54,1,1,1,4,0.380589032,0.35350872
39,29,1,1,55,2,1,1,4,0.664849183,0.645249003
39,40,1,1,56,3,2,0,2,-0.084284669,-0.069039533
39,32,1,2,57,2,2,1,4,0.890410545,0.942088534
39,24,1,2,58,2,2,1,3,0.81502993,0.739491881
39,26,1,2,59,1,1,0,4,0.543048837,0.53910787
39,21,1,1,60,3,2,0,2,1.425045042,1.344659454
39,22,1,1,61,1,1,1,4,0.239943361,0.265852963
39,24,1,2,62,3,2,1,2,1.443217402,1.424459043
39,20,1,1,63,1,1,1,5,0.253594379,0.255529427
39,38,1,2,64,1,1,0,3,0.2678885,0.292620639
39,29,1,2,65,2,2,1,4,0.833056483,0.809909401
39,40,1,2,66,2,2,1,3,0.58320805,0.548150772
39,32,1,1,67,3,1,1,3,0.781960469,0.821862112
39,24,1,1,68,3,1,1,2,0.667792525,0.712836099
39,26,1,1,69,3,2,0,2,0.890563985,0.878019857
39,21,1,1,70,1,1,1,5,0.557684702,0.53913863
39,22,1,2,71,3,2,1,2,0.881710471,0.953128067
39,24,1,1,72,3,1,1,3,0.64778009,0.650827661
39,20,1,2,73,2,2,1,4,0.472401879,0.567249588
39,38,1,1,74,1,1,1,5,0.414185145,0.397350038
39,29,1,1,75,3,2,0,1,1.769083767,1.710564804
39,40,1,1,76,3,2,0,2,1.11100651,1.069357429
39,32,1,1,77,2,2,0,3,0.751588571,0.788857336
39,24,1,1,78,1,1,1,4,0.341452948,0.32752856
39,26,1,1,79,2,1,1,3,0.791129242,0.8531089
39,21,1,2,80,2,2,1,4,0.759549023,0.803464251
39,22,1,1,81,1,1,1,4,0.383701545,0.303909614
39,24,1,2,82,1,2,1,4,0.342120816,0.345498177
39,20,1,2,83,3,2,1,2,0.710750511,0.696275822
39,38,1,1,84,2,1,1,3,0.582129374,0.575276151
39,29,1,2,85,2,1,0,3,0.529493962,0.500879612
39,40,1,1,86,3,1,1,2,0.499353097,0.420730716
39,32,1,2,87,1,2,1,4,0.460376114,0.44787861
39,24,1,1,88,1,1,1,4,0.400071131,0.466931213
39,26,1,2,89,2,2,1,3,0.472516764,0.461069317
39,21,1,1,90,2,2,0,3,0.805307738,0.849913435
39,22,1,1,91,2,1,1,4,0.70909559,0.662413814
39,24,1,1,92,1,2,0,3,0.518447867,0.475621016
39,20,1,1,93,2,2,0,2,0.568091452,0.580241551
39,38,1,1,94,3,1,1,3,0.379764713,0.386257376
39,29,1,2,95,1,2,1,4,0.398315257,0.453135839
39,40,1,2,96,2,1,0,2,0.63319344,0.684500661
39,32,1,2,97,1,1,0,3,0.484992154,0.433295863
39,24,1,2,98,1,2,1,4,0.357782306,0.435271803
39,26,1,2,99,3,1,0,2,1.226988136,1.304205498
39,21,1,2,100,1,2,1,4,0.353752393,0.240799638
39,22,1,1,101,1,1,1,5,0.448756884,0.44186271
39,24,1,1,102,1,2,0,3,0.58050228,0.583687316
39,20,1,2,103,3,1,0,1,0.386220083,0.409573606
39,38,1,2,104,3,1,0,2,1.139938298,1.09695082
39,29,1,2,105,1,2,1,4,0.473016076,0.548296839
39,40,1,1,106,3,1,1,3,1.536081817,1.561024092
39,32,1,1,107,1,2,0,4,0.509670349,0.447361678
39,24,1,1,108,1,1,1,4,0.409945527,0.381466655
39,26,1,1,109,2,1,1,4,0.585227737,0.58737011
39,21,1,2,110,1,2,1,4,0.327458228,0.346861302
39,22,1,1,111,1,2,0,4,0.601810567,0.700313755
39,24,1,2,112,1,2,1,5,0.390428153,0.398041309
39,20,1,1,113,3,2,0,2,0.818021306,0.73641469
39,38,1,1,114,1,1,1,4,0.464639376,0.43639214
39,29,1,1,115,1,1,1,4,0.40378912,0.350302618
39,40,1,2,116,3,1,0,1,1.079023742,1.004735155
39,32,1,1,117,1,1,1,4,0.361092944,0.389225668
39,24,1,1,118,1,2,0,3,0.363242759,0.331172688
39,26,1,1,119,2,2,0,3,0.850851179,0.834040371
39,21,1,2,120,3,2,1,2,0.667672299,0.609692522
39,22,1,1,121,1,1,1,4,0.35056538,0.403236664
39,24,1,1,122,2,1,1,4,0.548997037,0.602758262
39,20,1,2,123,1,2,1,4,0.385501324,0.417887235
39,38,1,1,124,2,2,0,2,0.953554205,0.887950611
39,29,1,1,125,2,1,1,4,0.491229891,0.476847154
39,40,1,2,126,3,1,0,2,1.013354179,0.94164973
39,32,1,1,127,2,1,1,3,0.6248325,0.653089796
39,24,1,1,128,2,1,1,3,0.681769961,0.687956065
39,26,1,2,129,3,1,0,1,1.41341212,1.418460172
39,21,1,1,130,2,2,0,3,0.926944241,0.933345972
39,22,1,2,131,3,2,1,3,0.934951553,0.922279969
39,24,1,2,132,1,2,1,5,0.46373799,0.483066188
39,20,1,2,133,1,2,1,4,0.336019716,0.260756089
39,38,1,2,134,2,2,1,3,0.645967489,0.733922452
39,29,1,1,135,3,1,1,3,0.792639443,0.824488001
39,40,1,1,136,1,1,1,5,0.390300822,0.353578072
39,32,1,2,137,2,1,0,3,0.641909906,0.57848169
39,24,1,1,138,2,1,1,4,0.620310596,0.638254981
39,26,1,1,139,1,1,1,5,0.320711627,0.287807951
39,21,1,1,140,3,2,0,1,0.724063443,0.705058675
39,22,1,2,141,1,2,1,4,0.400247639,0.379657119
39,24,1,2,142,3,2,1,2,0.777689432,0.764439477
39,20,1,2,143,2,2,1,3,0.618530291,0.591454973
39,38,1,2,144,3,1,0,2,0.985855611,0.9539344
39,29,1,1,145,1,1,1,5,0.467476131,0.464728678
39,40,1,1,146,3,1,1,2,0.789212528,0.794584374
39,32,1,1,147,3,1,1,3,0.922865894,0.912540673
39,24,1,1,148,2,2,0,2,0.751449178,0.778173713
39,26,1,1,149,2,2,0,2,0.629796331,0.532381179
39,21,1,2,150,2,1,0,2,0.78933439,0.742823592
39,22,1,2,151,2,1,0,2,0.622957062,0.660935211
39,24,1,2,152,2,1,0,2,0.673380681,0.699470682
39,20,1,2,153,3,2,1,3,0.885280444,0.87155713
39,38,1,1,154,2,1,1,3,0.497694985,0.473652383
39,29,1,2,155,3,1,0,2,1.053020152,1.011864788
39,40,1,1,156,1,2,0,3,0.404484391,0.354947154
39,32,1,1,157,2,1,1,3,0.57417636,0.679588646
39,24,1,2,158,2,1,0,2,0.854769074,0.739460264
39,26,1,2,159,3,2,1,2,0.67550383,0.574636314
39,21,1,1,160,3,2,0,2,0.642695621,0.585062204
39,22,1,1,161,3,2,0,1,0.914179438,0.903530647
39,24,1,1,162,1,2,0,4,0.38240055,0.396094397
39,20,1,2,163,3,2,1,3,0.696223831,0.691383124
39,38,1,2,164,3,2,1,2,0.871658858,0.841856505
39,29,1,1,165,1,1,1,4,0.543252173,0.567706727
39,40,1,1,166,3,2,0,2,1.077457673,1.035372396
39,32,1,2,167,1,2,1,5,0.470665329,0.409814673
39,24,1,1,168,2,2,0,2,0.737443707,0.716052465
39,26,1,1,169,2,1,1,3,0.361277192,0.364679371
39,21,1,1,170,3,1,1,3,0.624217326,0.642074668
39,22,1,2,171,2,1,0,3,0.711596522,0.735219326
39,24,1,2,172,1,2,1,5,0.490304491,0.463794998
39,20,1,2,173,2,2,1,4,0.58235592,0.561888016
39,38,1,2,174,2,1,0,3,0.507842517,0.52767687
39,29,1,1,175,1,1,1,4,0.425250853,0.365679538
39,40,1,1,176,1,2,0,4,0.577304597,0.484942794
39,32,1,2,177,3,2,1,3,1.211272583,1.193740816
39,24,1,1,178,1,1,1,4,0.356650655,0.33280834
39,26,1,1,179,2,1,1,3,0.471686128,0.558689504
39,21,1,1,180,3,1,1,3,0.891583716,0.909188146
39,22,1,1,181,2,1,1,3,0.624078913,0.621376165
39,24,1,2,182,1,1,0,4,0.556306006,0.59932713
39,20,1,2,183,2,2,1,3,0.721998797,0.725415939
39,38,1,2,184,1,2,1,5,0.399556542,0.382554675
39,29,1,2,185,3,2,1,3,1.125755827,1.200586596
39,40,1,1,186,2,2,0,2,0.7817533,0.793391481
39,32,1,1,187,1,1,1,5,0.378151182,0.399934852
39,24,1,1,188,1,1,1,5,0.42060697,0.515706891
39,26,1,1,189,1,1,1,4,0.373987792,0.384884583
39,21,1,1,190,3,2,0,2,0.132389775,0.107396846
39,22,1,2,191,2,2,1,4,0.700314052,0.75423858
39,24,1,2,192,3,2,1,2,0.800412576,0.74744045
39,20,1,1,193,1,1,1,4,0.288164069,0.284858864
39,38,1,1,194,3,2,0,2,1.168239669,1.257384577
39,29,1,2,195,3,2,1,2,0.817649147,0.732224797
39,40,1,2,196,2,2,1,3,0.868945309,0.871652971
39,32,1,1,197,3,1,1,3,0.910616697,0.908289363
39,24,1,2,198,1,1,0,3,0.42167154,0.430087674
39,26,1,2,199,1,2,1,4,0.248451534,0.220635687
39,21,1,2,200,3,1,0,2,0.733329836,0.711683452
39,22,1,1,201,1,1,1,5,0.532489523,0.510548674
39,24,1,2,202,1,2,1,4,0.175462837,0.133188447
39,20,1,2,203,2,1,0,2,0.733596335,0.781151066
39,38,1,2,204,1,2,1,5,0.48907413,0.529065205
39,29,1,2,205,3,1,0,2,1.475632893,1.458019668
39,40,1,2,206,2,1,0,3,0.793586577,0.888908868
39,32,1,1,207,3,1,1,2,0.97360531,0.89637562
39,24,1,2,208,2,1,0,2,0.579405763,0.584472241
39,26,1,2,209,2,1,0,3,0.881816677,1.025560514
39,21,1,2,210,1,2,1,4,0.460377565,0.481874766
39,22,1,1,211,2,2,0,2,0.882399293,0.857049067
39,24,1,1,212,3,2,0,2,0.413573272,0.449172579
39,20,1,1,213,2,1,1,3,0.535614414,0.536461629
39,38,1,2,214,3,2,1,2,0.682193957,0.587447766
39,29,1,2,215,3,2,1,3,0.811136576,0.735391512
39,40,1,1,216,3,1,1,3,0.949572287,0.989378518
39,32,1,2,217,3,2,1,3,0.839127721,0.87412412
39,24,1,1,218,1,1,1,5,0.505720685,0.499472617
39,26,1,1,219,1,2,0,4,0.540666511,0.487293591
39,21,1,1,220,2,2,0,2,0.876601998,0.768376042
39,22,1,1,221,1,2,0,4,0.487529647,0.491655585
39,24,1,2,222,1,2,1,5,0.377551942,0.465530363
39,20,1,2,223,3,2,1,2,1.310162516,1.352722093
39,38,1,1,224,1,1,1,5,0.42192835,0.454206664
39,29,1,2,225,3,1,0,1,1.287696674,1.354048413
39,40,1,2,226,2,2,1,3,0.565661886,0.568555956
39,32,1,1,227,2,1,1,4,0.504049998,0.570336305
39,24,1,1,228,3,2,0,2,1.342149015,1.332845308
39,26,1,2,229,2,2,1,3,0.593093433,0.558393286
39,21,1,1,230,2,1,1,4,0.729034838,0.731806115
39,22,1,2,231,3,2,1,3,0.709890509,0.749261753
39,24,1,2,232,3,2,1,3,0.757861272,0.833272886
39,20,1,2,233,3,1,0,2,0.675857851,0.657008392
39,38,1,1,234,3,2,0,1,1.185235436,1.142895982
39,29,1,2,235,2,1,0,3,0.92864862,0.939615951
39,40,1,2,236,1,1,0,4,0.798152949,0.773918778
39,32,1,2,237,2,2,1,4,0.568655302,0.517108218
39,24,1,2,238,3,2,1,3,0.363028825,0.341355429
39,26,1,1,239,1,1,1,5,0.474812581,0.487511672
39,21,1,2,240,3,1,0,2,1.243641693,1.202248703
38,35,2,1,1,3,2,0,2,1.094187877,1.040824375
38,30,2,2,2,2,1,0,2,0.56711369,0.518552538
38,18,2,1,3,2,1,1,4,0.51444529,0.449117732
38,40,2,1,4,3,2,0,1,0.468165082,0.497480465
38,19,2,2,5,1,2,1,4,0.471039781,0.382496899
38,32,2,1,6,3,2,0,2,0.686480447,0.752884051
38,20,2,2,7,2,1,0,3,0.715291788,0.71679203
38,26,2,1,8,2,1,1,4,0.693895536,0.660052548
38,29,2,1,9,1,1,1,5,0.340406289,0.256022201
38,40,2,2,10,3,2,1,3,0.787773377,0.769487755
38,35,2,1,11,2,2,0,3,0.83196089,0.758061954
38,30,2,1,12,3,2,0,1,1.751081572,1.809376027
38,18,2,2,13,2,1,0,3,0.563868997,0.510487349
38,40,2,1,14,2,1,1,3,0.852683115,0.7926279
38,19,2,1,15,2,2,0,2,0.506435924,0.381567419
38,32,2,2,16,1,2,1,5,0.419550423,0.465175305
38,20,2,2,17,3,1,0,2,0.693055117,0.717790463
38,26,2,1,18,1,1,1,5,0.486647223,0.457122972
38,29,2,1,19,2,2,0,3,0.545958139,0.514887436
38,40,2,1,20,1,1,1,5,0.370470859,0.354745457
38,35,2,1,21,3,2,0,1,0.835806139,0.858536304
38,30,2,1,22,3,1,1,2,0.777597582,0.649499927
38,18,2,1,23,3,2,0,1,1.168063489,1.241502434
38,40,2,2,24,3,1,0,2,1.003145773,0.966774093
38,19,2,2,25,2,1,0,3,0.731505121,0.681465941
38,32,2,1,26,3,1,1,3,1.040899924,0.989414568
38,20,2,2,27,1,2,1,5,0.400638195,0.403305482
38,26,2,2,28,3,2,1,3,0.69587144,0.757714485
38,29,2,2,29,2,2,1,4,0.589228549,0.674521355
38,40,2,2,30,3,1,0,1,1.218371178,1.363721466
38,35,2,1,31,1,1,1,5,0.391970734,0.399868331
38,30,2,1,32,2,2,0,2,0.61784048,0.658778863
38,18,2,2,33,3,2,1,3,0.676672271,0.58618962
38,40,2,2,34,3,1,0,1,0.609411448,0.56653057
38,19,2,2,35,2,2,1,3,0.680937439,0.621816631
38,32,2,2,36,2,2,1,4,0.553319067,0.555012428
38,20,2,1,37,2,1,1,4,0.844533906,0.892056649
38,26,2,1,38,3,1,1,3,0.651382935,0.660585136
38,29,2,1,39,1,1,1,5,0.357613258,0.411115636
38,40,2,2,40,1,2,1,5,0.323099711,0.290300114
38,35,2,2,41,2,1,0,2,0.983458867,1.007102306
38,30,2,2,42,3,2,1,2,0.731669988,0.702916858
38,18,2,2,43,3,2,1,2,0.967905783,0.970900258
38,40,2,1,44,1,1,1,5,0.385047728,0.344126645
38,19,2,2,45,1,1,0,3,0.454312912,0.450226535
38,32,2,2,46,2,2,1,3,0.815594713,0.855353289
38,20,2,2,47,1,2,1,4,0.455603719,0.429599857
38,26,2,1,48,1,1,1,4,0.341928985,0.313040793
38,29,2,2,49,1,2,1,5,0.375289204,0.349126608
38,40,2,1,50,2,1,1,3,0.578988806,0.573439919
38,35,2,1,51,2,2,0,3,0.903754501,0.924439189
38,30,2,1,52,2,1,1,4,0.475842207,0.559835085
38,18,2,2,53,1,2,1,4,0.336243437,0.321918496
38,40,2,1,54,2,1,1,4,0.622009687,0.635552926
38,19,2,1,55,2,2,0,2,0.85860507,1.01264577
38,32,2,2,56,1,2,1,4,0.336709778,0.370424412
38,20,2,1,57,2,1,1,3,0.77263818,0.772734741
38,26,2,1,58,3,1,1,2,0.72319471,0.662604085
38,29,2,2,59,3,2,1,2,0.482208043,0.445971448
38,40,2,2,60,2,1,0,2,0.658835677,0.651937155
38,35,2,2,61,1,1,0,3,0.621411386,0.638272246
38,30,2,1,62,2,1,1,3,0.467101222,0.441664155
38,18,2,1,63,2,2,0,3,0.736608698,0.662299229
38,40,2,2,64,2,2,1,4,0.431805193,0.486562417
38,19,2,1,65,2,2,0,3,0.584156686,0.5629599
38,32,2,2,66,1,1,0,4,0.38635449,0.324300966
38,20,2,1,67,3,1,1,2,0.577527587,0.562514695
38,26,2,1,68,2,1,1,3,0.832898235,0.882375583
38,29,2,1,69,1,1,1,5,0.310629351,0.237104832
38,40,2,1,70,1,1,1,5,0.465525104,0.417912892
38,35,2,2,71,2,2,1,4,0.697837905,0.854013626
38,30,2,2,72,2,1,0,3,0.966685338,1.006349821
38,18,2,2,73,1,2,1,4,0.448742227,0.469308794
38,40,2,2,74,3,2,1,2,0.956231503,0.853458785
38,19,2,2,75,3,2,1,2,0.817832887,0.922391614
38,32,2,1,76,1,1,1,5,0.424145407,0.476248374
38,20,2,1,77,1,1,1,5,0.466863413,0.493214488
38,26,2,1,78,2,2,0,3,0.729814387,0.759288109
38,29,2,2,79,3,2,1,3,0.465822968,0.470498324
38,40,2,2,80,2,2,1,4,0.454079112,0.438931947
38,35,2,1,81,3,1,1,2,0.894758018,0.934313098
38,30,2,2,82,1,2,1,5,0.230287063,0.149081794
38,18,2,1,83,2,1,1,3,0.634276143,0.720770132
38,40,2,2,84,1,1,0,3,0.619060597,0.579163836
38,19,2,1,85,1,1,1,4,0.399054049,0.415682758
38,32,2,1,86,2,1,1,4,0.579218478,0.503922727
38,20,2,1,87,1,1,1,4,0.385138916,0.338192956
38,26,2,2,88,1,2,1,5,0.414924585,0.38984826
38,29,2,2,89,2,1,0,3,0.79416013,0.792139377
38,40,2,2,90,1,1,0,3,0.51035561,0.515639676
38,35,2,2,91,2,2,1,4,0.749980682,0.713356944
38,30,2,1,92,3,2,0,1,1.028505657,1.03907326
38,18,2,2,93,3,1,0,2,1.001772876,1.037218283
38,40,2,1,94,2,1,1,4,0.581750625,0.663630115
38,19,2,1,95,2,1,1,4,0.711699091,0.630209049
38,32,2,1,96,2,2,0,3,0.807832107,0.807370391
38,20,2,1,97,3,1,1,3,0.851819127,0.854232018
38,26,2,2,98,1,2,1,5,0.413884092,0.399544276
38,29,2,2,99,1,2,1,4,0.540726895,0.484624749
38,40,2,2,100,2,2,1,4,0.686787859,0.713492812
38,35,2,2,101,3,2,1,2,0.800828297,0.740726568
38,30,2,2,102,1,2,1,5,0.417698536,0.44283235
38,18,2,2,103,2,1,0,3,0.996346858,0.993354262
38,40,2,2,104,1,2,1,5,0.496985653,0.468212928
38,19,2,1,105,3,2,0,1,1.490427274,1.431748408
38,32,2,1,106,3,2,0,1,0.829698176,0.861104436
38,20,2,2,107,2,1,0,2,0.443420274,0.474488005
38,26,2,2,108,1,2,1,4,0.335386233,0.380178421
38,29,2,2,109,2,2,1,4,0.726266704,0.720690405
38,40,2,2,110,3,2,1,3,0.811835919,0.780357723
38,35,2,1,111,1,1,1,5,0.356874841,0.285779768
38,30,2,1,112,2,2,0,2,0.765719728,0.796318886
38,18,2,1,113,1,1,1,5,0.419982796,0.324993414
38,40,2,1,114,2,2,0,3,0.729125605,0.793108314
38,19,2,1,115,3,2,0,2,1.252343862,1.265552333
38,32,2,2,116,1,2,1,4,0.41359971,0.434310765
38,20,2,2,117,1,2,1,5,0.360504166,0.322097556
38,26,2,2,118,3,1,0,1,0.683043586,0.638706367
38,29,2,2,119,2,2,1,3,0.559579838,0.550661181
38,40,2,1,120,3,2,0,1,0.422085681,0.437105431
38,35,2,2,121,3,2,1,2,1.143936951,1.153464539
38,30,2,1,122,1,1,1,4,0.47484732,0.474714926
38,18,2,1,123,3,1,1,3,0.800256535,0.835085145
38,40,2,1,124,1,1,1,5,0.400982401,0.407988842
38,19,2,2,125,1,2,1,4,0.481754187,0.495993173
38,32,2,2,126,1,2,1,4,0.585072784,0.63097072
38,20,2,1,127,3,1,1,3,1.294913195,1.295589911
38,26,2,1,128,1,2,0,4,0.498803536,0.54886258
38,29,2,1,129,3,2,0,1,1.290667145,1.340464277
38,40,2,2,130,1,2,1,4,0.407926949,0.379186028
38,35,2,1,131,3,1,1,2,0.950558632,0.891543681
38,30,2,2,132,3,2,1,3,0.438558148,0.544439268
38,18,2,2,133,2,2,1,3,0.595744785,0.606095352
38,40,2,1,134,1,1,1,4,0.472284781,0.475765649
38,19,2,2,135,1,2,1,4,0.400316076,0.361651013
38,32,2,2,136,3,2,1,3,0.433658585,0.506770171
38,20,2,1,137,2,1,1,3,0.557747508,0.557898331
38,26,2,2,138,1,2,1,4,0.573731878,0.601138416
38,29,2,2,139,2,2,1,3,0.673102953,0.664300407
38,40,2,1,140,3,1,1,2,0.706439439,0.598673133
38,35,2,2,141,2,1,0,3,0.72440553,0.711533513
38,30,2,2,142,1,2,1,4,0.254055597,0.244461466
38,18,2,1,143,3,2,0,2,1.252537584,1.261755097
38,40,2,1,144,1,1,1,5,0.425499653,0.455698989
38,19,2,1,145,1,1,1,5,0.303315793,0.308947731
38,32,2,1,146,3,2,0,1,0.779884223,0.794257753
38,20,2,2,147,3,1,0,2,0.601211375,0.527878361
38,26,2,1,148,2,1,1,3,0.662117888,0.758700501
38,29,2,1,149,3,2,0,1,1.160599242,1.141086233
38,40,2,2,150,1,1,0,3,0.524177935,0.499752088
38,35,2,1,151,1,1,1,5,0.404403893,0.434615967
38,30,2,2,152,2,2,1,4,0.557796109,0.528534277
38,18,2,1,153,3,2,0,2,0.788745927,0.899349116
38,40,2,2,154,3,1,0,1,1.026564332,1.112606261
38,19,2,2,155,3,1,0,2,1.65603777,1.620958194
38,32,2,2,156,2,2,1,4,0.577261374,0.507285402
38,20,2,1,157,3,1,1,2,0.769280549,0.786041928
38,26,2,2,158,1,1,0,3,0.670346147,0.740840502
38,29,2,2,159,3,2,1,2,0.611407344,0.580142473
38,40,2,1,160,1,1,1,4,0.407597745,0.414237555
38,35,2,1,161,1,1,1,4,0.523615095,0.517584185
38,30,2,1,162,3,1,1,3,0.753494183,0.56120398
38,18,2,1,163,1,1,1,4,0.438603723,0.451887111
38,40,2,2,164,2,2,1,4,0.500464306,0.468793428
38,19,2,1,165,1,1,1,4,0.257769044,0.233464975
38,32,2,2,166,2,2,1,3,0.529280433,0.508723417
38,20,2,2,167,3,2,1,3,0.946307413,0.911530144
38,26,2,1,168,1,2,0,4,0.546436122,0.479283997
38,29,2,1,169,3,1,1,2,1.097415642,1.107878368
38,40,2,2,170,1,2,1,4,0.517239701,0.578108912
38,35,2,2,171,2,1,0,3,0.683771142,0.721018283
38,30,2,1,172,1,1,1,5,0.412138435,0.422388429
38,18,2,2,173,3,2,1,2,0.935715498,0.925457914
38,40,2,2,174,1,2,1,4,0.351683536,0.454708243
38,19,2,1,175,1,2,0,3,0.57375528,0.500987271
38,32,2,2,176,2,2,1,3,0.563130124,0.561414842
38,20,2,2,177,3,1,0,2,0.879394009,0.925571018
38,26,2,1,178,2,1,1,4,0.775089204,0.82402399
38,29,2,1,179,2,2,0,3,0.708707325,0.732455847
38,40,2,1,180,2,2,0,2,0.4976236,0.481188226
38,35,2,1,181,3,1,1,3,0.405059368,0.449639992
38,30,2,1,182,1,1,1,4,0.336973371,0.289249694
38,18,2,2,183,1,2,1,4,0.450532826,0.484743786
38,40,2,2,184,3,2,1,2,0.739218722,0.778437499
38,19,2,2,185,2,1,0,2,0.757615435,0.761110029
38,32,2,1,186,1,1,1,4,0.378540968,0.403000506
38,20,2,2,187,2,2,1,4,0.434665857,0.432672956
38,26,2,2,188,1,1,0,3,0.587896304,0.61869982
38,29,2,2,189,2,2,1,4,0.473729069,0.47478132
38,40,2,1,190,2,1,1,4,0.77720244,0.785109101
38,35,2,2,191,2,2,1,4,0.608916359,0.613571631
38,30,2,1,192,3,1,1,2,0.683509999,0.697871868
38,18,2,1,193,1,1,1,5,0.57563224,0.55593046
38,40,2,1,194,1,2,0,4,0.561540482,0.549020767
38,19,2,1,195,1,1,1,4,0.447912875,0.468016084
38,32,2,2,196,2,1,0,3,0.783418511,0.816504118
38,20,2,1,197,1,1,1,5,0.312358407,0.401604933
38,26,2,1,198,3,2,0,1,1.028500826,0.996391988
38,29,2,2,199,3,1,0,2,0.465549247,0.437498505
38,40,2,2,200,2,2,1,3,0.721769429,0.641842459
38,35,2,2,201,1,2,1,5,0.22763947,0.229776694
38,30,2,1,202,3,1,1,2,0.905551203,0.92402966
38,18,2,1,203,2,1,1,3,0.647620293,0.647611676
38,40,2,2,204,1,2,1,5,0.406459781,0.483529772
38,19,2,1,205,3,1,1,2,1.021208213,0.964204573
38,32,2,2,206,2,2,1,3,0.645342419,0.663690067
38,20,2,2,207,3,1,0,1,1.029655757,0.970682535
38,26,2,2,208,2,2,1,3,0.701250013,0.707248639
38,29,2,1,209,2,1,1,3,0.632145095,0.63285508
38,40,2,2,210,2,2,1,4,0.816543837,0.805268338
38,35,2,2,211,1,1,0,3,0.555267004,0.650270443
38,30,2,1,212,2,1,1,3,0.526969242,0.480116493
38,18,2,1,213,3,1,1,3,0.57136407,0.512060552
38,40,2,1,214,1,2,0,3,0.634941859,0.644722533
38,19,2,1,215,2,2,0,3,0.695207644,0.6024526
38,32,2,1,216,1,1,1,5,0.392708157,0.416934358
38,20,2,2,217,3,1,0,2,0.709362866,0.723247398
38,26,2,2,218,3,1,0,2,1.701291274,1.709406587
38,29,2,2,219,3,2,1,2,0.909903173,0.93911826
38,40,2,1,220,1,1,1,4,0.330222693,0.316633769
38,35,2,1,221,1,1,1,5,0.348839441,0.275114488
38,30,2,2,222,3,1,0,2,0.952975074,0.898686535
38,18,2,1,223,3,2,0,1,0.379942835,0.409414813
38,40,2,2,224,2,1,0,2,0.865117424,0.810332798
38,19,2,2,225,1,2,1,4,0.315630054,0.344830638
38,32,2,1,226,3,1,1,2,0.418424437,0.361984236
38,20,2,2,227,2,1,0,3,0.483907848,0.438452884
38,26,2,2,228,3,2,1,2,0.681814217,0.688273459
38,29,2,1,229,3,2,0,1,0.822152167,0.859710284
38,40,2,2,230,2,1,0,2,0.670549547,0.710314054
38,35,2,1,231,3,1,1,2,0.835188622,0.875617122
38,30,2,2,232,3,1,0,2,1.308064185,1.306192711
38,18,2,2,233,1,2,1,5,0.487316075,0.524503577
38,40,2,1,234,3,2,0,1,1.385436528,1.482667824
38,19,2,2,235,2,2,1,3,0.684960461,0.553575488
38,32,2,1,236,3,2,0,1,1.377027474,1.327138832
38,20,2,1,237,3,1,1,3,0.797220965,0.80351289
38,26,2,1,238,2,1,1,3,0.557027758,0.516208282
38,29,2,1,239,1,1,1,4,0.468411905,0.423622894
38,40,2,2,240,3,1,0,2,1.194734496,1.307192411
37,37,1,1,1,1,2,0,4,0.535689363,0.58753181
37,30,1,1,2,3,1,1,2,0.866974065,0.968221016
37,22,1,2,3,2,2,1,3,0.630141976,0.669629805
37,34,1,2,4,2,1,0,3,0.734317163,0.771647907
37,25,1,1,5,3,2,0,1,1.094716552,1.094209232
37,31,1,2,6,3,1,0,1,1.263394274,1.285427044
37,32,1,1,7,2,2,0,2,0.548845835,0.57670922
37,27,1,2,8,1,2,1,5,0.345619657,0.357676549
37,24,1,2,9,2,2,1,4,0.515530534,0.537217136
37,32,1,1,10,1,2,0,3,0.454102937,0.536648904
37,37,1,2,11,3,1,0,2,0.735271805,0.682106068
37,30,1,2,12,3,2,1,2,0.803726257,0.879217629
37,22,1,2,13,1,1,0,3,0.430436331,0.470125117
37,34,1,1,14,1,1,1,5,0.197035815,0.296267578
37,25,1,1,15,3,1,1,2,0.691538439,0.709555402
37,31,1,2,16,2,1,0,3,0.854776274,0.838825334
37,32,1,2,17,3,1,0,2,0.996240955,1.103507538
37,27,1,1,18,2,1,1,3,0.466810506,0.435829214
37,24,1,1,19,2,1,1,3,0.59688867,0.62572328
37,32,1,2,20,1,1,0,4,0.449703052,0.348515362
37,37,1,2,21,2,2,1,3,0.603377132,0.575214925
37,30,1,2,22,3,2,1,2,0.578355046,0.568679908
37,22,1,1,23,3,2,0,2,0.581163638,0.599224244
37,34,1,2,24,2,1,0,2,0.584355683,0.660397946
37,25,1,1,25,1,1,1,5,0.318588753,0.393810504
37,31,1,1,26,3,2,0,1,0.862360428,0.969175596
37,32,1,2,27,2,2,1,4,0.641328943,0.686883808
37,27,1,1,28,2,2,0,2,0.786338813,0.833896736
37,24,1,1,29,1,2,0,4,0.482227701,0.449634293
37,32,1,2,30,3,1,0,1,1.673639351,1.632300704
37,37,1,1,31,1,1,1,5,0.453422783,0.424702216
37,30,1,2,32,1,2,1,4,0.434277755,0.451653816
37,22,1,2,33,2,1,0,3,0.566618413,0.495812919
37,34,1,1,34,1,2,0,3,0.667949405,0.78489059
37,25,1,1,35,2,1,1,3,0.820683398,0.824869803
37,31,1,1,36,2,1,1,4,0.622411427,0.704617322
37,32,1,1,37,3,1,1,2,1.163191531,1.187038664
37,27,1,2,38,1,2,1,5,0.486936106,0.534308399
37,24,1,1,39,1,2,0,3,0.523995769,0.513146181
37,32,1,2,40,2,2,1,3,0.710253308,0.772098327
37,37,1,1,41,1,1,1,4,0.371967847,0.416110567
37,30,1,2,42,2,2,1,3,0.692820324,0.734400018
37,22,1,1,43,1,1,1,5,0.478862115,0.392681973
37,34,1,2,44,3,2,1,2,0.750173479,0.740916629
37,25,1,2,45,1,2,1,5,0.368975801,0.363313201
37,31,1,1,46,3,2,0,2,0.697583364,0.624358509
37,32,1,2,47,1,2,1,4,0.335233176,0.338352095
37,27,1,1,48,3,1,1,2,0.608653959,0.605665856
37,24,1,2,49,3,2,1,2,1.06004176,1.085580877
37,32,1,2,50,1,2,1,5,0.601307312,0.594537646
37,37,1,2,51,3,2,1,3,1.130348412,1.11185775
37,30,1,2,52,2,2,1,4,0.702531773,0.714560592
37,22,1,1,53,1,1,1,5,0.519009301,0.466360167
37,34,1,2,54,2,2,1,4,0.637249405,0.622390428
37,25,1,2,55,3,1,0,1,0.798774324,0.819872162
37,31,1,2,56,2,2,1,4,0.647508377,0.468661965
37,32,1,2,57,3,2,1,2,0.809240183,0.725353257
37,27,1,1,58,3,1,1,2,0.628268905,0.574148423
37,24,1,2,59,1,2,1,5,0.297419354,0.336077214
37,32,1,1,60,3,1,1,2,1.018403774,1.05900094
37,37,1,1,61,2,1,1,3,0.644888321,0.631654772
37,30,1,2,62,1,1,0,3,0.39793688,0.386395173
37,22,1,2,63,3,2,1,3,1.039695213,1.061167236
37,34,1,1,64,1,1,1,4,0.473824887,0.508079639
37,25,1,2,65,1,2,1,4,0.373451729,0.281618955
37,31,1,2,66,3,2,1,2,0.586847956,0.551756308
37,32,1,2,67,2,1,0,2,0.574922802,0.516231459
37,27,1,2,68,3,1,0,2,1.246074783,1.251150912
37,24,1,1,69,3,2,0,2,0.812382472,0.799109044
37,32,1,2,70,1,1,0,3,0.616680581,0.588949749
37,37,1,1,71,1,1,1,4,0.312059894,0.230455206
37,30,1,2,72,3,1,0,2,0.501316017,0.578756542
37,22,1,2,73,2,1,0,3,0.76288719,0.713504987
37,34,1,1,74,2,1,1,3,0.535383098,0.500180982
37,25,1,2,75,1,2,1,4,0.370573418,0.344751231
37,31,1,2,76,1,2,1,4,0.244689418,0.283132364
37,32,1,1,77,3,2,0,2,1.130853288,1.087099085
37,27,1,2,78,2,2,1,4,0.496688727,0.542933149
37,24,1,1,79,3,2,0,2,0.602204402,0.616277927
37,32,1,2,80,2,1,0,2,0.661587525,0.684136022
37,37,1,1,81,3,1,1,3,0.429318361,0.416381872
37,30,1,1,82,1,1,1,5,0.358264119,0.277283451
37,22,1,1,83,3,2,0,1,0.84608167,0.826079859
37,34,1,1,84,2,1,1,3,0.764754812,0.679664936
37,25,1,1,85,2,2,0,3,0.738836702,0.746281154
37,31,1,1,86,3,1,1,2,1.060599036,1.026218096
37,32,1,2,87,2,2,1,4,0.604632363,0.553202298
37,27,1,2,88,1,2,1,5,0.399047178,0.403979913
37,24,1,2,89,2,2,1,4,0.46163713,0.387965935
37,32,1,2,90,3,1,0,1,0.86605895,0.889395668
37,37,1,1,91,3,1,1,3,1.000897108,0.951775047
37,30,1,1,92,3,2,0,2,0.467094227,0.448600527
37,22,1,2,93,2,2,1,3,0.750030718,0.776284925
37,34,1,1,94,2,1,1,3,0.463995785,0.438408603
37,25,1,2,95,1,2,1,5,0.342961837,0.294373968
37,31,1,1,96,2,1,1,4,0.800588545,0.857709843
37,32,1,2,97,3,1,0,1,0.649422029,0.63386563
37,27,1,1,98,1,1,1,5,0.427069659,0.406922034
37,24,1,2,99,3,1,0,1,0.621075592,0.689206319
37,32,1,1,100,1,1,1,5,0.534724822,0.523157769
37,37,1,1,101,2,2,0,2,0.671127559,0.641273447
37,30,1,1,102,3,1,1,2,0.679777738,0.771549604
37,22,1,1,103,3,2,0,2,0.825698886,0.785883192
37,34,1,2,104,2,2,1,3,0.721063432,0.748141086
37,25,1,1,105,1,1,1,5,0.347730893,0.312818667
37,31,1,1,106,1,1,1,5,0.283592673,0.285382987
37,32,1,1,107,1,1,1,5,0.544635631,0.622953224
37,27,1,1,108,1,1,1,5,0.27651289,0.299699811
37,24,1,2,109,1,2,1,5,0.375193454,0.356728246
37,32,1,2,110,2,2,1,3,0.478531658,0.634338113
37,37,1,2,111,3,2,1,2,0.814428765,0.771822478
37,30,1,2,112,3,1,0,1,0.984595328,0.955062423
37,22,1,2,113,2,2,1,3,0.556125084,0.494313751
37,34,1,1,114,3,2,0,1,1.307470511,1.246903541
37,25,1,2,115,1,2,1,5,0.428139788,0.413876552
37,31,1,1,116,2,2,0,3,0.891696978,0.939609264
37,32,1,2,117,1,1,0,4,0.556141625,0.699810656
37,27,1,1,118,1,1,1,5,0.354498318,0.362039886
37,24,1,2,119,1,1,0,4,0.39976178,0.445500769
37,32,1,2,120,2,2,1,4,0.375813889,0.358982438
37,37,1,2,121,1,1,0,3,0.584349866,0.544457128
37,30,1,2,122,1,2,1,5,0.480307021,0.40575873
37,22,1,1,123,1,1,1,5,0.322375079,0.316984945
37,34,1,1,124,3,2,0,2,1.229001143,1.135133821
37,25,1,2,125,2,2,1,3,0.650522183,0.640569265
37,31,1,1,126,2,1,1,4,0.596929502,0.645529445
37,32,1,2,127,2,2,1,4,0.664752767,0.668903092
37,27,1,1,128,1,1,1,5,0.280303177,0.226832064
37,24,1,2,129,1,1,0,3,0.398967567,0.354633082
37,32,1,2,130,2,1,0,3,0.584800056,0.545833519
37,37,1,2,131,2,2,1,3,0.608969258,0.565814916
37,30,1,1,132,2,2,0,2,0.914241224,0.929407397
37,22,1,1,133,1,2,0,4,0.325793106,0.448848588
37,34,1,1,134,2,1,1,4,0.429153257,0.47769778
37,25,1,2,135,1,1,0,4,0.55325554,0.564200916
37,31,1,2,136,2,1,0,3,1.085694386,1.107579116
37,32,1,2,137,2,1,0,3,0.85033874,0.824448732
37,27,1,1,138,1,1,1,4,0.397459505,0.314600965
37,24,1,2,139,1,2,1,5,0.446609113,0.459571658
37,32,1,1,140,1,1,1,5,0.459916316,0.487582921
37,37,1,2,141,3,2,1,3,0.834172069,0.75730535
37,30,1,1,142,2,1,1,3,0.839128809,0.746572996
37,22,1,2,143,2,2,1,3,0.559244374,0.576932795
37,34,1,1,144,3,1,1,3,0.76213719,0.770683429
37,25,1,1,145,2,2,0,3,1.056172737,1.104608296
37,31,1,1,146,2,2,0,3,0.654209981,0.639999278
37,32,1,1,147,2,1,1,4,0.691929553,0.737370147
37,27,1,1,148,3,1,1,3,0.625259223,0.696464856
37,24,1,1,149,3,2,0,1,0.826839407,0.793797427
37,32,1,2,150,2,2,1,4,0.598397675,0.647447203
37,37,1,1,151,3,1,1,2,0.81855895,0.801083041
37,30,1,2,152,3,1,0,2,0.948654754,0.921549822
37,22,1,2,153,3,1,0,1,1.321688834,1.38256439
37,34,1,1,154,2,2,0,2,0.927851296,0.985286756
37,25,1,1,155,3,1,1,3,0.791587718,0.756618193
37,31,1,1,156,2,1,1,3,0.47107715,0.438877309
37,32,1,2,157,2,2,1,3,0.60672523,0.57158562
37,27,1,1,158,2,1,1,4,0.49821169,0.452157665
37,24,1,2,159,1,1,0,3,0.61952722,0.629932676
37,32,1,1,160,1,2,0,4,0.494130268,0.551892887
37,37,1,2,161,3,1,0,2,0.447632055,0.512854147
37,30,1,2,162,1,1,0,3,0.528534901,0.607832129
37,22,1,2,163,1,2,1,4,0.456137242,0.505290568
37,34,1,1,164,3,1,1,3,0.648523117,0.625583994
37,25,1,2,165,1,1,0,3,0.439638635,0.51190959
37,31,1,2,166,2,1,0,3,0.665911233,0.67203121
37,32,1,1,167,1,1,1,5,0.394654065,0.330720017
37,27,1,1,168,3,1,1,2,0.854639122,0.861367579
37,24,1,1,169,1,1,1,5,0.400349692,0.415490389
37,32,1,2,170,3,2,1,3,1.189129005,1.207866807
37,37,1,2,171,1,2,1,4,0.370829523,0.313872928
37,30,1,1,172,2,1,1,3,0.780803243,0.757618847
37,22,1,1,173,2,1,1,4,0.810544879,0.88821065
37,34,1,2,174,3,2,1,2,0.613991302,0.589147088
37,25,1,1,175,2,1,1,4,0.713837024,0.703631296
37,31,1,2,176,2,1,0,3,0.484026986,0.35691087
37,32,1,1,177,2,2,0,3,0.629938681,0.677418438
37,27,1,2,178,3,2,1,3,0.951471858,0.965458553
37,24,1,1,179,1,1,1,4,0.408203404,0.471025075
37,32,1,1,180,2,1,1,4,0.613458389,0.563472478
37,37,1,2,181,3,2,1,2,0.750799905,0.80576822
37,30,1,1,182,3,2,0,1,0.421380867,0.38050421
37,22,1,2,183,3,2,1,2,0.744677017,0.736321257
37,34,1,2,184,1,1,0,3,0.737796838,0.70138397
37,25,1,2,185,2,1,0,3,0.44152177,0.46117761
37,31,1,1,186,2,2,0,2,0.483613061,0.530589027
37,32,1,1,187,1,1,1,4,0.54167121,0.630860442
37,27,1,1,188,1,1,1,5,0.353062593,0.433185808
37,24,1,2,189,1,1,0,3,0.525203759,0.509043207
37,32,1,1,190,2,1,1,4,0.53729812,0.487097628
37,37,1,1,191,1,1,1,5,0.260975949,0.235913456
37,30,1,1,192,3,2,0,1,0.885459813,0.753384823
37,22,1,1,193,1,1,1,4,0.349818373,0.363397463
37,34,1,1,194,3,1,1,2,1.084957649,1.081191961
37,25,1,2,195,3,2,1,2,0.928959713,0.988609153
37,31,1,2,196,1,2,1,4,0.417642546,0.468479712
37,32,1,2,197,3,2,1,2,0.567154107,0.586816462
37,27,1,1,198,1,1,1,4,0.414377791,0.411981281
37,24,1,1,199,1,1,1,5,0.237382984,0.306263497
37,32,1,2,200,3,2,1,2,0.847325022,0.822609376
37,37,1,2,201,3,1,0,2,0.920611406,0.985012111
37,30,1,1,202,1,1,1,5,0.437526013,0.454856541
37,22,1,1,203,3,1,1,3,0.797852433,0.793423994
37,34,1,2,204,1,2,1,4,0.544105569,0.561981049
37,25,1,2,205,3,1,0,1,0.855064861,0.794813353
37,31,1,2,206,2,2,1,3,0.436720371,0.448744266
37,32,1,2,207,3,1,0,1,0.586407679,0.629948484
37,27,1,2,208,1,2,1,4,0.261454922,0.266377083
37,24,1,1,209,1,1,1,4,0.475363729,0.511688196
37,32,1,1,210,2,2,0,2,0.605682586,0.540769688
37,37,1,2,211,1,2,1,4,0.314163132,0.35223094
37,30,1,1,212,1,2,0,4,0.526953345,0.429622904
37,22,1,2,213,3,1,0,2,0.70740531,0.673215917
37,34,1,1,214,2,2,0,2,0.629173747,0.610633627
37,25,1,1,215,3,2,0,2,1.13528532,1.158940928
37,31,1,1,216,3,2,0,2,1.332987836,1.306313062
37,32,1,1,217,2,2,0,2,0.498595882,0.44481337
37,27,1,1,218,2,2,0,3,0.613327638,0.554036165
37,24,1,1,219,3,2,0,2,0.573827594,0.627698757
37,32,1,1,220,3,2,0,2,1.0718473,1.095703211
37,37,1,2,221,2,1,0,3,0.454391022,0.370891243
37,30,1,1,222,2,1,1,3,0.571503115,0.610141807
37,22,1,1,223,1,1,1,5,0.273340987,0.279261116
37,34,1,2,224,2,1,0,3,0.739255659,0.673926508
37,25,1,1,225,1,1,1,4,0.517250162,0.466465694
37,31,1,2,226,1,2,1,5,0.315598403,0.328604635
37,32,1,2,227,3,1,0,2,1.25406046,1.160396803
37,27,1,2,228,1,2,1,5,0.399732092,0.494924751
37,24,1,2,229,3,2,1,2,0.800728922,0.825542806
37,32,1,2,230,3,1,0,2,0.895482405,1.013832134
37,37,1,2,231,2,2,1,4,0.566866363,0.584015958
37,30,1,1,232,3,1,1,3,0.523001313,0.42237393
37,22,1,1,233,1,2,0,4,0.735331583,0.758966652
37,34,1,2,234,2,1,0,3,0.612027204,0.612316319
37,25,1,1,235,3,2,0,1,0.586943818,0.536943313
37,31,1,2,236,2,1,0,2,0.833442263,0.791164338
37,32,1,1,237,2,1,1,3,0.476882145,0.471291873
37,27,1,2,238,3,1,0,1,0.670405106,0.689539922
37,24,1,1,239,2,1,1,3,0.706481538,0.77276787
37,32,1,1,240,3,1,1,3,0.395866767,0.334735047
36,26,2,2,1,3,1,0,2,1.444382194,1.456270168
36,33,2,2,2,3,1,0,1,0.777333125,0.798847845
36,36,2,1,3,1,1,1,5,0.41724395,0.430560005
36,38,2,1,4,2,2,0,2,0.56778362,0.452490401
36,20,2,1,5,3,1,1,2,0.880494516,0.843450425
36,25,2,1,6,1,1,1,4,0.480484838,0.557545509
36,30,2,1,7,2,1,1,4,0.458862634,0.483170625
36,34,2,1,8,1,1,1,5,0.385329338,0.404055398
36,25,2,1,9,1,1,1,4,0.459510219,0.52867054
36,25,2,2,10,2,2,1,3,0.719898735,0.814259146
36,26,2,1,11,1,1,1,4,0.441128196,0.372477617
36,33,2,1,12,1,1,1,4,0.252670942,0.22678518
36,36,2,2,13,3,1,0,2,1.0613763,1.044045544
36,38,2,2,14,3,2,1,2,0.776993631,0.706993849
36,20,2,2,15,1,2,1,4,0.373541743,0.412825913
36,25,2,2,16,3,1,0,2,1.201727737,1.302815914
36,30,2,1,17,2,2,0,2,0.548858334,0.555034325
36,34,2,2,18,2,1,0,2,0.48238367,0.454619823
36,25,2,2,19,1,2,1,5,0.435067987,0.481535525
36,25,2,2,20,2,2,1,4,0.575591934,0.598034625
36,26,2,1,21,1,1,1,5,0.544017691,0.511884263
36,33,2,2,22,2,2,1,3,0.47539517,0.413931283
36,36,2,1,23,1,1,1,4,0.420261351,0.359807627
36,38,2,1,24,1,1,1,4,0.348421104,0.353891228
36,20,2,1,25,3,1,1,3,0.906711942,0.913798106
36,25,2,1,26,2,1,1,4,0.519781682,0.572063787
36,30,2,2,27,3,1,0,2,1.071817307,1.080856464
36,34,2,1,28,2,1,1,3,0.715156506,0.758542235
36,25,2,2,29,1,2,1,4,0.595335846,0.593182691
36,25,2,1,30,2,1,1,4,0.643636163,0.650938145
36,26,2,1,31,3,2,0,1,0.821944521,0.783348878
36,33,2,1,32,3,1,1,3,0.828141096,0.853159748
36,36,2,1,33,2,1,1,4,0.797102511,0.809129682
36,38,2,2,34,2,2,1,3,0.709024911,0.786699537
36,20,2,1,35,2,1,1,4,0.630579509,0.619683601
36,25,2,2,36,1,2,1,4,0.378671838,0.267365056
36,30,2,1,37,3,1,1,2,0.918526056,0.965886171
36,34,2,2,38,1,2,1,4,0.386571753,0.438053551
36,25,2,1,39,1,1,1,4,0.353021662,0.338153424
36,25,2,1,40,3,1,1,2,0.964521908,0.9644974
36,26,2,2,41,3,1,0,1,1.796670102,1.697517618
36,33,2,1,42,1,1,1,5,0.469846143,0.49593046
36,36,2,1,43,2,2,0,3,0.694675589,0.75887978
36,38,2,1,44,3,2,0,2,0.523497285,0.454334496
36,20,2,2,45,3,1,0,2,1.546785176,1.486009884
36,25,2,2,46,1,2,1,4,0.305631176,0.276052353
36,30,2,2,47,1,2,1,5,0.319127965,0.274875562
36,34,2,1,48,1,2,0,4,0.679835502,0.649032998
36,25,2,2,49,1,2,1,4,0.382381404,0.325113692
36,25,2,2,50,3,2,1,3,0.648213648,0.697940985
36,26,2,2,51,3,2,1,3,0.939840198,0.970847378
36,33,2,1,52,2,1,1,4,0.560244231,0.57585779
36,36,2,1,53,2,2,0,2,0.65616514,0.572310284
36,38,2,1,54,2,2,0,2,0.789020692,0.7303554
36,20,2,1,55,2,1,1,3,0.597038561,0.610529593
36,25,2,2,56,1,2,1,4,0.362721398,0.21883351
36,30,2,1,57,2,2,0,2,0.736139228,0.698496193
36,34,2,2,58,2,1,0,3,0.730948662,0.725086225
36,25,2,1,59,2,2,0,2,0.685072024,0.57891754
36,25,2,1,60,2,1,1,4,0.383079049,0.429760931
36,26,2,2,61,3,1,0,1,1.124841277,1.059795203
36,33,2,2,62,2,1,0,2,0.854776958,0.895386995
36,36,2,1,63,2,2,0,3,0.663118013,0.682362777
36,38,2,1,64,2,2,0,3,0.64813467,0.638607037
36,20,2,2,65,3,1,0,1,0.903368994,0.871519778
36,25,2,2,66,2,1,0,2,0.861080631,0.853641329
36,30,2,2,67,2,2,1,4,0.573141734,0.641445287
36,34,2,2,68,3,2,1,3,0.948284494,0.939079679
36,25,2,2,69,1,2,1,5,0.297495165,0.326249525
36,25,2,1,70,3,2,0,2,0.694030387,0.617293718
36,26,2,2,71,2,2,1,3,0.496500456,0.560735099
36,33,2,2,72,1,1,0,3,0.430513817,0.376899321
36,36,2,2,73,1,2,1,4,0.425241529,0.422884784
36,38,2,2,74,3,1,0,1,1.430533184,1.496687412
36,20,2,2,75,2,2,1,4,0.601296105,0.585404769
36,25,2,1,76,2,1,1,4,0.583473286,0.525262699
36,30,2,1,77,3,1,1,3,1.066989665,1.076685649
36,34,2,2,78,2,2,1,3,0.531617815,0.563381335
36,25,2,1,79,3,1,1,3,0.81633622,0.881245294
36,25,2,2,80,2,2,1,3,0.555160411,0.492439092
36,26,2,2,81,3,2,1,2,1.124690133,1.084788304
36,33,2,1,82,3,2,0,2,0.813825072,0.746682608
36,36,2,2,83,1,2,1,5,0.37167138,0.340024892
36,38,2,2,84,3,2,1,2,0.49126493,0.428112935
36,20,2,2,85,3,1,0,1,0.998872028,1.033206027
36,25,2,2,86,1,2,1,5,0.361314491,0.403451054
36,30,2,1,87,3,1,1,3,0.950871016,0.90436756
36,34,2,2,88,1,2,1,4,0.365051991,0.269316721
36,25,2,2,89,2,2,1,3,0.387602772,0.337240931
36,25,2,2,90,1,2,1,4,0.439638492,0.417275877
36,26,2,2,91,1,2,1,4,0.4263221,0.469759597
36,33,2,1,92,3,1,1,3,0.606752509,0.579465198
36,36,2,1,93,2,1,1,3,0.732914775,0.689201872
36,38,2,2,94,3,2,1,2,0.605178692,0.588606205
36,20,2,2,95,3,1,0,1,1.409819267,1.402063902
36,25,2,1,96,3,2,0,2,1.186351163,1.249285489
36,30,2,1,97,2,1,1,4,0.477874211,0.465540109
36,34,2,1,98,3,2,0,2,0.901228145,0.859225366
36,25,2,1,99,2,1,1,4,0.373084415,0.435611897
36,25,2,2,100,2,1,0,3,0.719810865,0.636726507
36,26,2,2,101,1,2,1,5,0.408836224,0.365940302
36,33,2,2,102,2,2,1,3,0.681316967,0.607460207
36,36,2,1,103,2,2,0,3,0.64318306,0.708782002
36,38,2,2,104,3,1,0,2,1.494038374,1.545981216
36,20,2,2,105,1,2,1,4,0.400114919,0.414873378
36,25,2,2,106,2,1,0,2,0.561851176,0.475189395
36,30,2,2,107,2,2,1,3,0.797279626,0.742032776
36,34,2,2,108,3,1,0,2,1.11883203,1.148338731
36,25,2,2,109,2,2,1,3,0.542726386,0.494514229
36,25,2,1,110,2,1,1,3,0.791515017,0.757170691
36,26,2,2,111,2,2,1,4,0.506738636,0.516744661
36,33,2,2,112,1,2,1,4,0.589374919,0.60186909
36,36,2,2,113,1,2,1,4,0.633105258,0.731218508
36,38,2,1,114,3,1,1,2,0.720929192,0.81143374
36,20,2,1,115,2,1,1,4,0.521730504,0.496404704
36,25,2,2,116,2,2,1,3,0.702489932,0.72497377
36,30,2,1,117,1,2,0,3,0.37904439,0.43975776
36,34,2,1,118,3,1,1,2,0.708114194,0.768246166
36,25,2,2,119,3,1,0,2,0.806070486,0.771281981
36,25,2,2,120,2,2,1,4,0.708903023,0.774626741
36,26,2,1,121,3,1,1,3,1.041756424,0.974029572
36,33,2,2,122,2,2,1,4,0.680032796,0.76269773
36,36,2,2,123,3,2,1,3,0.840355,0.914842472
36,38,2,1,124,1,1,1,4,0.435063042,0.465950414
36,20,2,2,125,2,2,1,3,0.572608418,0.499766804
36,25,2,2,126,2,1,0,2,0.720378903,0.628105355
36,30,2,1,127,1,1,1,5,0.44116329,0.39305866
36,34,2,1,128,3,2,0,1,0.565491254,0.623163438
36,25,2,1,129,3,2,0,2,1.208860854,1.273621509
36,25,2,1,130,2,2,0,2,0.929256032,0.960856054
36,26,2,2,131,3,2,1,2,0.767758351,0.827779095
36,33,2,2,132,1,2,1,5,0.263158832,0.296269004
36,36,2,1,133,2,1,1,3,0.600409887,0.583530774
36,38,2,1,134,1,1,1,5,0.429235667,0.478276244
36,20,2,2,135,1,2,1,5,0.353491604,0.261366407
36,25,2,2,136,2,2,1,3,0.507867565,0.568205163
36,30,2,1,137,3,1,1,2,1.002367129,0.859327293
36,34,2,2,138,2,1,0,2,0.625984169,0.721405265
36,25,2,1,139,3,2,0,1,0.718214901,0.702937433
36,25,2,2,140,2,1,0,3,0.618815611,0.610061756
36,26,2,1,141,1,1,1,5,0.318647965,0.374069252
36,33,2,2,142,1,2,1,4,0.358605954,0.330694559
36,36,2,1,143,3,1,1,3,1.101911322,1.093953404
36,38,2,2,144,1,2,1,4,0.447417455,0.400179817
36,20,2,1,145,3,1,1,3,0.552218536,0.577725044
36,25,2,1,146,2,1,1,3,0.657313173,0.64657356
36,30,2,2,147,1,2,1,4,0.450718097,0.389117517
36,34,2,1,148,3,2,0,2,0.917162943,0.952517684
36,25,2,2,149,2,2,1,3,0.711228741,0.766627897
36,25,2,2,150,2,2,1,3,0.492529598,0.41126373
36,26,2,1,151,3,2,0,1,1.200658083,1.261597693
36,33,2,2,152,1,1,0,3,0.408585002,0.411090352
36,36,2,1,153,1,1,1,5,0.403613552,0.396290336
36,38,2,1,154,2,1,1,3,0.407774746,0.380563733
36,20,2,1,155,3,2,0,2,0.979984384,1.002829316
36,25,2,1,156,1,1,1,5,0.533272046,0.557752943
36,30,2,1,157,2,1,1,3,0.787955945,0.770417256
36,34,2,2,158,1,2,1,4,0.408401917,0.461846668
36,25,2,1,159,1,2,0,4,0.53782919,0.510309972
36,25,2,2,160,3,2,1,2,0.787223168,0.794814695
36,26,2,1,161,3,2,0,1,0.754320172,0.686913916
36,33,2,1,162,1,1,1,4,0.338192376,0.39809693
36,36,2,2,163,1,2,1,4,0.57812064,0.591777849
36,38,2,1,164,2,1,1,3,0.522801417,0.518015282
36,20,2,1,165,2,1,1,4,0.537222156,0.577129376
36,25,2,1,166,3,1,1,2,0.989107936,0.99760716
36,30,2,1,167,1,2,0,4,0.326958095,0.33863911
36,34,2,2,168,3,1,0,1,1.375629997,1.44275166
36,25,2,2,169,1,2,1,5,0.312938468,0.216945349
36,25,2,1,170,3,2,0,2,0.984331361,1.001766561
36,26,2,1,171,3,2,0,2,1.279375547,1.272610537
36,33,2,2,172,1,2,1,5,0.498004824,0.492238233
36,36,2,1,173,3,1,1,2,1.061721135,1.037815579
36,38,2,1,174,2,1,1,4,0.441317606,0.443660131
36,20,2,2,175,2,1,0,2,0.875299192,0.949941517
36,25,2,2,176,1,2,1,4,0.26623322,0.223288029
36,30,2,2,177,1,2,1,5,0.318685243,0.37856107
36,34,2,1,178,2,1,1,4,0.585916283,0.647228316
36,25,2,1,179,1,2,0,4,0.363352475,0.344899875
36,25,2,2,180,3,1,0,1,1.003177096,1.055621868
36,26,2,1,181,3,2,0,1,0.509340631,0.531645355
36,33,2,1,182,2,1,1,4,0.665873412,0.656260431
36,36,2,1,183,3,2,0,1,0.843840727,0.902915416
36,38,2,1,184,3,1,1,2,0.786595305,0.821851352
36,20,2,2,185,1,1,0,3,0.598101502,0.639356327
36,25,2,1,186,1,1,1,5,0.364051981,0.300441073
36,30,2,2,187,1,2,1,4,0.562235966,0.604485751
36,34,2,2,188,3,1,0,1,1.14657512,1.142875903
36,25,2,2,189,3,2,1,3,0.745614682,0.705499252
36,25,2,2,190,1,2,1,5,0.366265692,0.396780119
36,26,2,2,191,2,1,0,2,0.696223284,0.697326166
36,33,2,1,192,3,1,1,2,0.918483064,0.971673868
36,36,2,2,193,2,2,1,4,0.618318779,0.583619473
36,38,2,1,194,1,1,1,4,0.440191561,0.410042082
36,20,2,2,195,3,1,0,1,1.212307341,1.22522884
36,25,2,1,196,2,1,1,3,0.48798968,0.477985226
36,30,2,2,197,3,1,0,2,0.252279114,0.240802762
36,34,2,2,198,3,2,1,3,1.048974139,0.946038372
36,25,2,2,199,1,2,1,4,0.370987959,0.398617039
36,25,2,2,200,3,1,0,1,0.481488852,0.504045546
36,26,2,1,201,1,1,1,4,0.359768401,0.375022447
36,33,2,2,202,3,2,1,2,1.006010544,1.025486
36,36,2,2,203,1,2,1,5,0.498519916,0.590535305
36,38,2,1,204,3,1,1,3,0.739820811,0.725190645
36,20,2,1,205,2,1,1,4,0.739360156,0.773808784
36,25,2,1,206,3,1,1,2,0.817569042,0.808170283
36,30,2,1,207,2,2,0,2,0.622951621,0.751859336
36,34,2,2,208,2,2,1,3,0.223167111,0.157347925
36,25,2,1,209,1,1,1,5,0.370468161,0.442675297
36,25,2,1,210,3,2,0,2,1.347255135,1.42438844
36,26,2,1,211,2,2,0,3,0.732684685,0.69548361
36,33,2,1,212,1,2,0,3,0.467303589,0.476284632
36,36,2,1,213,1,1,1,4,0.178095837,0.216072017
36,38,2,1,214,1,2,0,4,0.550888978,0.576909769
36,20,2,1,215,2,1,1,3,0.339512915,0.31614488
36,25,2,2,216,1,2,1,4,0.381916148,0.348945884
36,30,2,2,217,1,2,1,4,0.388429602,0.389354663
36,34,2,1,218,3,2,0,1,1.20174736,1.245877434
36,25,2,2,219,2,2,1,3,0.566382069,0.645553864
36,25,2,2,220,1,1,0,4,0.533314086,0.496908007
36,26,2,1,221,2,1,1,3,0.56454275,0.569155824
36,33,2,1,222,2,1,1,3,0.386660674,0.429917137
36,36,2,1,223,1,2,0,3,0.572491607,0.640582322
36,38,2,1,224,3,1,1,2,0.855581303,0.844768646
36,20,2,2,225,2,1,0,2,0.51816392,0.434907919
36,25,2,2,226,1,1,0,3,0.47982582,0.543494745
36,30,2,1,227,1,1,1,5,0.45207644,0.461254316
36,34,2,2,228,1,2,1,4,0.358213784,0.401749563
36,25,2,2,229,3,2,1,2,0.817433261,0.845292946
36,25,2,2,230,3,2,1,2,0.905758238,0.940108381
36,26,2,1,231,3,1,1,2,1.06686175,0.985199399
36,33,2,2,232,1,2,1,4,0.328039373,0.329174388
36,36,2,1,233,1,1,1,4,0.459122924,0.38020684
36,38,2,2,234,2,2,1,3,0.710848937,0.755947956
36,20,2,1,235,1,2,0,3,0.56954681,0.536940464
36,25,2,2,236,1,2,1,4,0.347261277,0.374257971
36,30,2,1,237,3,1,1,3,0.762011526,0.814509636
36,34,2,1,238,1,1,1,4,0.444125204,0.423946247
36,25,2,2,239,2,2,1,4,0.59170399,0.622634472
36,25,2,2,240,3,2,1,3,0.589289756,0.569548013
35,37,1,2,1,3,1,0,2,1.306919687,1.363168337
35,20,1,2,2,2,2,1,3,0.807279771,0.793770061
35,21,1,1,3,2,1,1,4,0.420450578,0.444378227
35,29,1,2,4,3,1,0,2,0.579376375,0.601913922
35,32,1,2,5,2,2,1,4,0.386813604,0.420546041
35,29,1,2,6,1,2,1,5,0.470733235,0.471607689
35,27,1,1,7,2,1,1,3,0.569223439,0.512677251
35,38,1,2,8,2,2,1,3,0.574641988,0.657953495
35,19,1,2,9,1,1,0,4,0.566708287,0.465766345
35,20,1,1,10,1,1,1,4,0.456052152,0.509347581
35,37,1,1,11,1,1,1,4,0.399187876,0.471592097
35,20,1,2,12,1,2,1,4,0.416419606,0.498526287
35,21,1,1,13,3,1,1,3,1.185966085,1.175284905
35,29,1,2,14,2,2,1,4,0.516354654,0.483766029
35,32,1,1,15,3,1,1,3,0.984156721,0.926018474
35,29,1,1,16,2,1,1,3,0.598716099,0.566497179
35,27,1,1,17,1,1,1,4,0.409103415,0.441794805
35,38,1,1,18,3,2,0,2,1.205486569,1.223563198
35,19,1,1,19,1,1,1,5,0.349863936,0.329084665
35,20,1,1,20,2,1,1,3,0.600753351,0.544889636
35,37,1,2,21,2,2,1,4,0.585485518,0.585591426
35,20,1,2,22,1,2,1,4,0.483574039,0.451731821
35,21,1,2,23,2,1,0,3,0.657733997,0.671077565
35,29,1,2,24,2,2,1,3,0.772057557,0.72993887
35,32,1,1,25,2,1,1,4,0.672470234,0.600310949
35,29,1,1,26,3,2,0,2,0.990662996,0.976528397
35,27,1,2,27,3,2,1,3,0.719429855,0.672857321
35,38,1,1,28,3,2,0,2,0.489549189,0.442576926
35,19,1,2,29,2,2,1,3,0.71061171,0.60600773
35,20,1,1,30,2,1,1,3,0.574806933,0.503854566
35,37,1,1,31,1,2,0,3,0.661095254,0.701164972
35,20,1,1,32,1,2,0,4,0.469629697,0.423733678
35,21,1,2,33,2,2,1,4,0.746254549,0.720273683
35,29,1,1,34,2,1,1,4,0.741129412,0.730896069
35,32,1,1,35,1,1,1,4,0.41426244,0.363076328
35,29,1,1,36,3,2,0,1,0.944484763,0.909671719
35,27,1,2,37,1,2,1,5,0.335669158,0.310541189
35,38,1,2,38,1,2,1,5,0.287564914,0.320764529
35,19,1,2,39,2,1,0,3,0.644760214,0.607388451
35,20,1,1,40,1,1,1,4,0.328658692,0.279779771
35,37,1,2,41,2,1,0,2,0.67889184,0.675521443
35,20,1,1,42,3,1,1,3,0.683957265,0.722027892
35,21,1,1,43,1,2,0,3,0.494400627,0.468073511
35,29,1,1,44,2,2,0,2,0.768063589,0.751004537
35,32,1,1,45,3,2,0,2,1.079960581,1.055096315
35,29,1,2,46,2,2,1,3,0.305605469,0.239425531
35,27,1,1,47,3,1,1,3,0.664598965,0.633769517
35,38,1,2,48,1,2,1,5,0.449895567,0.52356171
35,19,1,1,49,1,1,1,4,0.44798437,0.53546669
35,20,1,1,50,2,1,1,3,0.486677408,0.455579221
35,37,1,1,51,3,1,1,3,1.15156949,1.179760366
35,20,1,2,52,1,2,1,5,0.218080274,0.237869683
35,21,1,1,53,3,2,0,1,0.389196319,0.318070771
35,29,1,1,54,3,2,0,1,0.967139581,1.02102461
35,32,1,1,55,3,2,0,2,0.669086906,0.676737374
35,29,1,1,56,1,1,1,5,0.571167826,0.562781073
35,27,1,1,57,2,2,0,3,0.669945556,0.644237375
35,38,1,2,58,1,1,0,3,0.483927479,0.513566566
35,19,1,1,59,3,2,0,2,0.532611475,0.432658793
35,20,1,2,60,2,2,1,4,0.680956517,0.710422067
35,37,1,2,61,2,1,0,2,0.620925961,0.577837295
35,20,1,1,62,2,1,1,4,0.436788774,0.500107725
35,21,1,2,63,1,2,1,5,0.438936173,0.407560141
35,29,1,2,64,1,2,1,5,0.528670297,0.488648445
35,32,1,2,65,1,2,1,4,0.291315915,0.286358495
35,29,1,1,66,3,2,0,1,0.723244939,0.757472515
35,27,1,1,67,1,1,1,4,0.400949651,0.393357517
35,38,1,1,68,3,2,0,2,0.255419181,0.286403746
35,19,1,1,69,3,2,0,2,1.07144622,0.965877853
35,20,1,2,70,3,2,1,2,0.951583834,0.984839144
35,37,1,1,71,2,2,0,3,0.784549386,0.823994412
35,20,1,2,72,1,2,1,5,0.285740092,0.316239996
35,21,1,2,73,2,2,1,3,0.499504237,0.563311898
35,29,1,1,74,3,2,0,1,1.190609414,1.173692914
35,32,1,2,75,1,2,1,4,0.410707325,0.401822808
35,29,1,2,76,1,2,1,5,0.361367939,0.390881599
35,27,1,2,77,1,1,0,4,0.547836069,0.551361818
35,38,1,2,78,3,2,1,3,0.955978029,0.991567059
35,19,1,1,79,1,1,1,5,0.415813542,0.401484049
35,20,1,1,80,2,2,0,2,0.716409941,0.754058779
35,37,1,1,81,2,2,0,2,0.678822799,0.687053871
35,20,1,2,82,2,1,0,2,0.748953793,0.8743378
35,21,1,1,83,1,2,0,3,0.65423844,0.70224353
35,29,1,2,84,2,1,0,3,0.760334664,0.811350446
35,32,1,1,85,2,1,1,4,0.671307973,0.625731616
35,29,1,2,86,3,1,0,1,1.904530815,1.915582682
35,27,1,2,87,3,2,1,2,0.625014666,0.620090802
35,38,1,2,88,3,1,0,1,0.934301773,0.932374598
35,19,1,1,89,2,1,1,3,0.51481815,0.435999526
35,20,1,1,90,2,1,1,4,0.651407725,0.781297683
35,37,1,1,91,2,2,0,3,0.691597247,0.570056421
35,20,1,2,92,3,2,1,2,0.554892637,0.605258823
35,21,1,2,93,3,2,1,3,0.812392961,0.812302793
35,29,1,2,94,2,1,0,3,0.234563947,0.287045119
35,32,1,1,95,3,2,0,1,0.565861996,0.562467555
35,29,1,2,96,1,2,1,4,0.421346927,0.366181833
35,27,1,2,97,1,2,1,4,0.393410152,0.451670154
35,38,1,2,98,3,1,0,2,1.322946568,1.347828263
35,19,1,1,99,3,1,1,3,0.595157927,0.600580984
35,20,1,1,100,3,2,0,1,1.329635321,1.329648399
35,37,1,1,101,1,2,0,3,0.614413467,0.673303143
35,20,1,2,102,1,2,1,5,0.523647526,0.510177664
35,21,1,1,103,1,1,1,5,0.594200959,0.634043326
35,29,1,2,104,1,2,1,4,0.469282312,0.444291494
35,32,1,2,105,2,2,1,3,0.590480912,0.650524045
35,29,1,1,106,3,2,0,1,0.925255858,0.934979861
35,27,1,2,107,1,2,1,4,0.382976823,0.427061225
35,38,1,2,108,1,2,1,5,0.403108303,0.418020382
35,19,1,2,109,2,2,1,4,0.620066205,0.625423322
35,20,1,1,110,3,1,1,2,0.561911893,0.593775045
35,37,1,2,111,2,1,0,3,0.473854816,0.488825137
35,20,1,1,112,1,1,1,4,0.33283509,0.290708676
35,21,1,2,113,2,2,1,4,0.664953773,0.693986854
35,29,1,1,114,2,1,1,3,0.527214328,0.477641681
35,32,1,2,115,2,2,1,4,0.490848573,0.509244731
35,29,1,1,116,3,2,0,1,0.9611381,0.908397467
35,27,1,1,117,1,2,0,4,0.638409354,0.678691
35,38,1,2,118,3,1,0,2,0.862954101,0.817694452
35,19,1,1,119,1,2,0,3,0.412520821,0.361503192
35,20,1,2,120,1,2,1,5,0.444409839,0.496843776
35,37,1,2,121,2,1,0,2,0.531767682,0.585310191
35,20,1,1,122,2,1,1,4,0.542018772,0.520004816
35,21,1,2,123,1,1,0,3,0.395690754,0.441020923
35,29,1,2,124,3,2,1,2,0.660434078,0.706651155
35,32,1,1,125,1,1,1,4,0.276013392,0.296046643
35,29,1,1,126,2,1,1,4,0.619151666,0.532626532
35,27,1,2,127,1,1,0,4,0.567149646,0.461873816
35,38,1,1,128,3,1,1,2,0.685805767,0.641952892
35,19,1,1,129,2,1,1,3,0.661348004,0.601198101
35,20,1,2,130,2,2,1,4,0.587492651,0.50764988
35,37,1,2,131,2,2,1,3,0.677094986,0.675819633
35,20,1,2,132,1,2,1,5,0.297835767,0.277608095
35,21,1,2,133,3,2,1,2,0.863014811,0.84147689
35,29,1,2,134,1,2,1,5,0.540614683,0.599831977
35,32,1,2,135,3,1,0,2,0.122288912,0.240504942
35,29,1,2,136,2,2,1,4,0.464877471,0.538257286
35,27,1,1,137,3,1,1,3,0.66207309,0.617655975
35,38,1,1,138,1,1,1,5,0.43144921,0.402740935
35,19,1,1,139,3,1,1,3,0.82600962,0.862442642
35,20,1,1,140,1,1,1,5,0.47485004,0.484699751
35,37,1,1,141,3,1,1,2,0.856120732,0.858492714
35,20,1,1,142,1,1,1,5,0.446085093,0.461673236
35,21,1,2,143,1,1,0,3,0.531915217,0.539907246
35,29,1,1,144,3,2,0,1,0.939669671,0.935258808
35,32,1,1,145,2,1,1,4,0.83365689,0.802228891
35,29,1,2,146,3,1,0,1,0.79925773,0.836922278
35,27,1,2,147,3,2,1,3,0.55725246,0.542131445
35,38,1,2,148,2,2,1,3,0.626416173,0.534201875
35,19,1,1,149,2,1,1,3,0.436165775,0.457285331
35,20,1,2,150,3,2,1,2,0.769198531,0.704842981
35,37,1,2,151,1,2,1,5,0.340962168,0.325587431
35,20,1,2,152,3,1,0,2,1.018162338,1.024090098
35,21,1,2,153,3,1,0,2,0.747381259,0.753047011
35,29,1,1,154,3,2,0,2,1.244058405,1.283196668
35,32,1,1,155,2,1,1,4,0.506799792,0.538047505
35,29,1,1,156,1,2,0,4,0.577234851,0.606045636
35,27,1,1,157,3,2,0,2,0.913753016,0.95197617
35,38,1,1,158,2,2,0,3,0.442220848,0.442749793
35,19,1,2,159,1,1,0,3,0.337249674,0.365470944
35,20,1,1,160,2,1,1,4,0.561086823,0.652034873
35,37,1,1,161,2,1,1,4,0.741489729,0.671352756
35,20,1,2,162,2,2,1,4,0.529827372,0.547331855
35,21,1,2,163,2,2,1,3,0.578718218,0.611764373
35,29,1,2,164,2,2,1,4,0.606049348,0.618717222
35,32,1,1,165,1,2,0,4,0.636488869,0.619775093
35,29,1,1,166,1,1,1,4,0.294797256,0.332657175
35,27,1,1,167,1,1,1,5,0.404889102,0.440771036
35,38,1,1,168,1,1,1,4,0.276880961,0.200930809
35,19,1,1,169,1,1,1,4,0.396103234,0.482306005
35,20,1,2,170,3,1,0,1,0.336793797,0.211043621
35,37,1,2,171,2,2,1,4,0.641179543,0.530540377
35,20,1,2,172,1,2,1,4,0.419729074,0.403346152
35,21,1,1,173,3,1,1,2,0.980945252,1.025894557
35,29,1,2,174,3,2,1,3,0.992157913,0.942389801
35,32,1,1,175,3,2,0,2,1.484468076,1.508287352
35,29,1,2,176,3,2,1,3,0.787081639,0.703295779
35,27,1,2,177,1,2,1,4,0.420644967,0.474691237
35,38,1,2,178,2,1,0,3,0.662888676,0.622455754
35,19,1,2,179,1,2,1,5,0.373905244,0.427811254
35,20,1,1,180,1,2,0,3,0.487319217,0.508874167
35,37,1,2,181,1,2,1,4,0.539839996,0.608339555
35,20,1,1,182,2,2,0,2,0.646684906,0.743719621
35,21,1,2,183,1,2,1,4,0.344757419,0.349841858
35,29,1,1,184,3,2,0,2,1.041082287,1.137633318
35,32,1,2,185,1,2,1,5,0.402040523,0.461021046
35,29,1,2,186,2,2,1,3,0.551532258,0.469685425
35,27,1,1,187,1,1,1,4,0.398446052,0.372337679
35,38,1,2,188,1,2,1,4,0.346552092,0.278282537
35,19,1,1,189,3,2,0,2,1.207789791,1.116034702
35,20,1,2,190,2,2,1,3,0.523018952,0.420669334
35,37,1,1,191,3,2,0,1,0.774424358,0.926295487
35,20,1,1,192,3,2,0,2,0.928837124,0.892008189
35,21,1,2,193,3,2,1,2,0.909171615,0.817402446
35,29,1,2,194,2,2,1,4,0.44533444,0.422541253
35,32,1,2,195,1,2,1,4,0.318661606,0.344616322
35,29,1,2,196,2,1,0,3,0.603933979,0.673442712
35,27,1,1,197,3,2,0,2,1.146874354,1.086299862
35,38,1,2,198,3,1,0,1,1.10826503,1.146121138
35,19,1,1,199,3,1,1,3,0.634590546,0.598764074
35,20,1,1,200,3,1,1,3,0.803317988,0.720842223
35,37,1,1,201,1,1,1,4,0.36766926,0.358998021
35,20,1,2,202,1,2,1,5,0.438075575,0.513601885
35,21,1,1,203,1,1,1,5,0.468693961,0.412578417
35,29,1,1,204,1,1,1,5,0.471109152,0.506118015
35,32,1,2,205,3,2,1,2,0.389497911,0.402139699
35,29,1,1,206,3,1,1,2,0.565510614,0.677944385
35,27,1,2,207,3,2,1,3,0.687306688,0.709594086
35,38,1,1,208,1,1,1,5,0.413146541,0.394942849
35,19,1,1,209,3,1,1,3,1.100726717,1.000261707
35,20,1,1,210,2,1,1,4,0.520028705,0.492412013
35,37,1,2,211,3,1,0,2,0.8069548,0.834565669
35,20,1,2,212,2,2,1,4,0.633042649,0.678265984
35,21,1,2,213,3,1,0,1,1.628418381,1.650442931
35,29,1,2,214,1,2,1,4,0.420383203,0.370893213
35,32,1,1,215,1,2,0,3,0.40156482,0.436764861
35,29,1,2,216,3,2,1,2,0.80971262,0.815358349
35,27,1,1,217,1,1,1,4,0.399069955,0.401920726
35,38,1,2,218,3,1,0,2,1.082566105,1.05570348
35,19,1,1,219,2,1,1,4,0.414024987,0.409529255
35,20,1,2,220,1,2,1,4,0.325835417,0.328195862
35,37,1,2,221,2,1,0,2,0.833475506,0.874975488
35,20,1,1,222,2,1,1,3,0.470495358,0.386230387
35,21,1,2,223,3,1,0,1,1.491531212,1.531122637
35,29,1,2,224,2,2,1,4,0.6283418,0.683270885
35,32,1,1,225,2,1,1,4,0.414600889,0.339918177
35,29,1,1,226,2,2,0,3,0.851711906,0.883820601
35,27,1,2,227,3,2,1,2,0.692919487,0.659844241
35,38,1,2,228,2,2,1,4,0.698334172,0.659932229
35,19,1,2,229,3,2,1,3,0.803644765,0.853245839
35,20,1,2,230,3,1,0,1,1.227817573,1.242314037
35,37,1,2,231,1,2,1,4,0.455426746,0.475120256
35,20,1,1,232,2,1,1,4,0.617998316,0.575292393
35,21,1,1,233,3,2,0,2,0.291351393,0.328610274
35,29,1,2,234,3,2,1,3,1.203717548,1.167337779
35,32,1,2,235,2,2,1,3,0.5260432,0.490764546
35,29,1,1,236,2,1,1,3,0.622074629,0.679200747
35,27,1,1,237,2,1,1,4,0.590817903,0.523340585
35,38,1,1,238,3,2,0,1,1.22068998,1.160808239
35,19,1,1,239,1,1,1,5,0.405561222,0.392101165
35,20,1,1,240,2,1,1,3,0.523635656,0.537866786
34,19,2,1,1,1,1,1,4,0.478193285,0.487145684
34,30,2,1,2,2,1,1,3,0.612660453,0.587451638
34,37,2,2,3,2,2,1,3,0.830534535,0.837158002
34,29,2,1,4,3,1,1,2,0.995351496,0.942630174
34,26,2,2,5,2,2,1,3,0.631134805,0.621535535
34,21,2,1,6,3,2,0,1,0.824080232,0.794767161
34,20,2,1,7,1,1,1,4,0.506466773,0.518571936
34,35,2,2,8,1,1,0,3,0.642630359,0.650413719
34,24,2,1,9,1,1,1,5,0.370253961,0.230332179
34,32,2,1,10,3,2,0,2,1.194602329,1.166102455
34,19,2,1,11,2,1,1,3,0.665388084,0.713307037
34,30,2,1,12,1,2,0,3,0.795931587,0.695115314
34,37,2,2,13,3,1,0,2,1.007877837,0.98969842
34,29,2,2,14,2,1,0,3,0.801494852,0.858222359
34,26,2,1,15,3,2,0,2,1.25315802,1.189147504
34,21,2,2,16,2,1,0,2,0.905370932,0.859631373
34,20,2,2,17,1,2,1,4,0.382723679,0.340905056
34,35,2,1,18,3,1,1,3,0.68922527,0.7335406
34,24,2,1,19,3,1,1,3,0.733351722,0.740686917
34,32,2,1,20,3,2,0,2,1.080755495,1.118393932
34,19,2,1,21,3,1,1,2,0.810970242,0.808081163
34,30,2,2,22,2,2,1,3,0.611953794,0.733346571
34,37,2,2,23,1,2,1,4,0.517193632,0.516683252
34,29,2,1,24,1,1,1,5,0.402802875,0.32020937
34,26,2,1,25,1,2,0,3,0.712345967,0.767672212
34,21,2,2,26,3,1,0,1,0.444338055,0.450239556
34,20,2,1,27,1,1,1,4,0.315643189,0.345903904
34,35,2,2,28,3,1,0,2,0.661356376,0.675922267
34,24,2,2,29,2,2,1,4,0.611678136,0.626519974
34,32,2,2,30,3,2,1,3,0.507784638,0.68979593
34,19,2,2,31,1,2,1,4,0.390176367,0.369983926
34,30,2,1,32,1,1,1,5,0.414802925,0.311795713
34,37,2,1,33,2,2,0,3,0.911611552,0.915778651
34,29,2,1,34,2,2,0,3,0.571907685,0.532030899
34,26,2,1,35,1,2,0,3,0.695863924,0.636184245
34,21,2,2,36,2,1,0,2,0.630331167,0.652909707
34,20,2,2,37,3,1,0,2,0.985963257,0.983580395
34,35,2,2,38,3,1,0,1,1.696102209,1.700579076
34,24,2,2,39,2,1,0,2,0.719644882,0.741353378
34,32,2,2,40,2,2,1,3,0.616648165,0.585841411
34,19,2,2,41,2,2,1,4,0.619201541,0.548348456
34,30,2,2,42,2,1,0,3,0.69824263,0.695068632
34,37,2,1,43,2,2,0,3,0.85993432,0.848577354
34,29,2,2,44,2,2,1,4,0.461179264,0.4603838
34,26,2,2,45,1,2,1,4,0.450675744,0.40879268
34,21,2,2,46,1,2,1,5,0.397524177,0.373651178
34,20,2,2,47,3,2,1,2,1.163681088,1.247686363
34,35,2,1,48,1,1,1,4,0.480299844,0.515168622
34,24,2,2,49,3,1,0,1,1.361480622,1.397262118
34,32,2,2,50,3,2,1,3,0.504613188,0.52899077
34,19,2,2,51,3,2,1,2,0.682136199,0.631929798
34,30,2,1,52,1,1,1,4,0.21914421,0.25384605
34,37,2,2,53,3,1,0,2,1.608896814,1.576796922
34,29,2,2,54,2,1,0,3,0.572014032,0.64059265
34,26,2,1,55,3,2,0,1,1.105991266,1.141414538
34,21,2,1,56,3,2,0,2,0.693907858,0.794600863
34,20,2,1,57,2,1,1,3,0.377150875,0.363532397
34,35,2,2,58,1,2,1,4,0.459427718,0.408557654
34,24,2,2,59,3,1,0,2,1.083835436,1.020145145
34,32,2,1,60,3,2,0,2,1.032559627,1.040541335
34,19,2,2,61,3,1,0,1,1.386511224,1.411864532
34,30,2,2,62,2,2,1,3,0.6671804,0.65403568
34,37,2,2,63,3,1,0,1,1.279007522,1.191406032
34,29,2,1,64,1,1,1,5,0.439997304,0.343161119
34,26,2,1,65,3,2,0,1,0.464395663,0.414212551
34,21,2,1,66,3,1,1,2,0.868942287,0.906985066
34,20,2,2,67,2,1,0,3,0.853766789,0.876171982
34,35,2,1,68,1,1,1,4,0.352591743,0.493000483
34,24,2,1,69,3,2,0,2,0.96390752,0.861733999
34,32,2,1,70,2,1,1,3,0.516617067,0.56270369
34,19,2,1,71,1,2,0,3,0.529075892,0.549022594
34,30,2,1,72,1,1,1,4,0.353157454,0.360627231
34,37,2,1,73,2,2,0,2,0.693913854,0.682977987
34,29,2,2,74,3,2,1,3,1.02656128,1.073285707
34,26,2,1,75,3,2,0,1,1.484389153,1.337847976
34,21,2,2,76,1,1,0,3,0.639793652,0.619682098
34,20,2,1,77,1,2,0,4,0.556369388,0.61707448
34,35,2,1,78,1,1,1,5,0.489464091,0.460484601
34,24,2,2,79,1,2,1,5,0.52935082,0.487453296
34,32,2,2,80,1,1,0,3,0.579534155,0.603676594
34,19,2,1,81,1,1,1,4,0.549839376,0.489099135
34,30,2,1,82,3,2,0,1,0.839786837,0.839494734
34,37,2,1,83,2,1,1,4,0.643756759,0.666041965
34,29,2,1,84,2,2,0,3,0.577009403,0.500603234
34,26,2,1,85,2,2,0,3,0.583256816,0.614437979
34,21,2,2,86,3,2,1,3,0.622649356,0.656909239
34,20,2,2,87,3,2,1,2,0.665489589,0.626586682
34,35,2,2,88,1,2,1,5,0.344107947,0.286485933
34,24,2,1,89,3,2,0,2,1.250755028,1.232698941
34,32,2,1,90,2,1,1,4,0.580083519,0.59381529
34,19,2,1,91,1,2,0,4,0.506174139,0.520387869
34,30,2,2,92,3,1,0,2,1.573322929,1.523016124
34,37,2,1,93,3,1,1,2,1.019438393,0.986295753
34,29,2,1,94,2,2,0,3,0.543997068,0.629472863
34,26,2,1,95,2,2,0,3,0.617699374,0.604747687
34,21,2,2,96,2,1,0,3,0.722230315,0.830264984
34,20,2,2,97,1,2,1,4,0.403280996,0.351866619
34,35,2,1,98,2,1,1,3,0.52126847,0.525914825
34,24,2,2,99,1,2,1,5,0.197584418,0.195671901
34,32,2,1,100,2,1,1,3,0.68961806,0.697470595
34,19,2,2,101,3,1,0,2,1.382565434,1.378866339
34,30,2,1,102,1,1,1,5,0.369394594,0.338663787
34,37,2,2,103,3,2,1,2,0.633560906,0.585679873
34,29,2,1,104,3,2,0,2,1.499667321,1.530795294
34,26,2,1,105,1,2,0,3,0.695444439,0.757965938
34,21,2,2,106,3,1,0,2,1.191938679,1.178383695
34,20,2,2,107,3,2,1,3,0.717610795,0.741821982
34,35,2,2,108,3,2,1,3,0.766391983,0.804932358
34,24,2,2,109,1,2,1,4,0.432090811,0.429303999
34,32,2,1,110,1,2,0,4,0.514610108,0.632194684
34,19,2,2,111,1,2,1,4,0.447448716,0.444538147
34,30,2,2,112,2,1,0,3,0.746602362,0.782868896
34,37,2,2,113,1,1,0,4,0.766248081,0.806380532
34,29,2,1,114,1,1,1,4,0.424134152,0.417761995
34,26,2,2,115,2,2,1,3,0.55659498,0.546403572
34,21,2,2,116,2,1,0,3,0.706624243,0.738302861
34,20,2,2,117,3,1,0,1,1.424239413,1.371217195
34,35,2,1,118,2,2,0,3,0.637587537,0.609054181
34,24,2,2,119,1,1,0,4,0.696864836,0.684703074
34,32,2,1,120,3,2,0,1,1.404225698,1.429385485
34,19,2,2,121,3,2,1,2,1.028026498,1.065368265
34,30,2,1,122,2,1,1,3,0.349073488,0.363112187
34,37,2,1,123,1,1,1,4,0.339509112,0.344802463
34,29,2,1,124,2,1,1,3,0.558959147,0.621172231
34,26,2,1,125,3,2,0,1,0.311878365,0.379624409
34,21,2,2,126,2,1,0,3,0.732147468,0.763768397
34,20,2,1,127,2,2,0,2,0.729496112,0.693030012
34,35,2,2,128,1,2,1,5,0.411391893,0.436057018
34,24,2,2,129,2,2,1,3,0.706721008,0.707441062
34,32,2,2,130,3,2,1,3,0.967708028,0.981708487
34,19,2,2,131,2,1,0,3,0.666653021,0.627804229
34,30,2,1,132,2,1,1,4,0.662411172,0.700129792
34,37,2,1,133,3,2,0,1,0.961344647,0.959436395
34,29,2,2,134,1,2,1,4,0.424302271,0.473312499
34,26,2,2,135,3,2,1,2,0.75077671,0.756695898
34,21,2,2,136,2,2,1,4,0.64635254,0.672771164
34,20,2,2,137,2,1,0,3,0.705846411,0.646695433
34,35,2,1,138,1,1,1,4,0.26748022,0.305288733
34,24,2,2,139,3,1,0,2,1.626478151,1.546409212
34,32,2,1,140,2,1,1,3,0.384752093,0.36481875
34,19,2,2,141,2,2,1,3,0.704047177,0.641229608
34,30,2,2,142,2,2,1,3,0.572467172,0.617196971
34,37,2,2,143,1,2,1,4,0.37938646,0.364798671
34,29,2,2,144,1,2,1,4,0.416845501,0.433618249
34,26,2,1,145,1,1,1,4,0.390187873,0.413040571
34,21,2,2,146,3,2,1,3,0.847213534,0.841689847
34,20,2,2,147,2,2,1,3,0.687744636,0.723180382
34,35,2,1,148,1,2,0,4,0.546176471,0.560678141
34,24,2,2,149,2,2,1,4,0.770269073,0.715177415
34,32,2,2,150,1,2,1,5,0.408182906,0.421465301
34,19,2,2,151,3,2,1,2,0.9910507,1.048215997
34,30,2,1,152,2,1,1,3,0.517680036,0.550272504
34,37,2,2,153,3,2,1,2,0.949170269,1.026019223
34,29,2,2,154,1,2,1,5,0.454180212,0.384852361
34,26,2,1,155,1,1,1,5,0.292516236,0.248601015
34,21,2,2,156,3,2,1,3,0.664109561,0.673381518
34,20,2,2,157,2,2,1,4,0.551959911,0.581872018
34,35,2,1,158,2,2,0,2,0.283258922,0.269334457
34,24,2,2,159,2,2,1,3,0.613439995,0.655426692
34,32,2,2,160,2,1,0,2,0.549659201,0.586862728
34,19,2,2,161,1,2,1,4,0.389606218,0.366037448
34,30,2,1,162,1,2,0,4,0.628553635,0.624319021
34,37,2,1,163,2,2,0,2,0.858922151,0.822944312
34,29,2,1,164,1,1,1,4,0.230504969,0.243106811
34,26,2,1,165,2,1,1,3,0.44756792,0.401907238
34,21,2,1,166,2,2,0,3,0.536771375,0.515450927
34,20,2,2,167,2,1,0,2,0.479371815,0.496165486
34,35,2,2,168,1,2,1,5,0.41194468,0.446493579
34,24,2,1,169,1,1,1,5,0.333712248,0.277935488
34,32,2,1,170,3,1,1,2,1.015730231,1.019116133
34,19,2,1,171,1,2,0,3,0.50508957,0.52031493
34,30,2,1,172,2,1,1,3,0.526160742,0.487615084
34,37,2,2,173,2,2,1,3,0.628957646,0.62687678
34,29,2,1,174,2,2,0,2,0.529664231,0.487747376
34,26,2,2,175,2,1,0,3,0.677470357,0.759118814
34,21,2,1,176,3,2,0,2,1.142056697,1.19440939
34,20,2,2,177,2,1,0,3,0.729039458,0.677832193
34,35,2,1,178,2,1,1,3,0.828158028,0.847779008
34,24,2,1,179,2,2,0,3,0.213561007,0.155918586
34,32,2,1,180,1,1,1,5,0.579080264,0.630348146
34,19,2,1,181,1,1,1,4,0.346841505,0.356578076
34,30,2,1,182,1,1,1,4,0.310846807,0.290151582
34,37,2,1,183,2,1,1,4,0.500296078,0.471406495
34,29,2,1,184,2,1,1,4,0.585495349,0.620523889
34,26,2,2,185,3,1,0,2,0.884540714,0.817398582
34,21,2,1,186,1,1,1,5,0.421213947,0.396575458
34,20,2,1,187,3,1,1,2,0.775936254,0.718411962
34,35,2,1,188,1,1,1,5,0.436052394,0.378656302
34,24,2,2,189,2,2,1,4,0.689856602,0.739710997
34,32,2,1,190,1,1,1,4,0.492218239,0.456778197
34,19,2,2,191,1,1,0,4,0.497871471,0.563691414
34,30,2,1,192,3,2,0,2,1.40700757,1.38406763
34,37,2,1,193,3,1,1,2,1.073909444,1.111854023
34,29,2,1,194,1,1,1,5,0.283059371,0.278324871
34,26,2,2,195,2,2,1,4,0.716978964,0.598588231
34,21,2,1,196,1,2,0,3,0.453971748,0.526241856
34,20,2,1,197,1,1,1,4,0.380868512,0.338488796
34,35,2,2,198,1,2,1,4,0.475896931,0.525187491
34,24,2,1,199,2,2,0,3,0.572171217,0.655318001
34,32,2,2,200,3,1,0,2,0.81035603,0.699236379
34,19,2,1,201,1,1,1,5,0.326712061,0.281829045
34,30,2,1,202,1,2,0,3,0.641705146,0.67905291
34,37,2,2,203,2,2,1,4,0.593814512,0.695661469
34,29,2,1,204,2,1,1,4,0.688445427,0.571214057
34,26,2,2,205,1,2,1,5,0.494521885,0.45098586
34,21,2,1,206,3,2,0,2,1.060069448,1.129913905
34,20,2,1,207,3,2,0,1,0.882091725,0.863781022
34,35,2,2,208,2,1,0,2,0.74381288,0.754161074
34,24,2,1,209,2,2,0,3,0.748993443,0.743741568
34,32,2,1,210,3,2,0,2,1.239859392,1.257061637
34,19,2,2,211,3,2,1,2,0.603418595,0.600548617
34,30,2,2,212,3,2,1,2,1.081921961,1.097092227
34,37,2,2,213,2,1,0,3,0.506233032,0.452786929
34,29,2,2,214,3,1,0,1,1.129316953,1.066652569
34,26,2,2,215,3,2,1,3,0.801621648,0.773644962
34,21,2,1,216,3,2,0,1,0.9003884,0.869243694
34,20,2,1,217,3,1,1,3,0.927717629,0.925639065
34,35,2,2,218,1,1,0,3,0.458146495,0.556626544
34,24,2,1,219,2,1,1,3,0.546367813,0.509540699
34,32,2,2,220,1,2,1,5,0.260964758,0.162673908
34,19,2,1,221,2,1,1,4,0.613689564,0.660392976
34,30,2,2,222,3,2,1,3,0.756744322,0.764855941
34,37,2,2,223,3,2,1,3,0.768310419,0.776183325
34,29,2,2,224,3,1,0,1,0.51726418,0.4357328
34,26,2,2,225,2,1,0,3,0.676352671,0.732959074
34,21,2,2,226,2,2,1,3,0.634838117,0.685051785
34,20,2,2,227,1,2,1,5,0.406518944,0.462945959
34,35,2,1,228,3,1,1,2,0.526156599,0.514853626
34,24,2,2,229,3,2,1,2,0.978919377,1.080304839
34,32,2,2,230,3,2,1,3,0.696488789,0.704164076
34,19,2,1,231,3,2,0,2,1.242459962,1.236286618
34,30,2,1,232,3,2,0,1,0.788531104,0.821499565
34,37,2,1,233,1,1,1,5,0.408906439,0.580868254
34,29,2,2,234,1,2,1,4,0.350296114,0.333129526
34,26,2,1,235,1,1,1,4,0.386722201,0.418630264
34,21,2,2,236,1,2,1,5,0.399471346,0.35313864
34,20,2,1,237,3,2,0,1,0.555512416,0.596887084
34,35,2,2,238,1,2,1,4,0.487410401,0.569017628
34,24,2,2,239,1,2,1,4,0.39104839,0.36367055
34,32,2,1,240,3,2,0,2,0.300813795,0.31686509
33,30,1,2,1,1,1,0,3,0.499203479,0.454965954
33,39,1,2,2,3,1,0,1,0.718465216,0.75490997
33,27,1,2,3,3,1,0,2,0.712877576,0.687537264
33,26,1,1,4,2,1,1,3,0.638059045,0.568655417
33,28,1,1,5,2,1,1,4,0.388788686,0.31875011
33,28,1,1,6,3,2,0,2,1.281431063,1.362718544
33,23,1,1,7,1,1,1,5,0.364590822,0.355009402
33,20,1,2,8,1,2,1,5,0.531267123,0.530133709
33,39,1,1,9,1,1,1,5,0.413005144,0.353237315
33,24,1,1,10,1,1,1,5,0.397411292,0.372845294
33,30,1,2,11,1,2,1,4,0.408349325,0.427422798
33,39,1,2,12,2,2,1,3,0.60313105,0.617888956
33,27,1,2,13,2,1,0,3,0.929040541,1.068625441
33,26,1,2,14,2,2,1,3,0.492258158,0.541652309
33,28,1,1,15,2,2,0,2,0.623714122,0.562753098
33,28,1,1,16,3,2,0,2,1.59919309,1.707413641
33,23,1,2,17,3,2,1,2,0.956992262,0.971642736
33,20,1,1,18,3,1,1,3,0.629024819,0.573114549
33,39,1,1,19,2,1,1,3,0.425631085,0.424045202
33,24,1,1,20,2,2,0,2,0.614479878,0.592024782
33,30,1,2,21,2,2,1,4,0.639657183,0.628054023
33,39,1,2,22,3,1,0,2,0.294674591,0.333250185
33,27,1,1,23,1,1,1,4,0.254902578,0.299796348
33,26,1,2,24,3,1,0,1,0.684675748,0.716970448
33,28,1,1,25,1,1,1,4,0.457142297,0.481094749
33,28,1,2,26,3,1,0,1,1.100360024,1.163628235
33,23,1,2,27,2,1,0,2,0.766901199,0.788092152
33,20,1,1,28,3,1,1,3,1.011948096,1.037739287
33,39,1,1,29,2,1,1,4,0.647886517,0.656170891
33,24,1,1,30,1,1,1,5,0.367043546,0.366560297
33,30,1,2,31,3,2,1,3,0.523837149,0.472621419
33,39,1,2,32,3,2,1,2,0.999651443,0.956095966
33,27,1,1,33,2,2,0,3,0.567194621,0.657087782
33,26,1,2,34,1,2,1,5,0.278649885,0.270068931
33,28,1,1,35,2,1,1,4,0.674562481,0.630357559
33,28,1,1,36,2,2,0,3,0.510121235,0.484925064
33,23,1,2,37,1,2,1,5,0.49583545,0.530693748
33,20,1,1,38,2,2,0,3,0.674277337,0.697761744
33,39,1,1,39,2,1,1,3,0.704584264,0.699537945
33,24,1,2,40,3,1,0,2,0.967032401,0.940438899
33,30,1,1,41,1,2,0,3,0.597980958,0.527666659
33,39,1,1,42,1,1,1,4,0.490974468,0.479189397
33,27,1,1,43,1,1,1,5,0.460971641,0.49056051
33,26,1,2,44,1,2,1,5,0.468242001,0.461119674
33,28,1,1,45,3,2,0,1,1.54143486,1.584019004
33,28,1,2,46,1,2,1,4,0.398777299,0.318843345
33,23,1,2,47,2,1,0,2,0.491569553,0.480624621
33,20,1,2,48,1,2,1,5,0.36137887,0.455985443
33,39,1,1,49,1,1,1,5,0.392920927,0.42544468
33,24,1,2,50,1,1,0,3,0.672081457,0.740040799
33,30,1,1,51,2,2,0,2,0.89851789,0.878027545
33,39,1,1,52,3,2,0,1,1.017857235,1.014276814
33,27,1,1,53,1,1,1,5,0.399102085,0.370586243
33,26,1,2,54,3,1,0,2,1.165431737,1.194076653
33,28,1,2,55,2,2,1,3,0.675087902,0.767788669
33,28,1,1,56,2,1,1,3,0.558272611,0.558702026
33,23,1,2,57,2,1,0,3,0.786836799,0.837112054
33,20,1,1,58,2,2,0,3,0.546441991,0.581931909
33,39,1,1,59,3,2,0,1,0.710387107,0.679247026
33,24,1,2,60,2,1,0,3,0.732152178,0.630641734
33,30,1,1,61,2,1,1,3,0.339922585,0.299914718
33,39,1,2,62,3,2,1,2,0.813166594,0.749441806
33,27,1,1,63,3,2,0,1,1.121019136,1.147206393
33,26,1,2,64,2,2,1,3,0.645591937,0.562217788
33,28,1,2,65,1,2,1,4,0.529566809,0.522432427
33,28,1,2,66,2,2,1,3,0.597466169,0.602519986
33,23,1,1,67,2,1,1,3,0.68525924,0.622655905
33,20,1,1,68,1,1,1,4,0.380876641,0.364359426
33,39,1,2,69,3,2,1,2,1.131666273,1.089540412
33,24,1,2,70,1,2,1,5,0.448839616,0.50411995
33,30,1,1,71,2,1,1,4,0.662412943,0.61448462
33,39,1,2,72,1,2,1,4,0.319179732,0.239599217
33,27,1,1,73,2,1,1,3,0.783263427,0.808813423
33,26,1,1,74,1,2,0,4,0.73584953,0.756200445
33,28,1,1,75,1,1,1,4,0.463926726,0.555385083
33,28,1,1,76,1,1,1,5,0.376752749,0.39130096
33,23,1,2,77,1,2,1,5,0.475545425,0.455385048
33,20,1,2,78,3,1,0,1,0.851099787,0.903620888
33,39,1,1,79,3,1,1,3,0.586357019,0.593580133
33,24,1,2,80,1,2,1,5,0.277002777,0.250879314
33,30,1,2,81,2,2,1,3,0.683410761,0.601693504
33,39,1,2,82,2,2,1,4,0.679809945,0.64482895
33,27,1,2,83,3,1,0,1,0.825609319,0.766089573
33,26,1,1,84,1,1,1,4,0.431249851,0.438920686
33,28,1,2,85,1,2,1,5,0.246425095,0.24565077
33,28,1,1,86,3,1,1,3,1.175251625,1.120143173
33,23,1,2,87,1,2,1,5,0.3467247,0.365620368
33,20,1,1,88,1,2,0,3,0.850906471,0.944790591
33,39,1,2,89,2,1,0,3,0.437948637,0.423147802
33,24,1,2,90,2,1,0,2,0.502472628,0.495705427
33,30,1,2,91,2,2,1,4,0.463348246,0.486256334
33,39,1,1,92,3,2,0,2,1.179800056,1.214076589
33,27,1,2,93,3,1,0,1,0.528882955,0.545209087
33,26,1,1,94,3,1,1,2,0.653975068,0.688829278
33,28,1,2,95,3,1,0,1,1.309402248,1.340040411
33,28,1,2,96,1,1,0,4,0.619661118,0.580262193
33,23,1,1,97,1,2,0,4,0.510466995,0.492516582
33,20,1,2,98,3,2,1,2,1.001120557,0.993266617
33,39,1,2,99,3,1,0,1,0.536137392,0.536257725
33,24,1,2,100,1,2,1,4,0.398353664,0.4615937
33,30,1,2,101,2,2,1,3,0.668470748,0.612486291
33,39,1,1,102,3,1,1,3,1.116405698,1.130081054
33,27,1,1,103,3,2,0,1,1.208741405,1.256272968
33,26,1,1,104,1,1,1,5,0.386094184,0.38860172
33,28,1,2,105,2,1,0,2,0.666521863,0.7272628
33,28,1,1,106,1,1,1,4,0.41442113,0.422311836
33,23,1,2,107,3,2,1,2,0.840495241,0.833469365
33,20,1,1,108,2,2,0,2,0.59874188,0.549916414
33,39,1,2,109,3,1,0,2,1.042859343,0.944920626
33,24,1,1,110,2,2,0,2,0.930987426,0.921285755
33,30,1,1,111,3,1,1,2,0.754556434,0.8003418
33,39,1,2,112,1,2,1,5,0.342290163,0.311624102
33,27,1,1,113,2,1,1,4,0.520263573,0.576682192
33,26,1,2,114,2,1,0,2,0.687246428,0.747278441
33,28,1,1,115,3,1,1,3,0.868123735,0.838870798
33,28,1,2,116,3,1,0,2,1.191878968,1.290745967
33,23,1,2,117,3,1,0,1,0.76600042,0.787473005
33,20,1,1,118,1,2,0,4,0.449704301,0.49161475
33,39,1,1,119,2,1,1,3,0.618634128,0.591368958
33,24,1,1,120,1,1,1,5,0.481718286,0.596086163
33,30,1,1,121,1,1,1,4,0.400111359,0.500467442
33,39,1,2,122,1,1,0,4,0.707337919,0.692553963
33,27,1,2,123,2,1,0,2,0.703024218,0.740050949
33,26,1,1,124,3,1,1,3,0.844939958,0.744497974
33,28,1,1,125,1,2,0,3,0.700425901,0.707584477
33,28,1,2,126,3,1,0,1,0.522405794,0.529767506
33,23,1,2,127,3,1,0,1,0.818420118,0.827881167
33,20,1,1,128,2,1,1,3,0.566900514,0.609137651
33,39,1,1,129,2,2,0,2,0.702472775,0.727477773
33,24,1,2,130,1,2,1,5,0.291377298,0.347611479
33,30,1,1,131,2,1,1,4,0.593856569,0.585097865
33,39,1,2,132,1,2,1,4,0.325091566,0.354182918
33,27,1,2,133,1,2,1,5,0.417318335,0.413158589
33,26,1,2,134,2,2,1,4,0.505193309,0.47188346
33,28,1,1,135,2,1,1,4,0.561100485,0.574390478
33,28,1,2,136,2,1,0,3,0.494268141,0.524076245
33,23,1,2,137,1,1,0,3,0.488871434,0.473650019
33,20,1,2,138,3,2,1,2,0.604874026,0.575939729
33,39,1,2,139,1,2,1,4,0.211991227,0.270900428
33,24,1,1,140,3,2,0,2,0.323748225,0.268338852
33,30,1,1,141,2,2,0,3,0.507144764,0.459901352
33,39,1,1,142,3,2,0,1,0.424033002,0.449809911
33,27,1,2,143,2,1,0,2,0.646251917,0.689494769
33,26,1,2,144,2,2,1,3,0.773940342,0.845951174
33,28,1,2,145,2,2,1,3,0.542058638,0.529149984
33,28,1,2,146,3,2,1,3,0.857070835,0.860979265
33,23,1,2,147,3,1,0,1,1.150839454,1.102498325
33,20,1,1,148,1,1,1,5,0.392441602,0.430803786
33,39,1,2,149,2,1,0,3,0.87108384,0.873253095
33,24,1,2,150,1,2,1,5,0.308667253,0.342789947
33,30,1,1,151,2,2,0,3,1.052171395,1.094044071
33,39,1,2,152,2,2,1,3,0.52229954,0.494901965
33,27,1,1,153,3,2,0,2,1.443883062,1.376029323
33,26,1,2,154,2,2,1,4,0.770370399,0.756702981
33,28,1,1,155,2,2,0,2,0.628782342,0.661458066
33,28,1,1,156,3,2,0,2,0.503990727,0.52856191
33,23,1,1,157,1,2,0,4,0.492337776,0.467963887
33,20,1,2,158,1,1,0,4,0.349208701,0.377503281
33,39,1,2,159,2,2,1,3,0.641869873,0.594555451
33,24,1,1,160,1,2,0,4,0.528351912,0.521399648
33,30,1,1,161,3,1,1,2,0.880856288,0.881463251
33,39,1,1,162,3,2,0,2,0.750475072,0.733154469
33,27,1,2,163,3,2,1,3,0.637087582,0.642189169
33,26,1,2,164,2,1,0,2,0.484752633,0.425316723
33,28,1,2,165,2,1,0,3,0.778524698,0.748022516
33,28,1,1,166,1,1,1,4,0.34188387,0.388619634
33,23,1,1,167,2,1,1,3,0.446447565,0.53833937
33,20,1,1,168,1,1,1,5,0.382311108,0.34403243
33,39,1,2,169,3,1,0,2,0.873546521,0.882173947
33,24,1,1,170,1,1,1,4,0.499812267,0.527654711
33,30,1,1,171,1,1,1,5,0.397249289,0.4527642
33,39,1,2,172,2,2,1,3,0.55303338,0.562798038
33,27,1,2,173,2,2,1,3,0.703519411,0.699106934
33,26,1,2,174,1,2,1,4,0.443410719,0.469587431
33,28,1,1,175,1,1,1,4,0.446822918,0.415978037
33,28,1,1,176,1,1,1,5,0.438421013,0.466782866
33,23,1,1,177,2,1,1,3,0.560491834,0.504408379
33,20,1,1,178,1,1,1,4,0.416322949,0.502160246
33,39,1,1,179,2,1,1,3,0.538529427,0.493633617
33,24,1,2,180,2,1,0,3,0.827952845,0.768369906
33,30,1,1,181,3,1,1,2,0.730549756,0.766881634
33,39,1,1,182,2,1,1,3,0.524475477,0.507359779
33,27,1,2,183,3,2,1,2,0.593930663,0.593882296
33,26,1,2,184,2,2,1,3,0.646939154,0.673812531
33,28,1,1,185,1,1,1,5,0.407870952,0.368956417
33,28,1,2,186,2,2,1,4,0.625285275,0.71706561
33,23,1,2,187,3,2,1,3,0.7018642,0.657954043
33,20,1,2,188,2,1,0,3,0.85114711,0.863469335
33,39,1,1,189,3,1,1,3,0.461211606,0.469954043
33,24,1,2,190,3,1,0,1,1.29645882,1.288215891
33,30,1,1,191,3,2,0,1,1.696965492,1.767493972
33,39,1,1,192,2,1,1,3,0.539964408,0.481191772
33,27,1,1,193,1,1,1,5,0.445390645,0.396126654
33,26,1,1,194,1,1,1,5,0.43258855,0.36452357
33,28,1,1,195,1,2,0,3,0.467318837,0.479454387
33,28,1,2,196,3,2,1,2,0.805016605,0.812231862
33,23,1,1,197,3,1,1,3,1.043151812,0.998994305
33,20,1,1,198,3,1,1,3,0.436175798,0.291280533
33,39,1,2,199,1,2,1,4,0.475440548,0.521185237
33,24,1,1,200,2,2,0,2,0.575493438,0.634907702
33,30,1,2,201,1,2,1,4,0.380527826,0.334545116
33,39,1,2,202,2,1,0,3,0.570459588,0.528201681
33,27,1,2,203,2,1,0,3,0.559406249,0.555503477
33,26,1,2,204,3,2,1,2,0.795751048,0.712647747
33,28,1,2,205,3,1,0,2,1.130685221,1.106157733
33,28,1,2,206,1,1,0,4,0.565075949,0.489483227
33,23,1,1,207,2,1,1,3,0.684665921,0.59862154
33,20,1,2,208,3,2,1,3,0.50334973,0.610176575
33,39,1,1,209,1,1,1,4,0.422547275,0.407261518
33,24,1,2,210,2,1,0,3,0.631522307,0.609080549
33,30,1,1,211,3,2,0,1,1.102625311,1.03799415
33,39,1,1,212,3,1,1,3,0.872333037,0.989763805
33,27,1,2,213,3,1,0,2,1.423315405,1.450739396
33,26,1,1,214,2,1,1,4,0.655642426,0.65207641
33,28,1,2,215,2,2,1,3,0.440235805,0.319879932
33,28,1,2,216,3,2,1,2,0.846737792,0.775692749
33,23,1,1,217,3,2,0,2,0.525265493,0.524107308
33,20,1,1,218,1,1,1,5,0.452427643,0.456976167
33,39,1,1,219,3,1,1,3,0.796243339,0.819457683
33,24,1,1,220,3,1,1,2,0.647625599,0.701073759
33,30,1,2,221,3,2,1,3,0.932314522,0.895791112
33,39,1,2,222,3,2,1,3,0.82622233,0.745193796
33,27,1,2,223,3,1,0,2,1.500414053,1.484676443
33,26,1,1,224,3,2,0,1,0.893109667,1.045565313
33,28,1,2,225,1,2,1,4,0.496711991,0.409997945
33,28,1,1,226,3,2,0,1,1.394654609,1.379338948
33,23,1,2,227,3,2,1,2,0.994266412,0.986607842
33,20,1,2,228,1,2,1,5,0.404226953,0.355268817
33,39,1,2,229,1,1,0,4,0.550149624,0.477127123
33,24,1,1,230,1,1,1,4,0.398603489,0.393216447
33,30,1,1,231,1,1,1,4,0.338619017,0.371395269
33,39,1,1,232,3,1,1,3,0.332211091,0.377490926
33,27,1,1,233,1,1,1,4,0.392201372,0.43497738
33,26,1,2,234,1,1,0,4,0.500421253,0.562119606
33,28,1,2,235,1,2,1,4,0.42453409,0.403492371
33,28,1,1,236,2,1,1,4,0.722141995,0.710715041
33,23,1,1,237,2,2,0,2,0.650905562,0.706509626
33,20,1,2,238,3,1,0,1,0.862635118,0.904630086
33,39,1,1,239,3,1,1,2,0.742380325,0.750049593
33,24,1,1,240,1,1,1,4,0.367343316,0.311005225
32,19,2,1,1,1,1,1,4,0.492111966,0.434685789
32,38,2,2,2,1,1,0,4,0.487524588,0.448959382
32,36,2,2,3,2,1,0,3,0.596380615,0.47871273
32,29,2,1,4,2,1,1,3,0.464652647,0.423050654
32,25,2,2,5,2,2,1,4,0.629388757,0.61451457
32,40,2,1,6,1,1,1,4,0.324584158,0.416014559
32,21,2,2,7,2,1,0,3,0.832472891,0.840487739
32,39,2,1,8,3,2,0,2,1.213217001,1.245013911
32,39,2,1,9,3,2,0,2,1.182910218,1.205621699
32,18,2,1,10,1,1,1,4,0.408498644,0.416200561
32,19,2,2,11,1,2,1,4,0.485151575,0.537670512
32,38,2,2,12,3,2,1,3,1.144471273,1.114322476
32,36,2,1,13,1,1,1,5,0.34598518,0.375719303
32,29,2,1,14,3,1,1,2,0.622795509,0.62381238
32,25,2,1,15,3,2,0,2,0.782944294,0.690139
32,40,2,1,16,2,2,0,3,0.745151565,0.685343524
32,21,2,2,17,2,1,0,3,0.409097117,0.358474375
32,39,2,1,18,2,2,0,3,0.648852765,0.642184037
32,39,2,1,19,2,2,0,3,0.807442362,0.805890784
32,18,2,2,20,2,2,1,4,0.654798547,0.737841548
32,19,2,1,21,2,2,0,3,0.884342193,0.918675845
32,38,2,2,22,1,2,1,5,0.421952192,0.474494598
32,36,2,1,23,2,1,1,3,0.6354129,0.541410076
32,29,2,1,24,2,1,1,4,0.924558683,0.909490164
32,25,2,2,25,2,1,0,3,0.484013188,0.509556157
32,40,2,1,26,3,2,0,2,0.725902294,0.672059717
32,21,2,2,27,1,2,1,5,0.385178078,0.458802039
32,39,2,2,28,3,1,0,1,0.973474593,1.008088599
32,39,2,1,29,3,1,1,3,0.85538553,0.871098157
32,18,2,2,30,3,1,0,2,0.800079534,0.725109603
32,19,2,2,31,1,2,1,4,0.408415188,0.471000628
32,38,2,2,32,1,2,1,5,0.424533427,0.401365755
32,36,2,2,33,3,2,1,2,0.918892168,0.908802165
32,29,2,2,34,3,1,0,1,1.5182063,1.538011389
32,25,2,1,35,3,2,0,1,1.728869848,1.759048171
32,40,2,2,36,1,1,0,4,0.438336122,0.490945225
32,21,2,1,37,2,1,1,4,0.7453159,0.745154168
32,39,2,1,38,3,2,0,2,0.872425157,0.832235305
32,39,2,2,39,3,2,1,3,0.57103809,0.579136041
32,18,2,1,40,1,1,1,5,0.439389142,0.456203024
32,19,2,2,41,1,2,1,5,0.41566455,0.438301034
32,38,2,2,42,1,2,1,4,0.299359408,0.216864651
32,36,2,2,43,2,1,0,2,0.754741664,0.706202747
32,29,2,1,44,3,1,1,2,0.481865125,0.466602182
32,25,2,1,45,2,1,1,4,0.757547207,0.799901175
32,40,2,2,46,1,1,0,3,0.630747462,0.5747215
32,21,2,2,47,3,1,0,2,0.905173518,0.996664372
32,39,2,1,48,1,1,1,4,0.424537273,0.438479091
32,39,2,2,49,2,2,1,4,0.597233802,0.496731558
32,18,2,1,50,3,1,1,3,0.823745147,0.88839862
32,19,2,1,51,2,1,1,4,0.602257876,0.605584986
32,38,2,1,52,1,1,1,5,0.386571168,0.336220231
32,36,2,1,53,1,1,1,4,0.297674414,0.235259473
32,29,2,2,54,2,1,0,3,0.734626702,0.730871968
32,25,2,1,55,2,1,1,3,0.698865797,0.767113908
32,40,2,1,56,3,1,1,3,0.664943792,0.694406799
32,21,2,2,57,3,1,0,1,1.385342683,1.336328518
32,39,2,1,58,2,2,0,3,0.864094806,0.970714727
32,39,2,2,59,1,2,1,4,0.484711327,0.452463338
32,18,2,2,60,2,2,1,4,0.418051429,0.450575109
32,19,2,1,61,1,1,1,4,0.40564332,0.419579141
32,38,2,1,62,1,1,1,4,0.422675057,0.491841725
32,36,2,1,63,1,1,1,4,0.446567003,0.353056384
32,29,2,2,64,1,1,0,3,0.489005292,0.519766637
32,25,2,1,65,2,1,1,4,0.756500889,0.801732602
32,40,2,2,66,1,2,1,4,0.486894949,0.530346993
32,21,2,1,67,3,2,0,1,0.422128317,0.408879593
32,39,2,1,68,3,2,0,1,1.176380487,1.203374691
32,39,2,1,69,2,1,1,3,0.591643971,0.589364335
32,18,2,2,70,1,2,1,4,0.36432873,0.336071068
32,19,2,2,71,1,2,1,5,0.394072439,0.409729125
32,38,2,2,72,1,2,1,5,0.374282086,0.453175135
32,36,2,1,73,2,1,1,3,0.432054977,0.457851264
32,29,2,2,74,3,2,1,3,0.960850308,1.045876495
32,25,2,1,75,3,2,0,2,0.684601826,0.653403963
32,40,2,2,76,3,2,1,2,0.827001901,0.816567341
32,21,2,1,77,3,2,0,1,1.338111527,1.302655547
32,39,2,1,78,1,1,1,5,0.308828314,0.334425006
32,39,2,1,79,3,2,0,2,0.934830653,0.947268463
32,18,2,2,80,1,1,0,4,0.582030523,0.565402469
32,19,2,1,81,1,1,1,4,0.372103986,0.277735873
32,38,2,2,82,1,2,1,5,0.354613646,0.36932257
32,36,2,2,83,3,1,0,2,1.141836841,1.125940827
32,29,2,1,84,2,2,0,3,0.618097501,0.586141388
32,25,2,1,85,1,1,1,4,0.424321414,0.501315489
32,40,2,1,86,2,1,1,3,0.587965147,0.591960083
32,21,2,2,87,1,1,0,3,0.44461897,0.556898013
32,39,2,2,88,2,2,1,3,0.449086374,0.392964784
32,39,2,1,89,3,1,1,3,0.890930301,1.013840241
32,18,2,1,90,1,1,1,4,0.310618287,0.282437705
32,19,2,2,91,1,2,1,5,0.486996732,0.433249705
32,38,2,2,92,1,1,0,3,0.537018107,0.524932451
32,36,2,1,93,1,2,0,3,0.469767099,0.489454806
32,29,2,2,94,3,1,0,1,0.683726168,0.708431764
32,25,2,2,95,3,2,1,3,0.680317766,0.667238406
32,40,2,2,96,3,1,0,1,0.95141223,1.007316725
32,21,2,1,97,2,1,1,3,0.688472536,0.572830098
32,39,2,1,98,3,1,1,3,0.944659574,0.938223664
32,39,2,1,99,2,2,0,3,0.389377649,0.422409163
32,18,2,2,100,1,2,1,5,0.311383658,0.395915052
32,19,2,2,101,1,2,1,4,0.44137989,0.515583753
32,38,2,1,102,2,2,0,3,0.353757389,0.320076405
32,36,2,2,103,3,2,1,2,0.567740007,0.522254907
32,29,2,1,104,1,1,1,4,0.535129606,0.564656021
32,25,2,2,105,1,2,1,4,0.376875913,0.421216952
32,40,2,1,106,3,2,0,1,0.94475683,0.947925117
32,21,2,1,107,2,1,1,3,0.69730535,0.714522395
32,39,2,2,108,3,2,1,2,0.384439702,0.351745337
32,39,2,2,109,1,2,1,4,0.50504044,0.508949879
32,18,2,1,110,3,2,0,1,0.745055426,0.768225733
32,19,2,2,111,3,2,1,2,0.683219109,0.715416214
32,38,2,2,112,3,2,1,2,0.733259231,0.704759188
32,36,2,2,113,2,2,1,3,0.846706472,0.773247387
32,29,2,2,114,3,2,1,3,0.458659105,0.470482561
32,25,2,2,115,1,2,1,4,0.401174535,0.430223224
32,40,2,2,116,1,2,1,4,0.275566494,0.236751444
32,21,2,2,117,1,2,1,5,0.302668705,0.345899659
32,39,2,1,118,1,1,1,5,0.451701938,0.519181139
32,39,2,1,119,1,2,0,4,0.35606399,0.381348958
32,18,2,1,120,3,1,1,3,0.737470261,0.800041691
32,19,2,2,121,3,2,1,2,0.947005121,1.059125779
32,38,2,2,122,2,1,0,3,0.882252704,0.935496335
32,36,2,2,123,2,2,1,4,0.552161855,0.532902757
32,29,2,1,124,3,2,0,2,0.393756392,0.387226333
32,25,2,2,125,2,1,0,3,0.612428353,0.600163166
32,40,2,2,126,3,1,0,1,0.860129367,0.835073893
32,21,2,1,127,3,2,0,2,0.966080579,1.012492504
32,39,2,2,128,1,2,1,5,0.478390743,0.401513513
32,39,2,2,129,1,2,1,5,0.267452741,0.281537521
32,18,2,2,130,3,1,0,1,0.658408668,0.674475729
32,19,2,2,131,3,1,0,1,1.204531975,1.274199653
32,38,2,1,132,2,1,1,3,0.480054333,0.536579823
32,36,2,1,133,2,1,1,3,0.438255609,0.411698743
32,29,2,2,134,3,1,0,2,0.704100913,0.726807469
32,25,2,2,135,2,1,0,2,0.782844531,0.899665894
32,40,2,1,136,3,2,0,2,0.745393887,0.713427184
32,21,2,1,137,3,2,0,2,1.042603237,0.995801888
32,39,2,1,138,3,2,0,2,1.044437724,1.005418929
32,39,2,1,139,3,1,1,3,1.177890662,1.175981021
32,18,2,2,140,1,1,0,3,0.670429524,0.638446102
32,19,2,2,141,2,2,1,4,0.608090262,0.523939011
32,38,2,1,142,3,1,1,3,0.60749317,0.583416267
32,36,2,1,143,2,2,0,3,0.643078468,0.630585893
32,29,2,2,144,3,1,0,1,0.517061763,0.600260347
32,25,2,1,145,1,1,1,4,0.497742704,0.529929695
32,40,2,1,146,2,1,1,3,0.453115959,0.462978618
32,21,2,2,147,2,1,0,2,0.808992227,0.767566973
32,39,2,2,148,1,2,1,5,0.251085218,0.236815313
32,39,2,2,149,1,2,1,5,0.489293166,0.494063622
32,18,2,2,150,3,2,1,3,1.159303834,1.116200464
32,19,2,2,151,1,1,0,4,0.519751251,0.617659877
32,38,2,2,152,1,2,1,4,0.361378253,0.455236074
32,36,2,1,153,3,1,1,3,0.581572613,0.54112817
32,29,2,2,154,2,2,1,4,0.581378748,0.579400256
32,25,2,2,155,1,2,1,4,0.529858772,0.527111354
32,40,2,1,156,2,2,0,2,0.662501209,0.563089075
32,21,2,1,157,3,1,1,2,0.731675723,0.748208887
32,39,2,2,158,2,2,1,3,0.525482786,0.557660635
32,39,2,2,159,3,1,0,2,0.569422804,0.587268144
32,18,2,1,160,2,1,1,3,0.542929943,0.594766492
32,19,2,2,161,2,2,1,3,0.468289112,0.446214852
32,38,2,1,162,1,1,1,5,0.296535553,0.256067102
32,36,2,1,163,3,1,1,2,0.723969521,0.751975499
32,29,2,2,164,3,1,0,1,0.605262865,0.705094599
32,25,2,1,165,2,2,0,2,0.59478482,0.55977079
32,40,2,2,166,3,1,0,1,0.758989615,0.7783237
32,21,2,2,167,3,2,1,3,0.865503897,0.849436891
32,39,2,2,168,2,2,1,3,0.649693135,0.689725008
32,39,2,1,169,2,1,1,4,0.567509811,0.513341399
32,18,2,1,170,2,2,0,2,0.463465452,0.436664278
32,19,2,2,171,3,1,0,1,0.948673517,0.981452371
32,38,2,2,172,2,2,1,3,0.566710274,0.529775655
32,36,2,2,173,2,1,0,2,0.76531323,0.744179146
32,29,2,2,174,2,2,1,3,0.624834428,0.524055103
32,25,2,1,175,2,1,1,3,0.651019801,0.685669974
32,40,2,2,176,2,2,1,4,0.495959035,0.401930708
32,21,2,1,177,2,1,1,4,0.810569829,0.862276192
32,39,2,1,178,2,1,1,4,0.557541197,0.560170901
32,39,2,1,179,1,1,1,5,0.316797576,0.252832925
32,18,2,1,180,1,2,0,3,0.661683383,0.595959691
32,19,2,1,181,1,1,1,4,0.374650443,0.40115109
32,38,2,2,182,2,2,1,3,0.321233612,0.237191436
32,36,2,1,183,1,1,1,5,0.36055424,0.309069381
32,29,2,1,184,2,2,0,3,0.57782764,0.63692124
32,25,2,2,185,2,2,1,4,0.613596103,0.567886129
32,40,2,1,186,2,1,1,3,0.674850991,0.590492882
32,21,2,1,187,2,2,0,2,0.679820541,0.633247301
32,39,2,2,188,1,2,1,4,0.277069941,0.252417753
32,39,2,2,189,3,2,1,2,1.214873173,1.14683467
32,18,2,1,190,3,2,0,2,1.329955546,1.355435974
32,19,2,1,191,1,1,1,4,0.502269888,0.586164086
32,38,2,1,192,2,2,0,2,0.704556679,0.633471571
32,36,2,2,193,2,1,0,3,0.736361926,0.717982925
32,29,2,2,194,3,1,0,1,1.507460809,1.455206918
32,25,2,2,195,3,1,0,1,1.111325037,1.180643314
32,40,2,1,196,1,2,0,4,0.65354324,0.654016374
32,21,2,2,197,3,2,1,2,0.636783907,0.737352117
32,39,2,1,198,3,1,1,2,0.768577423,0.802200811
32,39,2,1,199,2,1,1,4,0.748542972,0.714694986
32,18,2,1,200,3,2,0,1,1.098193078,1.234318501
32,19,2,2,201,3,2,1,3,0.686905588,0.722410338
32,38,2,2,202,2,1,0,2,1.043381514,1.02494048
32,36,2,1,203,2,1,1,3,0.617464251,0.56180457
32,29,2,2,204,1,2,1,5,0.480372642,0.439429276
32,25,2,2,205,1,1,0,3,0.594264113,0.54336348
32,40,2,2,206,2,2,1,4,0.849943799,0.84563899
32,21,2,1,207,1,1,1,5,0.371820764,0.37033683
32,39,2,1,208,3,1,1,2,0.464023799,0.422468989
32,39,2,1,209,1,2,0,3,0.434450849,0.450515362
32,18,2,1,210,1,1,1,4,0.403214347,0.368490158
32,19,2,1,211,2,1,1,3,0.599785892,0.579315192
32,38,2,1,212,3,1,1,3,0.901211851,0.827843679
32,36,2,1,213,1,1,1,4,0.389571116,0.27948718
32,29,2,2,214,1,2,1,4,0.324920492,0.274611757
32,25,2,2,215,1,2,1,5,0.49909012,0.534285081
32,40,2,2,216,1,2,1,5,0.39146373,0.441216531
32,21,2,1,217,1,1,1,5,0.461404202,0.483776299
32,39,2,2,218,1,2,1,4,0.4446685,0.421872563
32,39,2,2,219,3,2,1,2,0.61678867,0.673376295
32,18,2,1,220,3,1,1,3,0.693640871,0.706742777
32,19,2,1,221,1,1,1,4,0.423803383,0.326571562
32,38,2,1,222,2,1,1,4,0.449419911,0.421185086
32,36,2,1,223,3,1,1,3,0.877266654,0.919349311
32,29,2,2,224,2,2,1,3,0.614576121,0.646695889
32,25,2,1,225,3,2,0,1,0.71980575,0.703720423
32,40,2,2,226,1,2,1,4,0.510636856,0.448588372
32,21,2,1,227,2,2,0,2,0.771006193,0.645789466
32,39,2,2,228,2,2,1,3,0.580109197,0.635024852
32,39,2,1,229,2,2,0,3,0.494505281,0.424111334
32,18,2,2,230,1,2,1,5,0.386424488,0.285992253
32,19,2,2,231,3,2,1,2,1.148678014,1.094708307
32,38,2,1,232,1,1,1,4,0.490641544,0.461030052
32,36,2,2,233,3,2,1,3,0.528149927,0.397535782
32,29,2,1,234,3,2,0,1,0.212016538,0.183074659
32,25,2,1,235,2,1,1,3,0.616294454,0.572816808
32,40,2,2,236,3,2,1,3,0.566990342,0.495532696
